ax,ay,az,gx,gy,gz
0.20454732,-2.2836573,0.19181992,-36.011234,59.260536,-15.203775
0.1456811,-2.9532566,0.17999405,-31.096367,63.159687,-14.76458
-0.057487212,-3.7572105,0.09080218,-24.14398,61.467045,-18.21839
0.23419793,-4.7175393,0.13075425,-21.505693,57.431625,-16.029469
1.214187,-5.8034153,0.15783392,-20.706656,57.660973,-5.1955967
2.0752,-6.6658797,0.0009769672,-18.067812,61.72425,3.845712
2.7973714,-7.2716317,-0.36383063,-10.933045,66.87881,9.978457
3.4037874,-7.549022,-0.7943825,-2.6484044,72.058014,16.11076
3.8065186,-7.6008477,-1.306549,5.6777434,76.54851,24.468817
3.9159765,-7.4968534,-1.9582609,13.92847,80.42107,32.76385
3.8301654,-7.255937,-2.6410115,22.848341,83.77076,39.69916
3.6082206,-6.8629117,-3.2986176,31.612242,85.95563,45.386463
3.3005242,-6.313859,-3.870796,39.446163,86.55602,50.09051
2.9420865,-5.658107,-4.333486,45.937714,85.43278,53.523937
2.5186172,-4.987133,-4.701349,51.23364,83.1082,56.199463
2.0901566,-4.390053,-5.0123377,55.764313,79.598145,58.176624
1.7002006,-3.8382883,-5.257741,59.824932,75.286156,59.413948
1.3625335,-3.2545028,-5.4137235,63.449177,70.35248,59.97515
1.071336,-2.5913484,-5.4544554,65.68771,64.58942,59.646744
0.8265829,-1.8816717,-5.3474317,66.480286,58.708286,58.96488
0.5939333,-1.2231146,-5.179917,66.1844,52.746174,57.85935
0.38656655,-0.6033852,-4.9699564,65.13482,46.63253,56.09523
0.22673362,0.021182718,-4.711639,63.429478,40.742195,53.37221
0.1044095,0.62559706,-4.416439,60.703823,35.275864,49.70584
0.0024217593,1.1711847,-4.0922236,57.2144,30.113722,45.849674
-0.088005885,1.6460153,-3.7753,53.345844,25.256521,41.595753
-0.16765861,2.0381558,-3.469147,49.22069,20.716953,36.779434
-0.22914423,2.3346334,-3.175208,44.74523,16.51007,31.64286
-0.27060854,2.5159912,-2.9024756,39.89554,12.558266,26.140463
-0.2678818,2.5479403,-2.654548,34.901703,8.749071,20.781775
-0.20762798,2.4564986,-2.4255006,29.788462,5.1360307,15.603677
-0.068934016,2.2529514,-2.2183728,24.893425,1.9145927,10.553156
0.15653978,1.9431134,-2.0311413,20.335773,-0.5705143,6.0833216
0.44149023,1.5461897,-1.8747401,16.290066,-1.9381377,3.0946524
0.74935645,1.0741408,-1.7790604,12.772763,-2.7256706,1.400598
1.0507972,0.58002436,-1.7277621,10.034091,-2.8480427,0.7296674
1.3171121,0.10614714,-1.7183534,8.324896,-2.2509394,0.80827487
1.524333,-0.32307008,-1.745883,7.434411,-1.1198558,1.526246
1.6483737,-0.70261735,-1.8122189,7.6243005,0.362752,3.07799
1.6563313,-1.0018488,-1.9146315,8.546222,1.6751788,4.9138103
1.6104106,-1.2354894,-2.0272083,10.037814,2.6995387,6.919212
1.5375417,-1.4038504,-2.1427772,11.952545,3.3120534,8.998326
1.4592196,-1.5072285,-2.2532344,14.1797495,3.5762618,11.078818
1.3807352,-1.5559994,-2.357062,16.686993,3.4759433,13.088357
1.3014323,-1.5586596,-2.4629729,19.313778,3.1150157,15.054942
1.222118,-1.5301069,-2.5594742,22.040401,2.4277315,16.943323
1.1435901,-1.458448,-2.6300085,24.818888,1.5181072,18.680086
1.0571051,-1.3406539,-2.6748698,27.469875,0.31678742,20.130676
0.96951294,-1.1831838,-2.6988425,29.752533,-1.3900042,21.18192
0.88327634,-1.016842,-2.7155628,31.932676,-3.4495003,21.928873
0.80184937,-0.8287502,-2.7141948,34.083477,-5.8651667,22.56231
0.7344624,-0.582046,-2.6629393,35.848373,-8.50748,23.140669
0.6741136,-0.26303938,-2.5442457,36.983402,-10.998369,23.40954
0.6001336,0.093637794,-2.3781238,37.251522,-13.036296,23.02271
0.50210446,0.4565632,-2.1863105,36.799973,-14.761872,22.223616
0.38636512,0.8051713,-1.9979283,35.51302,-16.431978,21.041023
0.26649344,1.1341633,-1.8206568,33.48622,-18.177654,19.415863
0.15927723,1.4293102,-1.6615558,30.776556,-19.992266,17.401354
0.074980825,1.6716752,-1.521908,27.266655,-21.863535,15.0263
0.023581559,1.8330841,-1.4056262,23.422228,-23.690168,12.397665
0.015052311,1.9230573,-1.313811,19.523014,-25.416693,9.518739
0.05953244,1.9435307,-1.2441299,15.702955,-26.88901,6.4598036
0.14283153,1.8903178,-1.1917056,12.0591135,-28.10498,3.4105563
0.25207925,1.7625573,-1.1498947,8.621847,-29.02706,0.7519978
0.39023307,1.5546613,-1.1219709,5.601073,-29.79966,-1.4696364
0.55330765,1.3200511,-1.0968626,2.9244564,-30.345974,-3.3214757
0.730331,1.0684084,-1.0713567,0.76514304,-30.455132,-4.7974634
0.89328146,0.81656396,-1.0380108,-0.87995535,-30.031473,-5.95222
1.0249174,0.5864707,-0.9969074,-1.9960961,-28.996344,-6.738729
1.1024051,0.3939865,-0.96068686,-2.825758,-27.799267,-7.234228
1.1425741,0.23122202,-0.93573445,-3.4606507,-26.712025,-7.3964443
1.159789,0.09592462,-0.9134224,-3.9968631,-25.823877,-7.2078505
1.1636697,-0.013180458,-0.8894346,-4.457208,-24.945719,-6.76771
1.1480128,-0.107781775,-0.8679177,-4.6139393,-23.83515,-6.2297945
1.1118033,-0.16696508,-0.8505919,-4.6011744,-22.77263,-5.5973926
1.07238,-0.19800982,-0.8294344,-4.631326,-21.742949,-4.7500567
1.0206176,-0.2176095,-0.8110852,-4.608397,-20.771961,-4.0345607
0.97281325,-0.22993915,-0.7957332,-4.5380177,-19.851828,-3.5466506
0.93561614,-0.23975459,-0.7815105,-4.4834275,-18.890297,-3.140079
0.9040053,-0.24486992,-0.767748,-4.4459896,-17.88097,-2.7408962
0.87357265,-0.23520242,-0.7492949,-4.400152,-16.906157,-2.3526495
0.84515935,-0.2139468,-0.7285715,-4.255873,-15.985823,-1.9308237
0.81765956,-0.19608001,-0.7086717,-4.0394106,-15.129652,-1.4591708
0.79135656,-0.18601729,-0.6904479,-3.7397294,-14.260651,-0.9239942
0.76649296,-0.18017283,-0.66875476,-3.622231,-13.812595,-0.89496326
0.7424243,-0.17451522,-0.6477552,-3.5084896,-13.378866,-0.8668605
0.719124,-0.16903822,-0.62742597,-3.3983788,-12.958983,-0.83965486
0.69656634,-0.16373579,-0.60774475,-3.2917776,-12.552483,-0.8133164
0.6747266,-0.15860212,-0.58868986,-3.188569,-12.158919,-0.7878161
0.653581,-0.15363161,-0.5702406,-3.088641,-11.777865,-0.7631264
0.6331067,-0.14881888,-0.55237705,-2.991885,-11.408907,-0.7392204
0.61328155,-0.14415875,-0.53507984,-2.8981967,-11.051647,-0.7160724
0.5940842,-0.1396462,-0.51833045,-2.8074756,-10.705702,-0.69365746
0.5754942,-0.13527642,-0.50211096,-2.7196248,-10.370701,-0.67195165
0.55749184,-0.13104476,-0.4864041,-2.6345503,-10.0462885,-0.6509319
0.5400579,-0.1269467,-0.4711932,-2.5521624,-9.73212,-0.63057584
0.5231739,-0.12297794,-0.4564622,-2.4723735,-9.427862,-0.610862
0.5068222,-0.11913429,-0.44219556,-2.3950999,-9.133196,-0.59176964
0.49098557,-0.115411706,-0.42837828,-2.3202603,-8.847812,-0.57327867
0.4756474,-0.11180629,-0.41499594,-2.2477763,-8.571409,-0.5553697
0.46079165,-0.10831428,-0.4020345,-2.1775723,-8.303701,-0.538024
0.4464029,-0.10493205,-0.3894805,-2.109575,-8.044409,-0.52122355
0.43246618,-0.101656064,-0.37732092,-2.043714,-7.793262,-0.50495094
0.41896704,-0.09848294,-0.3655431,-1.979921,-7.5500007,-0.48918924
0.40589154,-0.095409386,-0.3541349,-1.9181297,-7.314373,-0.47392216
0.39322612,-0.092432246,-0.34308448,-1.8582766,-7.0861363,-0.45913395
0.3809578,-0.08954843,-0.33238053,-1.8002999,-6.8650546,-0.44480935
0.36907393,-0.08675499,-0.322012,-1.74414,-6.6509013,-0.43093365
0.3575623,-0.08404906,-0.3119683,-1.6897393,-6.4434557,-0.41749257
0.34641114,-0.08142785,-0.30223903,-1.637042,-6.242506,-0.40447238
0.33560902,-0.07888869,-0.29281434,-1.5859942,-6.0478463,-0.39185974
0.3251449,-0.07642898,-0.28368452,-1.5365437,-5.8592772,-0.37964174
0.31500807,-0.07404621,-0.2748403,-1.48864,-5.676607,-0.36780593
0.30518827,-0.071737945,-0.26627263,-1.4422343,-5.4996486,-0.35634023
0.29567543,-0.06950185,-0.2579728,-1.3972793,-5.3282228,-0.34523296
0.2864599,-0.067335635,-0.2499324,-1.3537292,-5.162154,-0.33447284
0.2775323,-0.065237105,-0.2421432,-1.31154,-5.0012746,-0.32404894
0.26888362,-0.06320413,-0.23459734,-1.2706687,-4.845421,-0.31395066
0.26050505,-0.061234653,-0.22728714,-1.2310739,-4.694434,-0.30416775
0.2523881,-0.05932667,-0.2202052,-1.1927154,-4.5481625,-0.29469034
0.24452454,-0.057478253,-0.21334435,-1.1555545,-4.4064574,-0.28550878
0.23690642,-0.05568753,-0.20669766,-1.1195534,-4.269175,-0.27661383
0.22952607,-0.053952698,-0.2002584,-1.084676,-4.1361775,-0.26799646
0.222376,-0.052271992,-0.19402006,-1.0508868,-4.0073295,-0.259648
0.21544902,-0.050643723,-0.18797636,-1.0181518,-3.8825016,-0.25155997
0.2087381,-0.04906625,-0.18212117,-0.98643786,-3.7615676,-0.24372426
0.2022365,-0.047537975,-0.17644861,-0.9557131,-3.6444054,-0.23613295
0.19593766,-0.046057362,-0.17095296,-0.92594653,-3.5308971,-0.22877836
0.18983524,-0.044622917,-0.16562869,-0.8971082,-3.4209282,-0.22165313
0.18392308,-0.043233197,-0.16047041,-0.869169,-3.314388,-0.21475005
0.17819524,-0.041886803,-0.15547293,-0.8421008,-3.2111695,-0.20806217
0.17264596,-0.04058238,-0.15063126,-0.8158764,-3.1111684,-0.20158277
0.16726963,-0.039318617,-0.1459405,-0.79046947,-3.0142844,-0.19530535
0.16206089,-0.03809424,-0.14139593,-0.76585436,-2.9204202,-0.18922357
0.15701446,-0.036908023,-0.13699299,-0.74200636,-2.829481,-0.18333133
0.1521253,-0.03575877,-0.13272727,-0.7189016,-2.7413757,-0.1776227
0.14738849,-0.034645326,-0.12859446,-0.6965167,-2.6560159,-0.17209196
0.14279926,-0.03356658,-0.12459043,-0.6748293,-2.5733159,-0.16673355
0.13835302,-0.03252144,-0.12071115,-0.65381765,-2.4931924,-0.16154209
0.1340453,-0.031508863,-0.11695272,-0.6334606,-2.415565,-0.15651236
0.12987179,-0.03052783,-0.11331137,-0.6137377,-2.340356,-0.15163933
0.12582827,-0.029577356,-0.10978347,-0.59462917,-2.26749,-0.14691809
0.12191071,-0.02865649,-0.10636545,-0.5761159,-2.1968935,-0.14234391
0.11811518,-0.027764307,-0.103053905,-0.55817926,-2.1284962,-0.13791223
0.11443787,-0.026899913,-0.0998455,-0.54080135,-2.062229,-0.13361856
0.11087509,-0.026062442,-0.09673702,-0.52396464,-1.9980259,-0.12945864
0.10742327,-0.025251053,-0.09372535,-0.5076523,-1.9358224,-0.12542826
0.104078956,-0.024464935,-0.09080748,-0.491848,-1.8755561,-0.12152341
0.10083879,-0.023703296,-0.08798048,-0.4765359,-1.8171667,-0.11774017
0.09769952,-0.022965377,-0.08524152,-0.46170062,-1.7605956,-0.114074744
0.094658025,-0.022250438,-0.082587846,-0.44732732,-1.705786,-0.110523455
0.09171123,-0.021557761,-0.08001681,-0.43340158,-1.6526834,-0.10708276
0.0888562,-0.020886652,-0.07752583,-0.4199095,-1.6012342,-0.1037492
0.086090066,-0.020236442,-0.07511242,-0.40683755,-1.5513871,-0.10051944
0.08341006,-0.019606479,-0.07277416,-0.3941726,-1.503092,-0.09739025
0.08081351,-0.018996129,-0.070508696,-0.381902,-1.4563009,-0.0943585
0.0782978,-0.018404784,-0.06831378,-0.37001348,-1.4109665,-0.091421135
0.07586042,-0.017831849,-0.066187195,-0.35849512,-1.3670436,-0.08857523
0.07349893,-0.017276755,-0.06412683,-0.34733537,-1.3244884,-0.08581793
0.071210966,-0.016738942,-0.062130604,-0.3365231,-1.2832581,-0.08314648
0.06899423,-0.016217873,-0.060196534,-0.32604742,-1.2433114,-0.08055821
0.06684651,-0.015713027,-0.05832268,-0.31589788,-1.2046083,-0.07805052
0.064765655,-0.015223899,-0.056507163,-0.30606437,-1.1671103,-0.0756209
0.06274959,-0.014749999,-0.054748166,-0.29653698,-1.1307797,-0.073266916
0.06079628,-0.0142908525,-0.053043935,-0.2873062,-1.0955801,-0.07098622
0.058903787,-0.013846001,-0.05139276,-0.2783628,-1.0614763,-0.068776526
0.057070207,-0.013414998,-0.049792986,-0.26969782,-1.0284344,-0.06663563
0.055293713,-0.012997412,-0.048243016,-0.2613026,-0.99642104,-0.064561374
0.05357252,-0.012592826,-0.046741303,-0.25316873,-0.9654043,-0.0625517
0.05190491,-0.012200836,-0.045286335,-0.24528807,-0.9353531,-0.060604587
0.050289214,-0.011821048,-0.043876663,-0.23765275,-0.9062374,-0.058718085
0.048723817,-0.011453084,-0.042510875,-0.23025511,-0.87802815,-0.056890316
0.04720715,-0.011096573,-0.0411876,-0.22308777,-0.85069704,-0.055119444
0.045737695,-0.010751162,-0.039905522,-0.21614355,-0.8242167,-0.053403698
0.044313986,-0.010416503,-0.038663354,-0.2094155,-0.79856074,-0.05174136
0.042934597,-0.010092262,-0.037459854,-0.20289688,-0.7737034,-0.050130773
0.041598145,-0.009778114,-0.03629382,-0.19658118,-0.7496199,-0.048570324
0.040303297,-0.009473746,-0.035164084,-0.1904621,-0.72628605,-0.04705845
0.039048757,-0.009178852,-0.034069512,-0.18453349,-0.7036786,-0.045593638
0.03783327,-0.008893137,-0.033009015,-0.17878944,-0.6817749,-0.044174425
