ax,ay,az,gx,gy,gz
-2.880026,-3.8800354,-11.589196,18.643805,15.9801445,-50.825916
-2.3944938,-4.5870953,-12.841258,32.414745,-0.38751775,-47.402065
-2.5022717,-5.0407896,-13.590273,39.612705,-26.811335,-40.30855
-2.3594823,-5.412704,-13.777484,48.204056,-52.44751,-37.060062
-1.8627633,-5.6542673,-13.610071,59.41863,-73.313896,-33.5533
-1.2337753,-5.804157,-13.198155,72.21106,-88.331795,-24.95009
-0.6677511,-5.921028,-12.625083,84.981,-98.91419,-13.42685
-0.3504765,-5.864852,-12.182227,95.1182,-109.90828,-2.6198726
-0.12973216,-5.751544,-11.662684,101.9841,-122.43298,5.3119397
0.24318866,-5.6931167,-10.76758,107.10808,-133.34537,13.158423
0.8248357,-5.632104,-9.517263,111.805695,-138.92609,25.46354
1.5461241,-5.140677,-7.9622626,114.73553,-140.62889,38.650528
2.310982,-4.360684,-6.3116155,115.16695,-138.41695,50.353256
3.1081083,-3.5246196,-4.6709986,112.175285,-132.24107,60.227737
3.8680723,-2.6997063,-3.0925205,107.57613,-121.520164,68.29752
4.5530434,-1.8525875,-1.7066118,100.9674,-104.83635,74.156944
4.9855227,-0.9891119,-0.77205044,93.25156,-86.59839,77.99499
5.2239,-0.22516538,-0.17572185,86.16902,-67.39723,78.87668
5.27345,0.37768003,0.11020098,79.98715,-49.01168,77.64187
5.190136,0.8741958,0.16971374,74.83717,-32.548832,75.59184
5.0182304,1.3332423,0.10014245,69.83848,-18.323769,73.33703
4.737937,1.7776018,-0.13349372,65.321045,-6.6259437,70.16155
4.4153166,2.224381,-0.43353558,61.00004,2.3905218,64.67447
4.075097,2.6215925,-0.7790265,56.601944,8.97038,56.652397
3.7042253,2.9105062,-1.1976072,52.462376,12.970156,47.59402
3.3159535,3.098591,-1.6559887,47.84416,13.306767,38.41475
2.9561439,3.1900594,-2.0994165,43.419827,11.740239,30.048044
2.6281476,3.261076,-2.5414407,39.014282,8.854896,22.452179
2.2969368,3.2784705,-3.0013442,34.894993,4.630848,15.198144
1.9657208,3.2511866,-3.4645631,31.518656,-0.82209873,8.188989
1.6512688,3.171041,-3.9138088,27.996456,-8.558401,1.9247761
1.3866568,3.0040514,-4.318795,24.356472,-17.79139,-3.2719443
1.1890484,2.8162324,-4.648854,20.777845,-28.105581,-7.1323
1.0922302,2.6213691,-4.877483,16.871037,-38.729897,-10.555022
1.1042602,2.3900523,-4.929659,13.9284935,-48.29042,-13.214687
1.2146571,2.1747532,-4.802409,12.097184,-55.690384,-15.053652
1.4300684,1.9362925,-4.472734,11.272574,-61.112053,-15.820891
1.7217504,1.710483,-4.095628,10.383709,-64.8933,-15.813571
2.0588129,1.4706366,-3.6670175,9.914299,-67.2588,-15.159287
2.4361782,1.2539613,-3.1701982,9.547314,-67.94627,-14.111741
2.8084745,1.0701467,-2.62316,8.786187,-66.04974,-12.290389
3.1373591,0.9198417,-2.0855188,7.9805884,-62.211372,-10.137431
3.3889327,0.7887735,-1.6113089,7.9702554,-57.062565,-7.8496327
3.5880368,0.6963024,-1.1695006,8.616965,-50.68636,-5.8893504
3.4624522,0.67193115,-1.128567,8.315363,-48.91229,-5.6832175
3.342132,0.6485816,-1.0893494,8.026405,-47.21259,-5.4857264
3.2267752,0.6261952,-1.0517495,7.749366,-45.583004,-5.2963815
3.116104,0.6047181,-1.0156767,7.4835796,-44.019604,-5.114727
3.0098622,0.58410054,-0.98104787,7.228431,-42.518784,-4.9403434
2.9078143,0.5642969,-0.9477859,6.983355,-41.077206,-4.7728434
2.8097415,0.5452647,-0.91581964,6.747825,-39.69178,-4.6118684
2.7154417,0.52696466,-0.88508314,6.521356,-38.359653,-4.457086
2.6247265,0.50936025,-0.855515,6.3034964,-37.078167,-4.3081875
2.537421,0.49241757,-0.82705826,6.093825,-35.84485,-4.1648855
2.4533622,0.47610494,-0.7996598,5.891951,-34.65739,-4.0269127
2.372398,0.4603928,-0.7732699,5.6975083,-33.51365,-3.894019
2.2943854,0.44525358,-0.7478422,5.510155,-32.41161,-3.7659705
2.219192,0.43066132,-0.7233333,5.3295717,-31.349388,-3.642549
2.146692,0.41659182,-0.6997023,5.1554575,-30.32522,-3.5235486
2.0767682,0.40302226,-0.67691106,4.9875298,-29.337442,-3.4087768
2.00931,0.3899312,-0.65492344,4.8255234,-28.384495,-3.2980518
1.9442134,0.37729838,-0.63370556,4.669188,-27.464907,-3.191203
1.88138,0.36510476,-0.61322534,4.5182886,-26.577291,-3.0880692
1.8207169,0.35333237,-0.5934526,4.372601,-25.720335,-2.988498
1.7621367,0.34196416,-0.57435864,4.231916,-24.892803,-2.8923452
1.705556,0.330984,-0.5559165,4.096033,-24.093517,-2.7994745
1.6508963,0.32037663,-0.5381005,3.9647632,-23.321367,-2.7097569
1.5980829,0.31012753,-0.52088624,3.8379273,-22.575298,-2.6230698
1.5470446,0.30022293,-0.50425065,3.715355,-21.85431,-2.5392964
1.4977143,0.29064977,-0.48817164,3.5968838,-21.157442,-2.458326
1.4500273,0.28139555,-0.47262836,3.48236,-20.483795,-2.3800535
1.4039229,0.2724484,-0.45760086,3.3716362,-19.8325,-2.3043783
1.3593425,0.26379701,-0.4430701,3.2645724,-19.202734,-2.2312045
1.3162303,0.25543058,-0.42901796,3.1610353,-18.593712,-2.160441
1.2745334,0.2473388,-0.4154271,3.0608969,-18.004683,-2.0920005
1.234201,0.23951179,-0.40228096,2.964035,-17.434925,-2.0257993
1.1951844,0.23194014,-0.38956368,2.8703334,-16.883757,-1.9617579
1.157437,0.2246148,-0.37726015,2.77968,-16.35052,-1.8998
1.1209143,0.21752714,-0.36535582,2.691968,-15.834583,-1.8398523
1.0855738,0.21066886,-0.35383675,2.6070945,-15.335345,-1.7818449
1.0513743,0.20403205,-0.34268963,2.5249617,-14.852227,-1.7257103
1.0182767,0.19760904,-0.33190164,2.445475,-14.384674,-1.6713843
0.9862432,0.19139254,-0.3214605,2.368544,-13.932153,-1.6188049
0.9552375,0.18537553,-0.31135437,2.2940814,-13.494151,-1.5679128
0.92522496,0.17955121,-0.30157194,2.2220037,-13.070179,-1.5186505
0.896172,0.17391314,-0.29210228,2.1522307,-12.659763,-1.4709635
0.86804646,0.16845502,-0.2829349,2.0846848,-12.262447,-1.4247986
0.84081733,0.16317089,-0.27405974,2.0192919,-11.877796,-1.3801051
0.81445485,0.15805492,-0.26546702,1.9559802,-11.505386,-1.3368342
0.78893024,0.15310156,-0.25714743,1.8946809,-11.144814,-1.2949384
0.76421595,0.14830545,-0.24909194,1.8353273,-10.795687,-1.2543727
0.74028516,0.1436614,-0.24129184,1.7778556,-10.45763,-1.2150931
0.7171123,0.13916442,-0.23373878,1.7222042,-10.130279,-1.1770576
0.6946726,0.1348097,-0.22642466,1.6683133,-9.813284,-1.1402253
0.6729421,0.13059264,-0.21934173,1.6161257,-9.506309,-1.1045572
0.6518977,0.12650873,-0.21248245,1.565586,-9.209025,-1.0700153
0.63151735,0.12255366,-0.20583956,1.5166408,-8.921122,-1.0365633
0.61177933,0.118723266,-0.19940609,1.4692384,-8.642294,-1.0041656
0.5926631,0.115013525,-0.19317526,1.4233291,-8.372249,-0.9727885
0.5741486,0.11142055,-0.18714054,1.378865,-8.1107025,-0.94239897
0.55621636,0.10794059,-0.18129563,1.3357993,-7.857384,-0.91296536
0.53884786,0.10457002,-0.17563447,1.2940875,-7.612028,-0.884457
0.52202505,0.10130534,-0.17015116,1.253686,-7.3743806,-0.8568442
0.5057304,0.09814316,-0.16484001,1.214553,-7.144194,-0.8300984
0.48994705,0.09508022,-0.15969552,1.1766481,-6.9212313,-0.8041919
0.4746588,0.092113346,-0.1547124,1.1399322,-6.7052617,-0.779098
0.45984983,0.089239486,-0.1498855,1.1043671,-6.496063,-0.7547907
0.44550496,0.08645568,-0.14520986,1.0699167,-6.2934203,-0.7312453
0.4316094,0.083759084,-0.14068069,1.0365454,-6.097125,-0.7084373
0.41814896,0.08114692,-0.13629334,1.004219,-5.906976,-0.68634355
0.40510982,0.078616515,-0.1320433,0.97290456,-5.7227793,-0.6649413
0.3924787,0.076165296,-0.12792626,0.94256985,-5.544346,-0.6442088
0.38024268,0.073790744,-0.123937994,0.91318405,-5.371494,-0.6241247
0.36838928,0.071490444,-0.12007444,0.88471717,-5.2040467,-0.60466874
0.35690644,0.069262065,-0.116331674,0.8571402,-5.041835,-0.585821
0.3457825,0.06710332,-0.11270589,0.8304251,-4.884692,-0.5675623
0.33500612,0.06501203,-0.109193385,0.80454475,-4.73246,-0.5498741
0.32456636,0.062986076,-0.10579061,0.7794728,-4.584983,-0.53273845
0.31445268,0.061023388,-0.102494106,0.755184,-4.442112,-0.516138
0.3046548,0.05912199,-0.09930054,0.7316535,-4.3037024,-0.5000559
0.2951628,0.05727995,-0.09620667,0.7088577,-4.169614,-0.48447585
0.28596708,0.055495407,-0.09320938,0.6867734,-4.0397105,-0.46938214
0.27705833,0.053766556,-0.09030562,0.66537833,-3.913861,-0.45475945
0.26842755,0.05209165,-0.08749247,0.6446508,-3.7919388,-0.44059303
0.26006606,0.050469,-0.08476709,0.62457,-3.6738203,-0.4268686
0.2519654,0.048896965,-0.08212672,0.6051156,-3.5593863,-0.41357228
0.2441174,0.047373965,-0.07956871,0.58626795,-3.4485214,-0.40069067
0.23651414,0.04589846,-0.077090465,0.5680081,-3.341114,-0.3882108
0.22914797,0.044468965,-0.07468951,0.55031765,-3.237056,-0.3761201
0.22201146,0.04308404,-0.07236341,0.53317875,-3.1362424,-0.36440635
0.21509746,0.04174229,-0.07010982,0.5165742,-3.0385716,-0.35305777
0.20839897,0.04044237,-0.06792649,0.50048727,-2.9439456,-0.34206298
0.20190927,0.039182965,-0.06581121,0.48490173,-2.852269,-0.3314109
0.19562185,0.037962813,-0.06376185,0.46980196,-2.76345,-0.32109082
0.18953037,0.036780685,-0.061776374,0.45517278,-2.6773987,-0.31109238
0.18362872,0.0356354,-0.059852764,0.44099948,-2.594029,-0.3014055
0.17791097,0.0345258,-0.05798909,0.42726782,-2.5132573,-0.29202044
0.17237137,0.03345077,-0.05618349,0.413964,-2.435002,-0.2829278
0.16700436,0.03240924,-0.054434143,0.4010747,-2.3591852,-0.2741185
0.16180457,0.031400155,-0.0527393,0.38858697,-2.2857304,-0.26558363
0.15676676,0.030422505,-0.05109725,0.37648824,-2.2145636,-0.25731465
0.15188588,0.029475313,-0.04950636,0.36476642,-2.1456141,-0.24930324
0.14715704,0.028557623,-0.04796502,0.3534097,-2.0788121,-0.2415414
0.1425755,0.027668519,-0.046471693,0.34240678,-2.014091,-0.23402132
0.13813666,0.026807107,-0.045024876,0.33174652,-1.9513859,-0.22673547
0.13383606,0.025972525,-0.043623123,0.32141832,-1.8906336,-0.21967654
0.12966941,0.025163935,-0.042265024,0.31141174,-1.8317734,-0.21283746
0.12563252,0.024380527,-0.040949225,0.30171683,-1.7747464,-0.20621137
0.12172136,0.023621518,-0.0396744,0.29232386,-1.7194953,-0.19979164
0.11793199,0.022886144,-0.038439278,0.28322336,-1.6659648,-0.19357184
0.11426063,0.022173671,-0.037242617,0.27440628,-1.6141014,-0.1875457
0.11070359,0.021483384,-0.036083218,0.26586375,-1.5638529,-0.18170723
0.10725731,0.020814592,-0.034959923,0.25758722,-1.5151691,-0.17605056
0.103918344,0.020166624,-0.033871606,0.24956843,-1.4680012,-0.17057003
0.10068334,0.019538835,-0.032817177,0.24179932,-1.422302,-0.16526015
0.09754907,0.01893059,-0.031795576,0.23427211,-1.3780258,-0.1601156
0.09451239,0.018341284,-0.030805789,0.22697927,-1.3351282,-0.15513124
0.09157026,0.017770328,-0.029846815,0.2199135,-1.2935661,-0.15030207
0.088719726,0.017217148,-0.028917702,0.21306771,-1.2532982,-0.14562325
0.085957944,0.01668119,-0.028017515,0.20643507,-1.214284,-0.14109011
0.08328215,0.01616192,-0.027145354,0.20000893,-1.1764843,-0.1366981
0.08068966,0.015658816,-0.026300348,0.19378287,-1.1398616,-0.13244283
0.07817789,0.015171376,-0.025481649,0.18775062,-1.104379,-0.12832004
0.075744316,0.014699111,-0.02468844,0.1819062,-1.0700011,-0.1243256
0.073386505,0.014241548,-0.023919923,0.17624371,-1.0366936,-0.12045552
0.07110209,0.01379823,-0.023175333,0.17075752,-1.0044229,-0.116705924
0.0688888,0.013368715,-0.022453923,0.16544212,-0.97315687,-0.113073066
0.06674441,0.01295257,-0.02175497,0.1602922,-0.9428642,-0.10955329
0.064666785,0.01254938,-0.021077778,0.15530258,-0.91351455,-0.1061431
0.06265383,0.012158742,-0.020421667,0.15046832,-0.8850786,-0.102839075
0.060703542,0.011780265,-0.019785982,0.14578454,-0.85752785,-0.099637896
0.058813967,0.01141357,-0.019170085,0.14124657,-0.8308348,-0.096536376
0.056983214,0.01105829,-0.018573362,0.13684988,-0.8049727,-0.09353141
0.055209454,0.01071407,-0.017995216,0.13259004,-0.7799157,-0.09061998
0.05349091,0.010380565,-0.017435065,0.12846282,-0.7556387,-0.08779919
0.051825862,0.010057443,-0.016892353,0.12446407,-0.7321175,-0.08506621
0.05021265,0.009744379,-0.016366534,0.12058981,-0.7093284,-0.0824183
0.048649654,0.00944106,-0.015857084,0.11683614,-0.68724877,-0.07985283
0.047135312,0.009147184,-0.015363493,0.11319932,-0.6658564,-0.07736721
0.04566811,0.008862455,-0.014885267,0.10967572,-0.64513004,-0.074958965
