ax,ay,az,gx,gy,gz
-2.483659,-1.3836489,-6.838244,-33.014847,-41.614925,7.6018877
-2.7482607,-1.9327061,-7.13449,-5.710027,-47.61082,13.9256115
-2.9333506,-1.768956,-7.5040336,10.336785,-53.803062,17.650547
-2.7552896,-1.6311401,-7.5728164,19.147219,-62.133118,18.484472
-2.4278986,-1.5727093,-7.594951,20.981153,-69.21428,18.305618
-2.1290407,-1.6829737,-7.6778693,21.912836,-77.284676,18.952911
-1.8941058,-1.8512529,-7.71514,22.731543,-85.42774,19.044127
-1.7329892,-2.072644,-7.721029,25.987974,-92.87799,19.028654
-1.6069616,-2.230754,-7.733617,31.911215,-101.85526,18.927286
-1.400372,-2.2774358,-7.572191,36.643894,-110.16339,19.106956
-1.1189258,-2.353321,-7.2474823,40.712296,-116.597015,20.712135
-0.84444827,-2.4297113,-6.8119364,43.70411,-121.12273,23.486687
-0.6110479,-2.5252929,-6.3329473,47.43232,-124.0562,26.540812
-0.37726697,-2.5494444,-5.801134,52.577423,-125.48332,29.868135
-0.08301541,-2.3692114,-5.117716,56.493473,-126.24306,33.223595
0.3179096,-2.17392,-4.2849126,59.484016,-125.50656,36.713326
0.81855696,-1.9979947,-3.3689616,62.594048,-122.58711,40.25054
1.3625565,-1.8068432,-2.4342556,65.20981,-117.35358,43.581196
1.9029216,-1.5826548,-1.5452336,67.02704,-108.81098,46.19024
2.4171638,-1.3032405,-0.7305176,67.28862,-97.984146,48.291805
2.8570826,-0.9627097,-0.097546704,66.23431,-86.12018,49.56689
3.1873345,-0.6167445,0.366418,63.554096,-74.52441,50.067005
3.4406638,-0.30619112,0.7196648,60.96537,-62.84816,49.80547
3.6428533,-0.007650042,0.9858984,57.81544,-50.384438,48.85346
3.777902,0.2738835,1.1099046,53.70802,-37.828667,47.805325
3.8166726,0.5165464,1.0736812,49.680172,-25.95092,46.689213
3.7456346,0.7132904,0.93312085,46.61323,-15.317497,45.304214
3.6086287,0.9192063,0.73352313,44.631992,-5.7942424,43.21676
3.434882,1.154111,0.49320403,42.631115,1.9883187,39.93108
3.2297323,1.3873268,0.2167156,40.33216,8.671385,36.061413
2.9895368,1.58333,-0.11728392,37.36254,13.805079,32.070488
2.7319937,1.7239381,-0.5077656,34.568275,17.05052,28.085909
2.480384,1.8410811,-0.8972561,32.146694,18.4102,23.676516
2.2576165,1.9491638,-1.2595683,29.60529,18.274012,18.7536
2.06998,1.9987111,-1.6096452,26.827166,17.21117,14.123764
1.922682,1.998569,-1.9367805,24.122955,15.429483,9.991216
1.7920557,1.9689325,-2.2493906,21.735458,13.142234,6.3191104
1.650864,1.9076831,-2.5682297,19.534073,10.119206,2.9534657
1.5099282,1.8048162,-2.8846173,17.932579,5.7282677,-0.3178268
1.4015135,1.6565855,-3.1343389,16.908607,0.7316224,-3.2789638
1.3362161,1.506709,-3.317998,16.263254,-4.333245,-5.599892
1.3095561,1.3551643,-3.4536982,15.734614,-9.292229,-7.001665
1.2924321,1.2092917,-3.557366,14.892925,-14.30752,-7.6013236
1.2719952,1.060158,-3.6192527,14.473139,-19.621733,-7.8821707
1.2761955,0.93043905,-3.5957582,14.299809,-24.690123,-8.332626
1.3025291,0.8154711,-3.5175445,13.874998,-29.255455,-8.592395
1.3401678,0.7021044,-3.3835692,13.238075,-33.35438,-8.542299
1.3859496,0.59512585,-3.1949801,12.495148,-36.826305,-8.054642
1.4297285,0.5035441,-2.9679465,11.6654215,-39.65981,-7.2015104
1.4745256,0.4561271,-2.7101042,11.116764,-41.988277,-6.3489637
1.5191965,0.44816318,-2.440856,10.624489,-43.867855,-5.714892
1.5750031,0.45591047,-2.1586733,9.925817,-45.191708,-5.180995
1.6312608,0.4700781,-1.8776296,8.766394,-45.935093,-4.63275
1.6785517,0.4652524,-1.610975,7.4333115,-46.09425,-4.161958
1.7326308,0.4401664,-1.3562905,6.2974205,-45.717747,-3.7794347
1.7847192,0.40983266,-1.1300893,5.5175505,-44.909946,-3.6607473
1.8281673,0.37494895,-0.9379492,5.2457848,-43.85262,-3.6607885
1.8599843,0.33945763,-0.78064114,5.185883,-42.447464,-3.600821
1.8742614,0.2980504,-0.65869755,5.0922236,-40.58019,-3.1860874
1.8697903,0.25622526,-0.56320393,4.584406,-38.323963,-2.487854
1.8511848,0.21665454,-0.48491502,3.9239955,-35.742855,-1.5922247
1.791211,0.20963545,-0.46920496,3.7968678,-34.584877,-1.5406405
1.7333223,0.20286041,-0.45404112,3.67416,-33.467155,-1.4908497
1.6774333,0.19631942,-0.43940106,3.5556908,-32.388042,-1.442779
1.623463,0.19000298,-0.42526364,3.441289,-31.345982,-1.3963586
1.5713351,0.18390214,-0.41160882,3.3307922,-30.33949,-1.3515228
1.5209769,0.17800845,-0.3984176,3.224047,-29.36717,-1.3082092
1.4723197,0.17231382,-0.38567188,3.1209073,-28.427692,-1.2663586
1.425298,0.16681062,-0.37335464,3.0212343,-27.519793,-1.2259147
1.3798497,0.16149154,-0.3614495,2.9248965,-26.642271,-1.1868241
1.3359156,0.15634969,-0.34994105,2.8317685,-25.793987,-1.1490359
1.2934394,0.15137845,-0.33881447,2.7417307,-24.973852,-1.1125016
1.2523671,0.14657155,-0.32805568,2.6546693,-24.180828,-1.0771749
1.2126479,0.14192298,-0.31765124,2.5704753,-23.413923,-1.0430119
1.1742324,0.137427,-0.30758837,2.4890451,-22.672194,-1.0099703
1.137074,0.13307813,-0.29785478,2.4102798,-21.954733,-0.97800994
1.1011277,0.12887116,-0.28843874,2.3340838,-21.260681,-0.94709224
1.0663509,0.12480103,-0.279329,2.2603667,-20.589209,-0.91718036
1.0327026,0.12086297,-0.27051485,2.1890414,-19.939522,-0.88823897
1.0001432,0.117052354,-0.26198596,2.1200247,-19.310862,-0.86023426
0.9686351,0.113364786,-0.25373247,2.0532362,-18.7025,-0.8331338
0.93814206,0.109796025,-0.24574488,1.9885997,-18.113739,-0.80690646
0.9086295,0.106342,-0.2380141,1.9260411,-17.543905,-0.78152233
0.8800639,0.10299881,-0.23053138,1.86549,-16.99236,-0.7569527
0.8524132,0.09976269,-0.22328833,1.8068782,-16.458477,-0.73317003
0.8256466,0.096630044,-0.21627685,1.7501405,-15.941664,-0.7101478
0.7997344,0.0935974,-0.2094892,1.6952139,-15.441349,-0.6878605
0.77464813,0.090661414,-0.20291789,1.642038,-14.956981,-0.6662835
0.75036025,0.08781887,-0.19655572,1.5905545,-14.488029,-0.6453932
0.7268444,0.08506667,-0.19039577,1.5407073,-14.033981,-0.62516695
0.704075,0.082401834,-0.18443136,1.4924426,-13.594348,-0.6055827
0.68202746,0.0798215,-0.17865606,1.445708,-13.168653,-0.58661944
0.6606782,0.07732288,-0.17306365,1.4004537,-12.756439,-0.5682567
0.64000446,0.0749033,-0.16764818,1.3566309,-12.357267,-0.55047494
0.61998403,0.072560206,-0.16240387,1.3141932,-11.970712,-0.53325516
0.60059583,0.070291094,-0.15732515,1.2730956,-11.596362,-0.51657915
0.58181924,0.06809357,-0.15240666,1.2332946,-11.233823,-0.5004292
0.5636346,0.06596532,-0.14764322,1.1947482,-10.882711,-0.4847884
0.5460227,0.0639041,-0.14302982,1.1574159,-10.54266,-0.46964023
0.5289652,0.06190776,-0.13856162,1.1212587,-10.213311,-0.45496887
0.5124442,0.05997422,-0.13423398,1.0862389,-9.894322,-0.44075897
0.49644256,0.058101453,-0.13004237,1.0523198,-9.585361,-0.42699575
0.4809436,0.056287523,-0.12598243,1.0194663,-9.286105,-0.41366494
0.46593127,0.054530546,-0.12204998,0.9876444,-8.996246,-0.40075266
0.45139003,0.052828707,-0.11824093,0.956821,-8.715483,-0.3882456
0.4373049,0.051180243,-0.11455135,0.92696446,-8.443525,-0.37613082
0.42366135,0.049583465,-0.11097745,0.89804393,-8.180095,-0.36439586
0.41044536,0.04803672,-0.107515536,0.87002975,-7.9249187,-0.35302863
0.39764336,0.046538427,-0.10416207,0.842893,-7.6777363,-0.34201747
0.3852422,0.04508705,-0.1009136,0.816606,-7.4382935,-0.3313511
0.3732292,0.043681104,-0.09776682,0.7911418,-7.2063456,-0.32101858
0.36159208,0.04231915,-0.09471849,0.7664744,-6.981655,-0.31100938
0.350319,0.040999796,-0.09176552,0.74257857,-6.7639933,-0.30131325
0.3393984,0.039721698,-0.088904895,0.71943,-6.553138,-0.29192036
0.32881925,0.038483556,-0.086133696,0.6970051,-6.3488736,-0.2828211
0.3185707,0.037284113,-0.0834491,0.67528105,-6.150994,-0.2740062
0.3086424,0.036122147,-0.080848396,0.6542358,-5.959297,-0.26546675
0.2990242,0.03499648,-0.07832893,0.63384795,-5.773588,-0.25719404
0.28970644,0.033905968,-0.07588816,0.6140968,-5.59368,-0.24917972
0.28067958,0.032849506,-0.07352359,0.5949625,-5.419389,-0.24141565
0.27193457,0.031826027,-0.07123285,0.5764255,-5.2505393,-0.23389396
0.2634625,0.030834494,-0.0690136,0.5584671,-5.08696,-0.22660704
0.25525486,0.029873906,-0.06686362,0.54106915,-4.9284854,-0.21954754
0.2473033,0.028943291,-0.06478072,0.524214,-4.774956,-0.21270832
0.23959982,0.028041711,-0.06276281,0.5078848,-4.626217,-0.20608248
0.23213665,0.027168253,-0.060807843,0.49206498,-4.482117,-0.19966333
0.22490625,0.026322039,-0.05891385,0.47673854,-4.3425117,-0.19344437
0.21790135,0.025502216,-0.057078924,0.4618901,-4.20726,-0.18741937
0.21111487,0.024707956,-0.055301215,0.44750464,-4.076226,-0.18158224
0.20453998,0.02393846,-0.053578936,0.43356773,-3.9492779,-0.17592712
0.19817008,0.023192955,-0.05191035,0.4200653,-3.826287,-0.17044829
0.19199874,0.022470688,-0.050293777,0.4069838,-3.7071304,-0.16514026
0.18601976,0.021770936,-0.048727594,0.39431003,-3.5916877,-0.15999767
0.18022713,0.021092992,-0.047210224,0.3820313,-3.4798431,-0.15501536
0.17461504,0.020436177,-0.045740142,0.3701352,-3.371484,-0.15018834
0.16917783,0.019799829,-0.04431587,0.35860983,-3.266502,-0.14551173
0.16391003,0.01918331,-0.042935982,0.34744358,-3.1647909,-0.14098084
0.15880638,0.018586,-0.041599087,0.33662525,-3.0662491,-0.13659114
0.15386175,0.0180073,-0.04030385,0.32614398,-2.9707773,-0.1323382
0.14907114,0.017446632,-0.03904896,0.31598926,-2.8782802,-0.12821776
0.14442979,0.016903428,-0.03783316,0.30615088,-2.7886643,-0.12422567
0.13993302,0.016377145,-0.03665524,0.296619,-2.7018404,-0.12035795
0.13557632,0.015867257,-0.035514012,0.287384,-2.6177208,-0.116610706
0.13135533,0.0153732505,-0.034408327,0.2784367,-2.5362215,-0.11298019
0.12726581,0.014894631,-0.033337086,0.26976803,-2.4572606,-0.10946274
0.12330366,0.014430919,-0.032299206,0.26136938,-2.380759,-0.10605485
0.11946491,0.013981648,-0.03129365,0.2532323,-2.3066401,-0.1027531
0.115745716,0.013546369,-0.030319413,0.24534863,-2.2348294,-0.09955417
0.11214234,0.013124647,-0.029375514,0.23771049,-2.165255,-0.09645487
0.10865118,0.012716057,-0.028461011,0.2303102,-2.0978475,-0.09345209
0.10526874,0.012320191,-0.027574984,0.22314037,-2.032539,-0.090542816
0.10199162,0.011936652,-0.026716549,0.21619381,-1.9692641,-0.087724134
0.09881656,0.011565056,-0.025884846,0.20946354,-1.9079597,-0.08499322
0.095740356,0.01120503,-0.02507904,0.20294285,-1.848564,-0.08234734
0.09275994,0.010856215,-0.024298323,0.1966252,-1.7910179,-0.07978386
0.08987232,0.010518261,-0.023541916,0.19050425,-1.7352635,-0.07730018
0.087074615,0.01019083,-0.022809062,0.1845739,-1.6812451,-0.07489385
0.08436401,0.009873593,-0.022099026,0.1788282,-1.6289086,-0.07256243
0.08173781,0.009566234,-0.021411095,0.17326137,-1.5782017,-0.070303604
0.079193376,0.009268444,-0.020744583,0.16786787,-1.5290734,-0.0681151
0.07672816,0.008979926,-0.020098822,0.1626423,-1.4814746,-0.06599474
0.07433969,0.00870039,-0.019473167,0.1575794,-1.4353579,-0.06394039
0.07202558,0.008429557,-0.01886699,0.15267414,-1.3906769,-0.061950002
0.069783516,0.008167156,-0.018279687,0.14792159,-1.347387,-0.06002158
0.067611255,0.0079129245,-0.017710665,0.14331701,-1.3054447,-0.058153193
0.06550662,0.007666607,-0.01715936,0.13885577,-1.2648082,-0.056342974
0.06346751,0.0074279583,-0.016625216,0.13453342,-1.2254368,-0.05458911
0.061491877,0.007196739,-0.016107703,0.13034563,-1.1872911,-0.052889846
0.059577744,0.0069727176,-0.015606299,0.1262882,-1.1503329,-0.051243484
0.057723206,0.00675567,-0.015120505,0.1223571,-1.1145252,-0.04964837
0.055926397,0.0065453798,-0.0146498345,0.11854837,-1.0798323,-0.04810292
0.054185525,0.0063416357,-0.014193815,0.1148582,-1.0462193,-0.046605572
0.052498847,0.0061442344,-0.013751993,0.111282915,-1.0136528,-0.045154843
0.050864674,0.005952978,-0.013323924,0.10781893,-0.98210007,-0.043749273
0.049281374,0.0057676756,-0.0129091805,0.10446277,-0.95152956,-0.04238746
0.047747362,0.0055881413,-0.012507348,0.10121109,-0.92191064,-0.041068036
0.046261102,0.005414196,-0.012118025,0.09806063,-0.8932138,-0.039789688
0.044821106,0.005245665,-0.0117408205,0.09500825,-0.86541027,-0.038551133
0.043425936,0.005082381,-0.011375358,0.09205088,-0.8384722,-0.03735113
0.0420742,0.004924179,-0.011021272,0.08918557,-0.81237274,-0.036188487
