ax,ay,az,gx,gy,gz
-0.8872808,0.74364316,-0.35636687,-5.326412,0.7209156,14.426496
-0.85665315,0.5718086,-0.44862667,-3.1663911,0.8138669,12.612826
-0.8351131,0.42579946,-0.46910676,1.4466056,2.6614494,11.219391
-0.9398631,0.43172392,-0.5826714,3.438457,-0.21637417,8.651998
-1.0490013,0.41915068,-0.61588395,2.7600224,-2.8472033,5.88515
-0.98942477,0.38470384,-0.552686,0.99010426,-4.022479,4.2547183
-0.8236578,0.3830334,-0.4075772,-1.8343403,-3.091258,3.4993033
-0.6793109,0.36078638,-0.2902586,-4.457066,-0.70093876,3.2359955
-0.5905725,0.33045557,-0.24638367,-6.6938715,1.8481846,2.8447561
-0.59041226,0.31339678,-0.29687238,-7.124899,2.841302,2.5860298
-0.62236726,0.308696,-0.36870626,-7.023891,2.5250704,2.578192
-0.6503354,0.3208698,-0.43791255,-6.8394465,1.7290953,2.813546
-0.68301636,0.34653348,-0.5071834,-6.736397,1.0033412,3.1066706
-0.7463017,0.3729942,-0.5916267,-6.753033,0.17195709,3.0109022
-0.80587626,0.39498076,-0.67330587,-6.603582,-0.6125425,2.6297922
-0.8460907,0.4181959,-0.75249344,-6.7946725,-1.4617186,2.306886
-0.89606005,0.43814808,-0.842748,-7.425995,-2.5679293,2.3309908
-0.98687017,0.44754198,-0.94898564,-7.586451,-4.1931176,2.1858833
-1.0623846,0.4518667,-1.0428474,-6.8161383,-6.2644987,1.3924284
-1.086965,0.45789903,-1.089047,-5.880873,-8.172473,0.52821916
-1.0789603,0.4687589,-1.0976421,-5.3648105,-9.747095,-0.021661656
-1.0428438,0.489633,-1.0831301,-5.5171824,-10.786951,0.007952515
-1.0173814,0.51456904,-1.0868914,-6.2764072,-11.526746,0.406185
-1.0379798,0.52799356,-1.13164,-7.026543,-12.482109,0.54406106
-1.0906234,0.5179486,-1.2011205,-7.3616576,-13.92089,0.11050326
-1.1178232,0.5008754,-1.2572336,-7.497955,-15.807929,-0.5593435
-1.1040978,0.48305032,-1.28532,-7.707243,-17.723476,-1.012346
-1.0673081,0.46073914,-1.2921262,-8.004597,-19.3231,-1.0778936
-1.0530837,0.43697912,-1.300346,-7.972661,-20.827618,-1.2391294
-1.0308385,0.42642894,-1.3036233,-7.847413,-22.351967,-1.8411249
-0.98715246,0.41390386,-1.3037218,-7.8206835,-23.825096,-2.4170356
-0.95284534,0.3974694,-1.3129694,-8.028943,-25.391296,-2.693679
-0.94860935,0.3668348,-1.3247768,-8.166857,-27.044939,-2.9644718
-0.93309945,0.32562444,-1.3232882,-7.6911345,-28.802765,-3.5980346
-0.873639,0.290299,-1.2908497,-7.1649127,-30.305773,-4.1101527
-0.8216673,0.2551581,-1.2500179,-6.787533,-31.574198,-4.256679
-0.79584724,0.22829825,-1.2014911,-6.200699,-32.90085,-4.485819
-0.74517715,0.21494547,-1.1285236,-5.4215517,-34.216854,-5.0594783
-0.66176647,0.20929359,-1.0378572,-4.894167,-35.46951,-5.5942526
-0.5511271,0.20200628,-0.9326994,-5.2084436,-36.51593,-5.64858
-0.44558302,0.17995681,-0.8362222,-6.224213,-37.237946,-5.05294
-0.37622336,0.15118977,-0.77498233,-7.18103,-37.750042,-4.40095
-0.33578378,0.121988334,-0.74724627,-7.5247154,-38.32195,-4.205372
-0.29660597,0.0955712,-0.72544044,-7.304532,-39.071377,-4.3175187
-0.2337931,0.07430564,-0.67526865,-7.3735704,-39.7269,-4.179212
-0.17097245,0.052437328,-0.61323076,-7.5945597,-40.1471,-3.87278
-0.11419465,0.033783615,-0.5557192,-7.404047,-40.373,-3.84445
-0.05711637,0.01784254,-0.49876013,-6.7565365,-40.505974,-4.0977583
0.010735416,0.012836035,-0.42856798,-6.3534546,-40.648216,-4.193197
0.08289321,0.019046122,-0.34768644,-6.2580657,-40.724834,-4.1131077
0.14141366,0.024204843,-0.2705964,-6.3928375,-40.650234,-3.9249732
0.18902394,0.02483564,-0.20513093,-6.399522,-40.445366,-3.9079583
0.23579317,0.022101743,-0.14312287,-6.2224464,-40.099422,-3.9629478
0.27937418,0.019603658,-0.08441012,-6.271261,-39.671085,-3.920473
0.31845242,0.016270895,-0.033744358,-6.556879,-39.18788,-3.7703893
0.34757772,0.013687847,0.008752994,-6.9004607,-38.500927,-3.4948807
0.35660163,0.011823762,0.032075386,-7.129149,-37.786835,-3.321754
0.3566802,0.010977444,0.046853475,-6.985533,-37.14053,-3.3528965
0.36034966,0.009540722,0.066884674,-6.8011947,-36.67889,-3.510563
0.38307407,0.0058098095,0.106627256,-6.806302,-36.16408,-3.5313911
0.40746588,-0.0010702568,0.14620279,-6.920273,-35.532623,-3.4246092
0.42481586,-0.014221382,0.17697388,-6.9926724,-34.778908,-3.283984
0.4369088,-0.025202412,0.20202132,-7.0112658,-33.929104,-3.1877086
0.44042635,-0.03286993,0.2206576,-7.0233164,-33.132256,-3.1183937
0.43610126,-0.043523803,0.23263745,-6.999626,-32.425602,-3.0867858
0.42993307,-0.05320393,0.24298821,-6.943415,-31.850864,-3.1346674
0.42442295,-0.061914455,0.25391698,-6.849982,-31.467766,-3.2317836
0.42738456,-0.069275066,0.2730501,-6.8319716,-31.023422,-3.2904615
0.4368257,-0.079454236,0.29735267,-6.6547213,-30.547226,-3.2224207
0.447609,-0.096148476,0.31947094,-6.3140826,-30.053896,-3.0554476
0.4572689,-0.111840755,0.3434313,-5.8506837,-29.580889,-2.7813246
0.44272977,-0.10828471,0.33251166,-5.664658,-28.640347,-2.692891
0.42867124,-0.10484622,0.32195303,-5.4847813,-27.730894,-2.6073802
0.41507575,-0.10152098,0.31174216,-5.310829,-26.851398,-2.524686
0.40192655,-0.09830489,0.30186647,-5.142587,-26.000772,-2.4447064
0.38920763,-0.09519404,0.29231393,-4.979851,-25.17798,-2.3673441
0.37690365,-0.092184685,0.28307307,-4.8224235,-24.382032,-2.2925055
0.36499995,-0.08927323,0.2741328,-4.6701174,-23.611977,-2.2201016
0.35348248,-0.08645624,0.2654826,-4.522753,-22.866907,-2.1500468
0.34233776,-0.083730415,0.25711238,-4.380158,-22.145952,-2.0822594
0.3315529,-0.0810926,0.24901243,-4.2421675,-21.448275,-2.016661
0.3211155,-0.07853978,0.24117343,-4.1086226,-20.773075,-1.9531757
0.31101367,-0.076069035,0.23358646,-3.979371,-20.119585,-1.8917315
0.30123597,-0.07367756,0.22624293,-3.8542671,-19.487062,-1.832259
0.29177147,-0.0713627,0.21913461,-3.73317,-18.8748,-1.7746913
0.28260955,-0.06912184,0.21225357,-3.6159449,-18.282112,-1.7189643
0.2737401,-0.06695251,0.20559219,-3.5024617,-17.708345,-1.6650162
0.26515335,-0.06485233,0.19914311,-3.3925955,-17.152864,-1.6127875
0.2568399,-0.06281898,0.1928993,-3.286226,-16.615065,-1.562221
0.24879067,-0.06085027,0.18685395,-3.1832376,-16.094357,-1.5132619
0.24099696,-0.05894405,0.18100049,-3.0835183,-15.5901785,-1.4658569
0.23345034,-0.05709827,0.1753326,-2.9869604,-15.101986,-1.4199549
0.22614273,-0.055310946,0.16984424,-2.893461,-14.629254,-1.3755066
0.21906632,-0.053580165,0.16452952,-2.8029194,-14.171478,-1.3324645
0.21221358,-0.05190409,0.15938276,-2.7152393,-13.728171,-1.2907828
0.2055772,-0.050280936,0.15439852,-2.630328,-13.298862,-1.2504172
0.19915019,-0.048708994,0.14957152,-2.5480955,-12.883097,-1.2113252
0.1929258,-0.047186602,0.14489669,-2.4684553,-12.480438,-1.1734655
0.18689744,-0.045712166,0.14036912,-2.3913236,-12.090462,-1.1367983
0.18105885,-0.044284135,0.13598403,-2.3166196,-11.712761,-1.1012851
0.1754039,-0.042901024,0.13173689,-2.2442653,-11.346941,-1.066889
0.16992672,-0.04156139,0.12762326,-2.1741855,-10.9926195,-1.0335742
0.16462159,-0.040263843,0.12363885,-2.1063075,-10.649429,-1.001306
0.15948305,-0.039007034,0.11977955,-2.0405605,-10.317015,-0.97005093
0.15450574,-0.037789665,0.11604136,-1.9768767,-9.995031,-0.93977666
0.14968456,-0.03661048,0.11242042,-1.9151905,-9.683147,-0.91045195
0.14501452,-0.035468265,0.10891299,-1.8554381,-9.381042,-0.8820466
0.14049084,-0.034361843,0.10551548,-1.7975582,-9.088402,-0.8545314
0.13610885,-0.033290077,0.102224395,-1.7414914,-8.80493,-0.8278781
0.13186407,-0.032251872,0.09903636,-1.6871802,-8.5303335,-0.80205935
0.12775216,-0.031246163,0.095948115,-1.6345688,-8.264333,-0.77704877
0.12376891,-0.030271921,0.0929565,-1.5836039,-8.006655,-0.7528208
0.119910255,-0.029328156,0.09005846,-1.534233,-7.757037,-0.7293506
0.11617227,-0.028413903,0.087251045,-1.486406,-7.5152254,-0.70661443
0.11255113,-0.02752823,0.0845314,-1.4400741,-7.280973,-0.68458897
0.10904317,-0.026670238,0.081896745,-1.3951902,-7.0540414,-0.6632519
0.10564482,-0.025839055,0.07934442,-1.3517089,-6.834201,-0.6425815
0.10235263,-0.025033837,0.07687182,-1.3095858,-6.6212277,-0.62255687
0.09916326,-0.024253767,0.07447645,-1.2687783,-6.4149065,-0.6031576
0.09607347,-0.023498055,0.07215587,-1.2292451,-6.2150273,-0.58436406
0.09308015,-0.022765936,0.06990774,-1.190946,-6.021388,-0.5661573
0.09018026,-0.022056669,0.06772978,-1.1538423,-5.833793,-0.5485188
0.08737087,-0.021369535,0.06561979,-1.1178966,-5.652053,-0.5314308
0.084649146,-0.020703845,0.06357564,-1.0830725,-5.475983,-0.51487595
0.08201233,-0.02005892,0.061595265,-1.0493349,-5.3054066,-0.4988376
0.07945777,-0.019434117,0.059676666,-1.0166497,-5.1401515,-0.48329955
0.076982886,-0.018828798,0.057817906,-0.9849839,-4.98005,-0.46824613
0.074585184,-0.01824236,0.056017116,-0.9543057,-4.824942,-0.4536622
0.07226225,-0.017674206,0.054272477,-0.92458415,-4.6746707,-0.439533
0.07001174,-0.017123766,0.052582238,-0.8957892,-4.529084,-0.42584434
0.06783139,-0.016590487,0.05094469,-0.867892,-4.3880367,-0.41258246
0.065719016,-0.016073834,0.04935819,-0.8408645,-4.251386,-0.39973396
0.063672476,-0.015573283,0.04782114,-0.8146793,-4.118995,-0.38728598
0.061689727,-0.015088333,0.046331998,-0.78931034,-3.9907303,-0.37522593
0.059768766,-0.014618496,0.044889264,-0.764732,-3.8664627,-0.36354175
0.05790767,-0.014163301,0.043491486,-0.74091953,-3.7460678,-0.3522217
0.056104563,-0.013722291,0.04213727,-0.7178491,-3.629424,-0.34125435
0.05435764,-0.013295021,0.040825244,-0.6954975,-3.516415,-0.33062875
0.052665144,-0.012881063,0.039554097,-0.67384225,-3.4069269,-0.3203342
0.05102538,-0.012480002,0.038322553,-0.6528617,-3.30085,-0.31036037
0.049436696,-0.0120914355,0.037129372,-0.63253474,-3.1980774,-0.30069724
0.047897503,-0.011714973,0.035973363,-0.612841,-3.0985065,-0.29133517
0.046406254,-0.011350237,0.03485336,-0.5937607,-3.002037,-0.28226468
0.044961456,-0.010996862,0.033768248,-0.57527477,-2.9085724,-0.27347672
0.04356166,-0.010654494,0.032716934,-0.5573646,-2.8180192,-0.2649625
0.04220546,-0.010322789,0.03169836,-0.54001224,-2.7302861,-0.25671345
0.0408915,-0.010001414,0.030711511,-0.5232003,-2.6452856,-0.24872133
0.03961846,-0.009690049,0.029755397,-0.50691193,-2.562932,-0.2409781
0.038385063,-0.009388381,0.028829057,-0.49113086,-2.4831433,-0.23347603
0.03719008,-0.0090961065,0.027931565,-0.47584122,-2.4058394,-0.22620757
0.036032308,-0.008812933,0.027062023,-0.4610277,-2.3309426,-0.21916544
0.034910586,-0.008538579,0.026219556,-0.44667548,-2.2583783,-0.21234262
0.033823796,-0.008272767,0.025403325,-0.4327702,-2.1880734,-0.20573226
0.032770846,-0.008015232,0.024612507,-0.41929784,-2.1199577,-0.19932772
0.031750686,-0.0077657164,0.023846315,-0.40624502,-2.0539632,-0.19312261
0.030762287,-0.0075239697,0.023103978,-0.39359862,-1.9900233,-0.1871107
0.029804662,-0.00728975,0.022384757,-0.381346,-1.9280742,-0.18128599
0.028876856,-0.007062823,0.021687929,-0.36947483,-1.868054,-0.17564262
0.027977936,-0.0068429615,0.021012796,-0.35797328,-1.8099025,-0.17017497
0.027107002,-0.006629945,0.020358684,-0.34682983,-1.7535616,-0.16487755
0.026263187,-0.006423561,0.019724935,-0.33603334,-1.6989748,-0.15974505
0.02544564,-0.0062236018,0.019110918,-0.32557297,-1.6460875,-0.15477236
0.024653547,-0.0060298685,0.018516019,-0.31543827,-1.5948467,-0.14995448
0.023886114,-0.0058421665,0.017939638,-0.3056191,-1.5452012,-0.14528659
0.023142574,-0.005660308,0.017381202,-0.2961056,-1.4971013,-0.14076403
0.022422181,-0.0054841116,0.016840152,-0.2868883,-1.4504988,-0.13638225
0.021724215,-0.0053134,0.016315946,-0.27795792,-1.4053472,-0.1321369
0.021047978,-0.0051480033,0.015808059,-0.2693056,-1.3616012,-0.12802371
0.020392794,-0.0049877553,0.015315983,-0.26092258,-1.3192171,-0.12403857
0.019758005,-0.004832496,0.014839226,-0.25280058,-1.2781523,-0.120177485
0.019142978,-0.00468207,0.014377312,-0.2449314,-1.238366,-0.1164366
0.018547097,-0.004536327,0.013929776,-0.23730719,-1.1998183,-0.11281218
0.017969767,-0.0043951212,0.013496172,-0.22992033,-1.1624706,-0.109300576
0.017410407,-0.004258311,0.013076066,-0.22276343,-1.1262854,-0.10589829
0.01686846,-0.0041257595,0.012669038,-0.21582931,-1.0912267,-0.102601916
0.016343385,-0.0039973343,0.012274681,-0.20911105,-1.0572594,-0.099408165
0.015834656,-0.0038729068,0.011892599,-0.20260192,-1.0243495,-0.09631383
0.0153417615,-0.0037523527,0.011522412,-0.19629543,-0.992464,-0.09331581
0.014864211,-0.0036355513,0.011163748,-0.19018525,-0.9615711,-0.09041113
0.014401526,-0.0035223858,0.010816249,-0.18426526,-0.93163985,-0.087596856
