ax,ay,az,gx,gy,gz
-1.2263747,-0.1127283,-0.50455004,-17.81107,-13.650125,9.321902
-0.9203044,-0.13429877,-0.5057174,-25.144815,-13.282232,7.2650414
-0.78221416,-0.1836466,-0.44893152,-29.464958,-8.634708,6.7515173
-0.7782448,-0.24175252,-0.51112944,-27.317026,-4.862294,7.1905756
-0.9796478,-0.13643897,-0.6981517,-23.926285,-4.4208584,7.012293
-1.2127159,0.03657063,-0.89307374,-22.71419,-5.80024,6.7406754
-1.4336983,0.17679009,-1.1064404,-22.268568,-8.683439,6.1269946
-1.6160771,0.25384954,-1.292119,-21.725119,-12.29401,4.6284323
-1.6985885,0.27803788,-1.4126256,-20.27763,-15.667104,2.522996
-1.6493251,0.2901566,-1.4559586,-18.647127,-17.913645,1.0597275
-1.5905313,0.33761913,-1.5098757,-18.131863,-19.510551,0.49972823
-1.604787,0.396753,-1.6049132,-18.178827,-21.231844,0.38310027
-1.6913036,0.43364936,-1.7340683,-18.018108,-23.209242,0.063709244
-1.7909778,0.44816476,-1.8689693,-16.74336,-25.87942,-1.1324071
-1.8034217,0.46823052,-1.9577645,-15.374114,-28.610693,-2.152649
-1.7618494,0.50253415,-2.0191932,-14.802925,-31.130987,-2.380195
-1.7142999,0.54910547,-2.0724623,-15.122936,-33.17202,-1.9727516
-1.7325416,0.579977,-2.1444423,-15.423711,-35.080746,-1.908645
-1.7828094,0.5805011,-2.222479,-14.503066,-37.58794,-3.215807
-1.7583855,0.5772375,-2.2506802,-13.540749,-40.247723,-4.3711514
-1.7047912,0.59044355,-2.2554798,-12.97386,-42.91605,-5.093931
-1.6247808,0.61891055,-2.2469442,-12.867535,-45.389336,-5.573907
-1.5465223,0.6303691,-2.2357442,-12.944723,-47.54595,-6.103361
-1.490056,0.604519,-2.2221582,-12.423853,-49.786037,-7.2576013
-1.4049534,0.53801596,-2.166286,-11.291452,-51.886528,-8.695222
-1.2762889,0.47806618,-2.0773416,-9.885882,-53.683315,-9.984001
-1.1078744,0.45073172,-1.9674149,-8.8223915,-55.157623,-10.628249
-0.9523774,0.4451993,-1.8454676,-8.630262,-56.31863,-10.729927
-0.8307918,0.41840497,-1.727883,-8.61871,-57.45484,-10.948608
-0.6907248,0.36723638,-1.5994183,-8.481643,-58.401913,-11.18463
-0.5410212,0.32862788,-1.4709319,-8.56515,-59.097397,-11.070258
-0.41093734,0.30553162,-1.3592838,-9.048612,-59.526405,-10.627266
-0.32345468,0.27509463,-1.2748288,-9.2214365,-59.93364,-10.4413185
-0.2343437,0.24143966,-1.1874368,-9.007178,-60.275288,-10.506087
-0.12881519,0.21423796,-1.0742543,-9.022395,-60.428055,-10.384879
-0.030750927,0.18752739,-0.9574017,-9.469409,-60.371815,-9.951952
0.053848267,0.15384555,-0.8522403,-9.817661,-60.233013,-9.670177
0.14627367,0.11786255,-0.7454609,-9.863604,-59.898052,-9.577938
0.2432666,0.09262837,-0.63587666,-9.887047,-59.340126,-9.420222
0.3246522,0.07033685,-0.5319613,-9.958495,-58.634365,-9.185133
0.3880971,0.046320308,-0.44010898,-10.035486,-57.7799,-8.943166
0.4383848,0.014096618,-0.3611529,-9.999526,-56.957417,-8.790959
0.4930623,-0.024524886,-0.28159994,-9.837105,-56.162636,-8.68453
0.5654703,-0.053357586,-0.1918508,-9.875476,-55.152645,-8.270577
0.63745075,-0.06507038,-0.10557872,-10.149342,-53.86956,-7.6328754
0.66950923,-0.07511066,-0.04554553,-10.354458,-52.45998,-7.123724
0.67397875,-0.09447029,-0.0059714126,-10.167711,-51.068504,-6.991606
0.6846804,-0.11945729,0.03494493,-9.674552,-49.76496,-7.078359
0.71452385,-0.14051202,0.08874775,-9.1948595,-48.49069,-7.0139084
0.7582768,-0.1459533,0.16100684,-8.866567,-47.078403,-6.80506
0.79789704,-0.14281823,0.23483564,-8.5819235,-45.474117,-6.5920024
0.8306904,-0.14349556,0.29938045,-8.279568,-43.747192,-6.3830466
0.85729283,-0.1527662,0.3531533,-8.029463,-41.961506,-6.1167903
0.87285,-0.17459431,0.39599055,-7.563437,-40.113014,-5.9072423
0.8849797,-0.21303582,0.43027797,-6.7932377,-38.175545,-5.6306844
0.85577416,-0.20600535,0.4160782,-6.5690513,-36.9157,-5.444864
0.82763344,-0.1992312,0.40239617,-6.3530393,-35.701786,-5.265819
0.8005096,-0.19270183,0.3892085,-6.144832,-34.53174,-5.093243
0.7743573,-0.18640636,0.37649325,-5.944083,-33.403603,-4.9268494
0.7491343,-0.18033458,0.3642298,-5.750468,-32.315556,-4.766368
0.7248007,-0.17447689,0.35239878,-5.5636797,-31.265871,-4.6115456
0.701319,-0.16882427,0.34098193,-5.38343,-30.252934,-4.4621425
0.6786536,-0.16336818,0.32996202,-5.2094474,-29.275213,-4.317934
0.6567712,-0.15810056,0.31932276,-5.0414743,-28.331266,-4.178707
0.63564,-0.15301378,0.30904877,-4.8792686,-27.41973,-4.0442605
0.6152302,-0.14810064,0.2991255,-4.7225995,-26.539307,-3.9144027
0.5955133,-0.14335431,0.28953913,-4.57125,-25.688774,-3.788954
0.5764624,-0.1387683,0.28027654,-4.425012,-24.86697,-3.6677425
0.5580518,-0.13433644,0.27132532,-4.2836895,-24.07279,-3.5506053
0.5402573,-0.13005286,0.2626736,-4.147096,-23.305183,-3.4373875
0.5230556,-0.12591201,0.25431013,-4.0150537,-22.563152,-3.327942
0.5064247,-0.12190857,0.24622418,-3.8873925,-21.845743,-3.222128
0.4903436,-0.118037455,0.23840553,-3.7639513,-21.152048,-3.1198118
0.47479215,-0.11429385,0.2308444,-3.644576,-20.481203,-3.0208657
0.45975122,-0.11067313,0.22353147,-3.5291197,-19.832378,-2.9251676
0.44520244,-0.107170895,0.21645784,-3.4174411,-19.204786,-2.832601
0.4311283,-0.103782915,0.20961499,-3.3094058,-18.597666,-2.7430544
0.41751203,-0.10050515,0.20299475,-3.2048852,-18.0103,-2.6564207
0.40433756,-0.09733374,0.19658929,-3.103756,-17.441988,-2.5725982
0.39158946,-0.09426497,0.19039117,-3.0058997,-16.892073,-2.4914885
0.379253,-0.09129528,0.18439317,-2.9112031,-16.359911,-2.4129975
0.36731398,-0.08842128,0.1785884,-2.8195574,-15.844895,-2.3370357
0.35575882,-0.08563967,0.17297027,-2.730858,-15.346437,-2.2635157
0.34457442,-0.082947314,0.1675324,-2.6450052,-14.863975,-2.1923552
0.33374825,-0.0803412,0.16226871,-2.5619018,-14.396964,-2.1234736
0.32326823,-0.07781841,0.1571733,-2.4814556,-13.944885,-2.0567944
0.31312275,-0.075376146,0.15224057,-2.4035773,-13.507237,-1.9922438
0.30330062,-0.073011726,0.14746505,-2.3281813,-13.083539,-1.9297506
0.29379112,-0.07072256,0.14284152,-2.255185,-12.673326,-1.8692462
0.28458387,-0.06850615,0.13836494,-2.1845086,-12.27615,-1.8106651
0.27566886,-0.0663601,0.13403046,-2.1160758,-11.8915825,-1.7539436
0.26703656,-0.0642821,0.12983342,-2.0498128,-11.519208,-1.6990203
0.2586776,-0.062269896,0.12576929,-1.9856483,-11.158627,-1.6458366
0.2505831,-0.06032136,0.12183375,-1.9235138,-10.809453,-1.5943353
0.24274446,-0.05843441,0.11802258,-1.8633431,-10.471315,-1.544462
0.23515333,-0.05660704,0.11433177,-1.8050723,-10.143855,-1.4961632
0.22780168,-0.054837324,0.11075739,-1.7486401,-9.826726,-1.4493884
0.22068177,-0.053123392,0.107295685,-1.6939865,-9.519593,-1.404088
0.21378614,-0.051463448,0.10394302,-1.6410546,-9.222135,-1.3602146
0.20710756,-0.04985575,0.100695886,-1.5897888,-8.934039,-1.3177221
0.20063904,-0.048298623,0.097550884,-1.5401355,-8.655005,-1.276566
0.19437385,-0.046790443,0.094504744,-1.4920429,-8.384743,-1.2367039
0.18830548,-0.04532964,0.09155431,-1.4454613,-8.122971,-1.1980939
0.18242766,-0.04391471,0.0886965,-1.4003422,-7.8694177,-1.1606961
0.17673428,-0.042544175,0.08592837,-1.356639,-7.6238217,-1.124472
0.17121948,-0.041216634,0.08324707,-1.3143066,-7.3859286,-1.0893842
0.16587758,-0.03993071,0.08064984,-1.2733012,-7.1554937,-1.0553963
0.16070308,-0.03868508,0.078133985,-1.2335811,-6.93228,-1.0224735
0.15569066,-0.037478473,0.075696945,-1.195105,-6.7160587,-0.990582
0.15083519,-0.036309645,0.073336214,-1.1578337,-6.506607,-0.9596891
0.1461317,-0.035177402,0.07104937,-1.121729,-6.303712,-0.92976314
0.14157538,-0.034080587,0.06883409,-1.086754,-6.1071653,-0.9007735
0.1371616,-0.033018082,0.0666881,-1.052873,-5.9167666,-0.8726908
0.13288583,-0.0319888,0.06460921,-1.0200516,-5.7323217,-0.84548616
0.12874372,-0.030991698,0.062595315,-0.9882562,-5.553643,-0.81913203
0.12473107,-0.030025758,0.060644366,-0.9574545,-5.380549,-0.7936016
0.120843805,-0.029089998,0.05875437,-0.9276152,-5.212863,-0.76886886
0.11707797,-0.028183471,0.05692342,-0.8987081,-5.0504155,-0.7449087
0.11342975,-0.027305258,0.05514965,-0.8707038,-4.893041,-0.7216969
0.10989544,-0.026454465,0.053431265,-0.843574,-4.740581,-0.69920987
0.10647147,-0.025630234,0.05176653,-0.8172911,-4.5928807,-0.67742485
0.103154376,-0.02483173,0.050153755,-0.7918286,-4.449791,-0.65631986
0.09994081,-0.024058146,0.048591316,-0.7671607,-4.3111663,-0.6358735
0.09682751,-0.023308702,0.047077626,-0.7432625,-4.1768675,-0.61606514
0.09381134,-0.022582637,0.04561116,-0.72011,-4.046758,-0.5968748
0.09088926,-0.021879222,0.04419044,-0.69767964,-3.9207077,-0.578283
0.088058315,-0.021197746,0.042814035,-0.6759489,-3.7985888,-0.56027114
0.08531566,-0.020537524,0.041480552,-0.65489584,-3.6802783,-0.542821
0.08265852,-0.019897887,0.04018865,-0.6344993,-3.5656571,-0.52591497
0.08008424,-0.019278195,0.038937032,-0.6147387,-3.4546096,-0.5095361
0.077590205,-0.018677821,0.03772443,-0.5955941,-3.3470242,-0.49366778
0.07517392,-0.018096164,0.03654963,-0.57704633,-3.2427924,-0.47829416
0.07283296,-0.017532637,0.03541145,-0.5590767,-3.1418095,-0.46339974
0.07056495,-0.016986674,0.034308743,-0.54166716,-3.043974,-0.44896954
0.06836762,-0.016457725,0.0332404,-0.5248002,-2.9491875,-0.43498906
0.06623877,-0.01594526,0.03220535,-0.5084588,-2.8573549,-0.42144427
0.064176254,-0.015448762,0.031202555,-0.4926266,-2.7683837,-0.4083215
0.062178005,-0.014967736,0.030231005,-0.47728774,-2.682185,-0.39560762
0.060242012,-0.0145016955,0.029289722,-0.46242675,-2.5986714,-0.38328987
0.058366336,-0.014050175,0.028377766,-0.44802877,-2.51776,-0.37135586
0.05654909,-0.013612721,0.02749422,-0.43407932,-2.4393692,-0.35979363
0.054788455,-0.013188894,0.026638199,-0.42056444,-2.3634202,-0.3485916
0.053082664,-0.012778268,0.02580884,-0.40747052,-2.2898371,-0.33773848
0.05143,-0.012380434,0.025005314,-0.39478445,-2.2185462,-0.32722345
0.049828816,-0.0119949905,0.024226818,-0.38249353,-2.1494756,-0.3170359
0.048277505,-0.011621552,0.023472568,-0.37058538,-2.0825562,-0.30716568
0.046774503,-0.011259744,0.022741808,-0.35904816,-2.017721,-0.29760283
0.045318313,-0.010909204,0.022033807,-0.3478702,-1.954905,-0.28833783
0.043907475,-0.010569581,0.021347854,-0.33704036,-1.8940454,-0.27936134
0.04254057,-0.010240534,0.020683264,-0.3265478,-1.8350809,-0.2706644
0.04121623,-0.009921733,0.020039368,-0.316382,-1.7779526,-0.2622383
0.03993313,-0.009612861,0.019415524,-0.3065327,-1.7226032,-0.25407457
0.038689982,-0.009313606,0.018811107,-0.29699016,-1.6689774,-0.24616507
0.037485547,-0.009023669,0.018225508,-0.2877447,-1.6170214,-0.23850183
0.036318615,-0.008742761,0.017658144,-0.27878717,-1.5666833,-0.23107722
0.035188016,-0.008470599,0.017108446,-0.27010852,-1.5179124,-0.2238838
0.03409262,-0.00820691,0.016575864,-0.2617001,-1.4706601,-0.21691434
0.03303133,-0.007951433,0.016059864,-0.25355348,-1.4248791,-0.21016188
0.032003086,-0.007703909,0.015559929,-0.2456605,-1.3805233,-0.20361966
0.031006852,-0.007464092,0.015075561,-0.23801327,-1.3375487,-0.19728114
0.030041637,-0.0072317417,0.014606272,-0.23060413,-1.295912,-0.19113995
0.029106472,-0.007006625,0.014151594,-0.22342566,-1.2555716,-0.18518996
0.028200421,-0.006788517,0.013711072,-0.21647069,-1.2164872,-0.17942521
0.02732258,-0.0065771993,0.013284263,-0.20973223,-1.1786195,-0.17383994
0.026472066,-0.0063724606,0.012870743,-0.20320357,-1.1419307,-0.16842856
0.025648031,-0.0061740954,0.012470097,-0.19687815,-1.1063842,-0.16318563
0.02484965,-0.0059819063,0.012081923,-0.19074966,-1.0719442,-0.15810592
0.024076125,-0.0057957,0.011705834,-0.18481195,-1.0385765,-0.15318437
0.023326678,-0.0056152903,0.011341453,-0.1790591,-1.0062475,-0.14841601
0.022600563,-0.0054404973,0.010988415,-0.17348534,-0.974925,-0.14379612
0.021897053,-0.0052711456,0.010646368,-0.16808508,-0.9445775,-0.13932003
0.021215444,-0.0051070657,0.010314968,-0.16285294,-0.9151748,-0.13498329
0.020555053,-0.0049480936,0.009993886,-0.15778369,-0.88668734,-0.13078155
0.01991522,-0.0047940705,0.009682799,-0.15287223,-0.85908675,-0.12671061
0.019295305,-0.0046448424,0.009381395,-0.14811367,-0.83234537,-0.1227664
0.018694688,-0.004500259,0.009089374,-0.14350323,-0.8064364,-0.118944965
0.018112767,-0.004360177,0.008806444,-0.13903633,-0.781334,-0.115242496
0.017548962,-0.0042244554,0.008532321,-0.13470846,-0.75701296,-0.11165528
0.017002705,-0.0040929588,0.008266731,-0.13051534,-0.73344904,-0.10817973
0.016473455,-0.003965555,0.0080094095,-0.12645271,-0.7106187,-0.104812376
