ax,ay,az,gx,gy,gz
-2.6800244,0.009090992,-8.260984,-1.8309257,-51.047737,-23.637487
-2.618072,0.2258401,-8.811788,5.1483274,-63.54226,-29.533058
-2.4215639,0.2966651,-9.092364,12.656336,-74.093216,-35.689674
-2.1695187,0.38218495,-9.173061,18.030025,-81.953445,-36.903755
-2.0946367,0.44647083,-9.238161,21.842798,-89.567665,-35.83637
-2.1415305,0.40816474,-9.3399105,25.308685,-96.7748,-32.55216
-2.262773,0.3430576,-9.490929,28.709064,-104.29656,-29.535168
-2.3789165,0.27054128,-9.613337,32.012054,-112.213554,-27.549377
-2.445032,0.21595417,-9.598233,36.077793,-119.15429,-28.390839
-2.3758585,0.17541435,-9.476474,40.491764,-125.389244,-30.298687
-2.210961,0.149725,-9.320101,44.571365,-131.23955,-31.57724
-1.9680986,0.10796441,-9.183367,47.88806,-137.60622,-31.065296
-1.6699519,0.045597795,-9.018355,50.97262,-144.64946,-29.171824
-1.2978187,-0.0052715098,-8.764132,54.321503,-151.30292,-27.110106
-0.8420606,-0.00489884,-8.386752,58.019314,-156.20485,-25.849394
-0.3724276,0.059116464,-7.9329276,61.44678,-159.76025,-25.381813
0.13987659,0.16459095,-7.3980837,64.463104,-162.39716,-25.33967
0.7104881,0.295407,-6.793988,66.95068,-163.9644,-24.924385
1.2956966,0.44111174,-6.140912,68.80503,-163.60497,-23.636272
1.8704797,0.64394444,-5.402976,70.21704,-161.36961,-22.515177
2.4279532,0.8841961,-4.6181793,70.96008,-156.89975,-21.87599
2.961742,1.158915,-3.8009362,70.76812,-150.22401,-21.58009
3.4507134,1.43653,-2.9806166,69.36851,-140.92636,-21.639666
3.84089,1.6914138,-2.2177587,67.35889,-128.49762,-23.14628
4.133675,1.941387,-1.541993,64.89891,-115.152916,-25.086176
4.330705,2.1837037,-0.96114737,61.534794,-102.40509,-26.10581
4.450085,2.4187138,-0.46088928,56.947483,-90.90426,-26.194523
4.537689,2.6102223,-0.05823322,51.608322,-80.222404,-25.718708
4.5957527,2.7574482,0.24430071,45.600937,-69.45021,-25.226198
4.5987177,2.8426397,0.4034401,39.36683,-59.15967,-24.52218
4.5836544,2.900677,0.48600322,32.867966,-49.24508,-23.716406
4.5700374,2.9341364,0.5030111,26.362514,-39.55749,-22.915302
4.5374594,2.936012,0.45798743,19.979998,-30.023508,-22.198519
4.459933,2.913827,0.35585204,13.891998,-20.718601,-21.71824
4.342498,2.8883965,0.18649761,8.18284,-12.054025,-21.341763
4.200697,2.8668516,-0.02743957,3.0362842,-4.2526393,-21.120422
4.0305834,2.8586876,-0.26838917,-1.5270315,2.660555,-21.65128
3.8554387,2.849319,-0.53124577,-5.5665913,8.74028,-22.664635
3.6821842,2.835265,-0.8272715,-9.168098,13.559751,-23.518682
3.4885619,2.7987993,-1.1898475,-12.1961775,17.246319,-24.444136
3.2782228,2.7678144,-1.5518371,-14.430712,20.080267,-25.998766
3.0526578,2.74698,-1.8981779,-16.106833,21.888733,-28.05031
2.8283935,2.7138033,-2.2285233,-17.433187,22.397427,-30.067543
2.6280437,2.6678882,-2.5340524,-18.391972,21.749529,-31.657057
2.4204865,2.6185408,-2.804293,-19.025736,20.35595,-33.050617
2.2083216,2.5652852,-3.0560458,-19.488718,17.97937,-34.36244
1.9955195,2.4851637,-3.2855062,-19.804066,14.68329,-35.647522
1.781003,2.3575702,-3.4915502,-19.773777,10.652358,-36.865765
1.5847216,2.1848626,-3.6743455,-19.232775,5.8692102,-38.016525
1.443044,1.9349232,-3.831583,-18.15028,0.7678949,-38.722466
1.3375772,1.642274,-3.9383104,-16.663235,-4.3858676,-38.849197
1.248854,1.3011429,-3.989683,-14.745875,-9.554386,-38.59006
1.1914655,0.9217998,-3.9932346,-12.310062,-14.491785,-37.849354
1.1661704,0.5411149,-3.9503512,-9.291803,-19.091324,-36.681755
1.226457,0.19774301,-3.8226657,-5.9571147,-23.034563,-34.9793
1.3535303,-0.075334996,-3.6322258,-2.4712732,-25.990679,-32.751335
1.5310498,-0.25601777,-3.3922687,1.1985792,-27.801374,-30.307568
1.7490532,-0.32493854,-3.108283,5.005882,-28.492477,-28.044125
1.9820505,-0.2738454,-2.7930458,8.666799,-28.588543,-25.891657
2.2254655,-0.104243845,-2.4341245,11.684709,-27.939642,-23.358416
2.4366827,0.13850419,-2.0766854,13.85671,-26.589983,-20.80942
2.5926223,0.40437448,-1.7627634,15.2269745,-24.63505,-18.159838
2.6882317,0.6981348,-1.4940776,15.7645235,-22.272686,-15.590547
2.7277553,0.99609613,-1.283587,15.390026,-19.572754,-13.48194
2.6868052,1.2681266,-1.1602441,14.509962,-17.028355,-11.779569
2.602525,1.5030648,-1.0993253,13.250356,-14.753061,-10.372466
2.4820077,1.6998055,-1.0916874,11.759664,-12.74474,-9.236125
2.3324826,1.8738096,-1.1118836,10.100633,-10.94485,-8.620426
2.170418,2.0198321,-1.1569188,8.343367,-9.3731,-8.695976
1.993018,2.123119,-1.2368937,6.5592837,-8.171185,-9.115449
1.8152878,2.1927807,-1.3372241,4.8773704,-7.3785276,-9.876564
1.6404028,2.2370155,-1.4394082,3.326973,-6.9653907,-10.955912
1.4723785,2.2594335,-1.5366901,1.8762825,-6.930258,-12.296133
1.3177856,2.2587855,-1.6271205,0.4578657,-7.3879666,-13.803181
1.1840119,2.2261946,-1.7044134,-0.9023633,-8.066564,-15.274317
1.0496475,2.1673923,-1.7717724,-2.113813,-8.935388,-16.838291
0.91071993,2.0802546,-1.8252685,-3.1603003,-10.001647,-18.484398
0.77782804,1.968159,-1.8599696,-4.101429,-11.320433,-19.992119
0.65906143,1.8340148,-1.8802603,-5.090972,-13.193476,-21.084982
0.5710009,1.645538,-1.8885756,-6.002331,-15.358039,-21.84614
0.5211937,1.4109769,-1.8937556,-6.6131434,-17.691162,-22.28854
0.53069466,1.1413484,-1.8915281,-6.879557,-19.956797,-22.45537
0.60085684,0.84244955,-1.878991,-6.8052344,-21.805876,-22.419054
0.7244446,0.50051427,-1.8581164,-6.111576,-23.257912,-21.635584
0.8577413,0.17176154,-1.8182421,-4.947297,-24.496607,-20.069864
0.98963356,-0.12167307,-1.7593576,-3.249123,-25.4427,-17.902573
1.1083083,-0.36249352,-1.6859704,-1.1320108,-25.98126,-15.296827
1.1946869,-0.5546714,-1.6102797,1.3139299,-26.35905,-12.427609
1.2510073,-0.6913512,-1.5167437,4.1240754,-26.466467,-9.519593
1.2867968,-0.74242353,-1.3726215,6.959668,-26.105673,-6.765211
1.3123028,-0.7337015,-1.2059456,9.762639,-25.492468,-4.1670876
1.3527199,-0.65918326,-1.0183444,12.291327,-24.47631,-1.7717425
1.4224082,-0.52964735,-0.82663655,14.4514475,-22.942097,0.45602456
1.5095118,-0.35329783,-0.64221406,15.912949,-20.70201,2.5751042
1.5950512,-0.14107375,-0.50012606,16.850931,-18.101221,4.6825776
1.6690707,0.09350087,-0.4030847,17.310759,-15.366872,6.626154
1.7467575,0.3451853,-0.33961773,17.309578,-12.424945,8.161141
1.8348413,0.58743566,-0.31493837,16.903997,-9.239986,9.504657
1.9135573,0.806807,-0.33259484,16.057299,-5.80254,10.983243
1.9424365,0.989096,-0.40545818,15.019885,-2.3627014,12.476299
1.8817691,0.95820385,-0.39279467,14.550774,-2.288908,12.086632
1.8230087,0.92828286,-0.3805292,14.09641,-2.2174342,11.709213
1.7660942,0.8993018,-0.36864907,13.656319,-2.1482058,11.343651
1.7109668,0.8712307,-0.3571419,13.230046,-2.081151,10.989566
1.6575693,0.8440405,-0.3459959,12.81715,-2.0162005,10.646593
1.6058466,0.8177032,-0.33519948,12.417205,-1.9532871,10.314378
1.5557456,0.7921915,-0.32474154,12.0297985,-1.8923461,9.9925785
1.5072145,0.7674793,-0.31461132,11.654532,-1.833315,9.680862
1.4602038,0.7435412,-0.30479842,11.291021,-1.7761328,9.378911
1.4146649,0.72035265,-0.29529276,10.938892,-1.7207413,9.086414
1.3705515,0.6978899,-0.28608468,10.597785,-1.6670835,8.803073
1.3278183,0.67613006,-0.2771647,10.267351,-1.6151046,8.528598
1.2864219,0.6550509,-0.26852372,9.947253,-1.5647516,8.262708
1.2463199,0.6346308,-0.26015297,9.637165,-1.5159733,8.005133
1.2074716,0.6148491,-0.2520439,9.336771,-1.4687198,7.755609
1.1698376,0.59568566,-0.24418828,9.045766,-1.4229431,7.5138845
1.1333793,0.577121,-0.23657809,8.763852,-1.3785969,7.279713
1.09806,0.5591363,-0.22920565,8.490746,-1.3356359,7.0528564
1.0638437,0.54171324,-0.22206347,8.226169,-1.2940166,6.833085
1.0306959,0.5248343,-0.21514429,7.9698534,-1.2536969,6.620176
0.99858296,0.5084822,-0.20844112,7.72154,-1.2146361,6.4139137
0.9674724,0.49264055,-0.2019472,7.4809775,-1.1767943,6.21409
0.93733263,0.4772933,-0.19565593,7.247922,-1.1401336,6.020502
0.9081334,0.46242493,-0.18956096,7.022139,-1.1046169,5.832955
0.87984514,0.44802043,-0.18365616,6.8034,-1.0702081,5.651259
0.8524393,0.43406528,-0.17793554,6.591484,-1.0368727,5.4752307
0.8258882,0.42054537,-0.17239335,6.3861785,-1.004577,5.3046927
0.8001652,0.4074471,-0.167024,6.187275,-0.9732886,5.1394734
0.77524424,0.39475727,-0.16182208,5.994574,-0.9429758,4.979406
0.7511003,0.3824631,-0.15678236,5.8078814,-0.91360813,4.824329
0.7277091,0.3705522,-0.15189976,5.6270084,-0.885156,4.674087
0.7050471,0.3590126,-0.14716935,5.4517746,-0.8575908,4.528528
0.6830914,0.3478327,-0.1425864,5.2820024,-0.8308848,4.3875065
0.66182005,0.33700126,-0.13814627,5.117522,-0.8050112,4.2508802
0.6412116,0.32650736,-0.13384452,4.958167,-0.7799439,4.118512
0.6212454,0.31634048,-0.12967683,4.803778,-0.7556578,3.9902687
0.6019013,0.3064904,-0.12563902,4.6542,-0.73212844,3.8660212
0.5831599,0.29694724,-0.121727005,4.5092826,-0.7093322,3.7456453
0.5650025,0.2877014,-0.11793687,4.3688803,-0.68724626,3.6290197
0.5474107,0.2787436,-0.11426483,4.232852,-0.6658483,3.5160277
0.530367,0.2700649,-0.11070717,4.1010613,-0.64511704,3.4065557
0.51385427,0.2616565,-0.10726035,3.9733765,-0.62503153,3.3004937
0.4978558,0.25351006,-0.103920884,3.8496687,-0.60557175,3.1977355
0.48235574,0.24561734,-0.10068545,3.7298143,-0.586718,3.0981784
0.4673384,0.23797047,-0.09755078,3.613693,-0.5684516,3.0017219
0.45278883,0.23056178,-0.094513744,3.5011883,-0.5507541,2.9082696
0.4386924,0.22338381,-0.091571294,3.3921876,-0.5336077,2.817728
0.42503494,0.2164294,-0.088720486,3.2865815,-0.5169954,2.730006
0.41180283,0.20969155,-0.08595845,3.1842644,-0.5009003,2.645016
0.3989828,0.20316353,-0.08328244,3.0851333,-0.4853066,2.5626726
0.386562,0.19683881,-0.08068976,2.9890895,-0.4701984,2.4828937
0.37452796,0.19071104,-0.07817781,2.8960364,-0.45556068,2.4055989
0.36286864,0.18477407,-0.07574408,2.8058808,-0.44137877,2.330711
0.3515724,0.17902198,-0.07338613,2.7185326,-0.42763847,2.2581549
0.34062788,0.173449,-0.071101606,2.633904,-0.41432598,2.187858
0.33002412,0.16804953,-0.06888822,2.5519106,-0.401428,2.11975
0.31975055,0.16281818,-0.06674374,2.47247,-0.38893166,2.0537627
0.30979684,0.15774971,-0.06466603,2.395503,-0.37682435,1.9898299
0.30015305,0.15283905,-0.06265302,2.3209324,-0.36509404,1.9278876
0.29080948,0.14808129,-0.060702674,2.2486837,-0.35372892,1.8678739
0.28175685,0.14347164,-0.058813054,2.178684,-0.34271768,1.8097286
0.27298605,0.13900553,-0.056982264,2.110864,-0.33204922,1.7533937
0.2644883,0.13467844,-0.055208474,2.0451553,-0.3217129,1.6988126
0.25625515,0.13048609,-0.053489905,1.9814922,-0.3116984,1.6459308
0.24827829,0.12642424,-0.05182484,1.9198111,-0.3019957,1.5946952
0.24054976,0.12248884,-0.050211612,1.8600503,-0.29259503,1.5450548
0.23306185,0.11867596,-0.04864861,1.80215,-0.28348702,1.4969598
0.22580704,0.11498179,-0.04713426,1.7460523,-0.27466255,1.4503621
0.21877807,0.111402616,-0.04566706,1.6917008,-0.26611283,1.405215
0.21196793,0.10793487,-0.044245534,1.6390414,-0.25782925,1.3614733
0.2053698,0.104575075,-0.042868257,1.5880214,-0.24980353,1.3190933
0.19897707,0.10131987,-0.041533858,1.5385896,-0.24202767,1.2780328
0.19278334,0.098166,-0.040241,1.4906967,-0.23449387,1.2382504
0.18678242,0.09511031,-0.038988385,1.4442946,-0.2271946,1.1997064
0.18096831,0.09214974,-0.037774768,1.3993369,-0.22012255,1.1623622
0.1753352,0.08928134,-0.03659893,1.3557789,-0.21327065,1.1261806
0.16987744,0.086502224,-0.03545969,1.3135768,-0.20663205,1.0911254
0.16458957,0.08380962,-0.034355916,1.2726884,-0.20020011,1.0571613
0.15946631,0.08120084,-0.033286504,1.2330728,-0.19396837,1.0242546
0.15450253,0.078673266,-0.03225038,1.1946903,-0.18793064,0.9923721
