ax,ay,az,gx,gy,gz
-1.540014,1.191829,-8.078255,18.643805,-72.188835,-19.975636
-1.6953356,1.0208589,-8.593194,19.357645,-81.211296,-16.622911
-1.9069008,0.67382425,-8.899816,23.634861,-85.263374,-13.696672
-2.1735206,0.49589214,-9.19975,28.502405,-88.73049,-12.958413
-2.5179174,0.39903527,-9.380533,34.993557,-94.56203,-15.327012
-2.7933064,0.3535197,-9.387396,41.9495,-102.85158,-18.719719
-2.8132443,0.33988643,-9.187379,48.44552,-111.52703,-21.37934
-2.6611583,0.33085278,-8.922805,54.16173,-119.89309,-22.734852
-2.4394379,0.40450788,-8.605562,58.18704,-127.85751,-22.710922
-2.170455,0.50999403,-8.250486,61.150753,-135.92917,-22.505152
-1.760934,0.66595083,-7.767462,63.38304,-142.80606,-22.939426
-1.2732266,0.78010803,-7.24542,65.289345,-147.89229,-23.45562
-0.76679724,0.83990353,-6.7094736,66.73424,-151.34639,-23.072535
-0.2723817,0.8885581,-6.136406,67.882614,-153.6436,-21.931536
0.24654675,0.9921575,-5.4816704,68.25719,-153.9228,-20.696102
0.8101318,1.1620028,-4.7698903,67.30447,-152.7678,-18.817513
1.2965227,1.3163152,-4.1109376,64.9228,-150.66855,-15.812676
1.6811604,1.426037,-3.5381534,61.9063,-148.00427,-12.520773
1.9831789,1.4758114,-3.0274851,59.01611,-144.59071,-9.815372
2.2684042,1.5008141,-2.5219786,56.428623,-139.8784,-7.973958
2.5535533,1.5250585,-2.0203109,53.888382,-134.49388,-6.38776
2.8322499,1.5422845,-1.5370018,51.77605,-128.60713,-5.454451
3.1709864,1.5948684,-0.9977559,50.23894,-121.47782,-5.6986313
3.5801585,1.6983496,-0.3884218,48.611374,-112.805244,-6.4442234
3.9789267,1.8128579,0.20293869,45.871334,-102.91971,-5.7657824
4.24074,1.908303,0.66550463,42.503696,-93.08286,-4.36735
4.408973,1.977496,1.0098044,38.951923,-83.101074,-3.0769017
4.520695,2.0202,1.2582475,35.562115,-72.72227,-2.3291824
4.5875,2.05025,1.4346696,32.322197,-61.836735,-2.223625
4.600478,2.0715525,1.5350873,28.902464,-50.870613,-2.0730984
4.5490623,2.1109982,1.5509871,25.372362,-40.525803,-1.924042
4.468902,2.176182,1.5155067,21.727377,-30.880096,-2.0692596
4.367814,2.2612588,1.4341644,17.811821,-21.903456,-2.43836
4.2439737,2.355425,1.2967553,13.593797,-13.647258,-2.8569767
4.0700707,2.4501662,1.1005306,8.967604,-6.5064692,-3.3315046
3.8364208,2.5188863,0.82154334,4.4246554,-0.4117004,-3.9918578
3.5829194,2.5674922,0.50434446,0.20588739,4.749489,-5.050511
3.3249094,2.6063776,0.16234495,-3.6201656,8.949168,-6.4903784
3.0872648,2.639511,-0.19042632,-7.0680733,12.403136,-8.145144
2.8665807,2.6700249,-0.54776776,-10.179632,15.12545,-9.84029
2.6222801,2.681465,-0.92398906,-12.9910145,16.966637,-11.53474
2.36859,2.6679966,-1.3029671,-15.500409,17.792078,-13.189947
2.1172671,2.6231556,-1.6775919,-17.518988,17.652077,-14.876129
1.877701,2.5586405,-2.03024,-19.053818,16.818527,-16.57951
1.6466703,2.4776258,-2.3591354,-20.08313,15.039936,-18.229506
1.4231704,2.3722425,-2.6529412,-20.782955,12.659327,-19.712753
1.1978098,2.2394857,-2.9126759,-21.087353,9.544768,-21.037899
0.9775213,2.0878384,-3.1344569,-21.050745,5.819859,-22.074795
0.77075523,1.9279071,-3.3170166,-20.718025,1.4220638,-22.849596
0.6021902,1.7627614,-3.421781,-20.123205,-3.6092005,-23.479998
0.4790792,1.5711309,-3.452278,-19.438332,-8.629737,-24.159939
0.41144955,1.3324351,-3.4205527,-18.603638,-13.3649435,-24.758415
0.4079268,1.046689,-3.351515,-17.317442,-17.646942,-25.191425
0.46361098,0.7374562,-3.2615223,-15.393379,-21.526371,-25.543198
0.60010976,0.41898495,-3.1507924,-12.584474,-24.853104,-25.625082
0.8478146,0.11299656,-3.0095532,-9.240459,-27.668615,-25.287012
1.166723,-0.15411447,-2.8341026,-5.3399906,-29.582666,-24.692318
1.5514528,-0.34760168,-2.6189127,-1.1703981,-30.21539,-23.673038
1.9519335,-0.45973647,-2.381245,3.0472493,-29.708803,-22.004343
2.3189986,-0.4792236,-2.1259964,7.007671,-28.10095,-19.717005
2.6137428,-0.39154664,-1.8662356,10.596487,-25.7964,-17.08805
2.853072,-0.21778093,-1.602998,13.634518,-22.840889,-14.396883
3.0372186,0.017811617,-1.3554083,15.8804865,-19.341156,-11.576382
3.1421654,0.28370076,-1.1520008,17.297073,-15.680889,-8.611254
3.1705377,0.5546179,-1.0099512,17.857933,-12.126632,-5.692941
3.114683,0.8161266,-0.9415605,17.909695,-8.697617,-3.0917857
3.0073643,1.0586618,-0.9221214,17.543076,-5.4515505,-0.9329747
2.8610907,1.2782893,-0.9431355,16.841259,-2.4654498,0.7311528
2.6858168,1.469903,-1.0013525,16.01491,0.21169583,1.8013617
2.495649,1.6436577,-1.0777423,15.09166,2.4917455,2.01056
2.2967255,1.803568,-1.1579868,14.107821,4.388799,1.635597
2.0992517,1.9488877,-1.2404649,12.985855,5.861928,0.7723907
1.9035742,2.0774004,-1.3293302,11.656755,6.8909893,-0.298723
1.7005457,2.1833172,-1.425576,10.071405,7.4235225,-1.5784482
1.4859982,2.2640886,-1.5312389,8.309945,7.2502217,-3.340167
1.2810344,2.304813,-1.6388873,6.4245443,6.6325703,-5.320435
1.087594,2.3124375,-1.7493778,4.4848866,5.4600616,-7.332582
0.91058475,2.2981799,-1.8499259,2.5273836,3.7069259,-9.315873
0.7580307,2.2646315,-1.9318128,0.49663517,1.4521531,-11.16164
0.63516384,2.209374,-1.9867725,-1.8917193,-1.435879,-12.547416
0.5441448,2.0808275,-2.019008,-4.3894897,-4.505623,-13.65384
0.47233358,1.8808067,-2.046899,-6.797186,-7.595589,-14.655456
0.43174154,1.6013979,-2.0884905,-8.774162,-10.66879,-15.42325
0.42329282,1.2623565,-2.1291876,-10.125494,-13.817986,-15.759631
0.4553938,0.89163303,-2.1300929,-10.653066,-16.670702,-15.283645
0.52703846,0.51081353,-2.0511792,-10.552361,-19.202227,-14.200008
0.6216289,0.15464127,-1.901189,-9.924291,-21.254519,-12.63184
0.7393343,-0.17669044,-1.7003007,-8.824197,-22.651709,-10.636949
0.86019117,-0.4757176,-1.4855518,-7.263449,-23.453299,-8.079766
0.95649135,-0.72490656,-1.2824234,-5.065629,-23.821966,-5.0262117
1.0214156,-0.8924117,-1.0906926,-2.411763,-23.829048,-2.0466268
1.0799286,-0.9888463,-0.8909495,0.39112517,-23.455563,0.775421
1.1384041,-1.0224388,-0.69005096,3.0956974,-22.660208,3.6284523
1.2152442,-1.0048078,-0.51437724,5.8082986,-21.45456,6.442791
1.3736155,-0.936088,-0.3688119,8.414145,-19.238832,9.420217
1.569485,-0.8048986,-0.27512646,10.785038,-16.207409,12.748347
1.7672721,-0.6597467,-0.24289012,13.228038,-12.592338,16.446587
1.9421968,-0.48716548,-0.2608651,15.863006,-8.906164,20.19424
1.8815092,-0.47194305,-0.25271383,15.367335,-8.627873,19.563232
1.8227316,-0.45719975,-0.24481916,14.887266,-8.358343,18.952085
1.7658029,-0.44292018,-0.23717281,14.4222975,-8.097289,18.36016
1.7106637,-0.4290895,-0.22976682,13.971944,-7.8444424,17.786844
1.6572566,-0.41569328,-0.22259349,13.53574,-7.5995383,17.231539
1.6055264,-0.4027177,-0.21564539,13.113231,-7.3623238,16.693666
1.5554197,-0.39014933,-0.20891532,12.70398,-7.1325536,16.172676
1.5068846,-0.37797514,-0.20239635,12.307567,-6.9099903,15.668025
1.4598709,-0.36618263,-0.19608174,11.923581,-6.694404,15.179195
1.4143307,-0.35475966,-0.18996504,11.551628,-6.4855742,14.705685
1.370217,-0.3436945,-0.18403992,11.191326,-6.2832856,14.247006
1.3274845,-0.33297583,-0.17830034,10.842306,-6.087331,13.80269
1.2860895,-0.32259268,-0.1727404,10.504211,-5.89751,13.372281
1.2459899,-0.3125344,-0.16735443,10.176695,-5.7136283,12.95534
1.2071446,-0.30279073,-0.16213696,9.859424,-5.5354986,12.551441
1.1695141,-0.29335177,-0.15708262,9.5520735,-5.3629394,12.1601715
1.1330599,-0.28420788,-0.15218629,9.254332,-5.1957746,11.781135
1.097745,-0.27534977,-0.147443,8.965896,-5.033834,11.413943
1.0635335,-0.26676843,-0.14284791,8.686472,-4.8769536,11.058226
1.0303907,-0.25845516,-0.13839635,8.415776,-4.724974,10.71362
0.99828315,-0.25040156,-0.13408384,8.153536,-4.5777407,10.379777
0.9671781,-0.2425994,-0.12990598,7.899483,-4.435105,10.056358
0.93704414,-0.23504083,-0.12585856,7.6533623,-4.296922,9.743036
0.90785074,-0.22771819,-0.12193746,7.4149237,-4.1630526,9.439494
0.87956846,-0.22062407,-0.11813874,7.183926,-4.033361,9.145426
0.8521686,-0.21375132,-0.114458546,6.9601364,-3.907716,8.860533
0.82562363,-0.20709299,-0.110893175,6.743329,-3.785991,8.584528
0.79990673,-0.20064235,-0.10743902,6.533284,-3.668063,8.317132
0.77499187,-0.1943929,-0.1040926,6.329791,-3.5538132,8.058078
0.7508541,-0.18833837,-0.10085054,6.132644,-3.4431264,7.8071012
0.7274689,-0.18247262,-0.09770958,5.9416447,-3.3358912,7.563951
0.7048129,-0.17678976,-0.09466655,5.7566,-3.2319996,7.3283825
0.6828632,-0.17128406,-0.09171838,5.577325,-3.1313467,7.1001573
0.6615977,-0.16595,-0.08886213,5.403638,-3.0338316,6.879047
0.6409951,-0.1607822,-0.08609489,5.2353644,-2.9393559,6.664829
0.6210346,-0.15577547,-0.083413914,5.072336,-2.8478248,6.457287
0.6016962,-0.15092477,-0.080816485,4.9143887,-2.7591462,6.256213
0.58296037,-0.14622523,-0.0783,4.7613626,-2.6732311,6.061405
0.5648084,-0.14167213,-0.07586192,4.6131053,-2.5899932,5.872668
0.547222,-0.1372609,-0.07349982,4.4694676,-2.5093486,5.689811
0.53018355,-0.1329871,-0.07121131,4.330305,-2.431217,5.5126514
0.5136759,-0.12884645,-0.06899409,4.195478,-2.3555193,5.341011
0.49768254,-0.1248348,-0.06684595,4.064851,-2.2821798,5.174718
0.48218736,-0.12094811,-0.06476472,3.9382932,-2.211125,5.013605
0.4671749,-0.11718249,-0.06274833,3.815678,-2.1422834,4.8575106
0.45262998,-0.11353417,-0.060794745,3.6968818,-2.0755863,4.7062783
0.43853813,-0.10999948,-0.058902003,3.5817857,-2.0109665,4.5597563
0.42488518,-0.10657488,-0.057068214,3.4702744,-1.9483593,4.417798
0.41165745,-0.10325694,-0.05529154,3.362236,-1.887702,4.280261
0.39884168,-0.10004233,-0.053570196,3.2575624,-1.8289338,4.1470075
0.38642502,-0.09692783,-0.051902458,3.1561487,-1.7719958,4.0179033
0.374395,-0.09391032,-0.050286658,3.057893,-1.7168308,3.8928201
0.36273965,-0.09098678,-0.048721172,2.962697,-1.6633838,3.771632
0.35144722,-0.08815428,-0.04720444,2.8704655,-1.6116012,3.6542175
0.34050643,-0.08540998,-0.04573493,2.781106,-1.5614309,3.5404594
0.3299063,-0.082751125,-0.044311184,2.694529,-1.512823,3.4302433
0.3196363,-0.080175065,-0.042931765,2.6106477,-1.4657284,3.3234591
0.309686,-0.07767922,-0.041595303,2.5293784,-1.4201003,3.2199998
0.30004555,-0.07526108,-0.040300447,2.4506392,-1.3758929,3.119762
0.29070523,-0.07291823,-0.03904591,2.374352,-1.3330619,3.022645
0.28165576,-0.07064833,-0.037830435,2.3004396,-1.2915645,2.9285517
0.272888,-0.068449095,-0.0366528,2.2288287,-1.251359,2.837388
0.26439327,-0.06631834,-0.035511833,2.1594472,-1.2124053,2.7490628
0.25616297,-0.06425392,-0.034406386,2.0922258,-1.1746644,2.6634872
0.24818891,-0.06225377,-0.033335354,2.0270975,-1.1380985,2.580576
0.24046312,-0.06031589,-0.032297667,1.9639964,-1.1026709,2.500246
0.23297784,-0.058438342,-0.03129229,1.90286,-1.0683464,2.422417
0.2257256,-0.056619246,-0.030318208,1.843627,-1.0350903,2.3470109
0.21869914,-0.05485678,-0.029374452,1.7862378,-1.0028697,2.2739522
0.21189141,-0.053149186,-0.028460076,1.7306354,-0.97165215,2.2031682
0.20529562,-0.05149475,-0.027574167,1.6767639,-0.94140637,2.1345875
0.19890517,-0.04989182,-0.026715836,1.6245694,-0.9121022,2.068142
0.19271365,-0.048338786,-0.025884224,1.5739999,-0.8837103,2.0037649
0.18671487,-0.0468341,-0.025078503,1.5250045,-0.85620224,1.9413918
0.18090284,-0.045376256,-0.024297863,1.4775344,-0.8295505,1.8809605
0.17527173,-0.043963794,-0.023541525,1.431542,-0.80372846,1.8224103
0.16981593,-0.0425953,-0.02280873,1.3869815,-0.77871025,1.7656828
0.16452996,-0.04126941,-0.022098748,1.3438079,-0.7544708,1.7107213
0.15940854,-0.039984792,-0.021410868,1.3019785,-0.73098594,1.6574707
0.15444654,-0.03874016,-0.0207444,1.2614511,-0.70823216,1.6058776
0.14963901,-0.037534278,-0.020098679,1.2221853,-0.6861867,1.5558908
0.14498113,-0.036365934,-0.01947306,1.1841418,-0.6648274,1.5074599
