ax,ay,az,gx,gy,gz
-1.7181975,0.009090992,-8.778262,-45.38859,-37.786705,-39.229446
-1.5813574,-0.3349615,-9.365621,-46.59139,-44.240116,-34.496964
-1.628424,-0.5405075,-9.669843,-46.702755,-48.109344,-30.705917
-1.6831572,-0.8439447,-10.025097,-44.578377,-52.454105,-24.86238
-1.808022,-1.2062129,-10.375299,-39.913353,-55.592266,-19.017454
-2.0814078,-1.5593331,-10.682399,-32.16671,-58.957626,-15.344993
-2.391496,-1.8598691,-10.907566,-22.383656,-62.38156,-14.470218
-2.6616147,-2.0981476,-11.059424,-11.37149,-65.53344,-14.668994
-2.8922422,-2.2318046,-11.14482,-0.16387314,-69.91336,-14.824478
-3.0236306,-2.2389555,-11.097978,9.390758,-74.673225,-14.545406
-3.0830815,-2.2283263,-11.002839,17.942537,-79.79449,-13.678282
-3.132871,-2.17652,-10.857168,25.451687,-85.75564,-12.5471525
-3.1606188,-2.104088,-10.695298,32.086525,-92.95309,-10.939483
-3.1187568,-1.98419,-10.500912,38.191196,-102.19082,-8.848964
-2.8935397,-1.7999454,-10.126588,43.348667,-111.591644,-6.8037596
-2.5539925,-1.6436735,-9.646618,47.990322,-119.78937,-5.2951427
-2.147325,-1.4902084,-9.066142,52.6034,-126.453964,-4.7605395
-1.6315414,-1.2691973,-8.352119,57.08783,-131.76418,-5.441822
-0.93672985,-0.936723,-7.470947,60.972034,-134.42712,-7.4158745
0.06400524,-0.45279244,-6.355559,64.329414,-134.05786,-9.787412
1.2420886,0.16987619,-5.065999,66.04805,-130.14383,-11.062035
2.3956456,0.8377641,-3.7243721,64.99288,-123.11136,-10.443659
3.3351989,1.4192712,-2.5165513,61.7554,-114.145515,-8.502411
4.057514,1.9056333,-1.4945465,56.41315,-102.77218,-6.532179
4.543403,2.2411702,-0.76529545,50.081722,-90.29939,-4.6811986
4.8429914,2.4508686,-0.28342795,43.2157,-77.50705,-2.7441285
4.9905457,2.557679,-0.003925276,36.35047,-64.77207,-0.8809452
5.014371,2.6122992,0.13458927,30.053785,-52.1838,0.32606718
4.9467874,2.6339476,0.17267545,24.204512,-40.093143,0.5801413
4.8175673,2.6011572,0.098536335,18.724018,-28.79794,0.80808026
4.63449,2.5560498,-0.043663286,13.7828045,-18.442142,0.78219265
4.4184513,2.5190206,-0.2200235,9.298101,-8.922639,0.19902873
4.187794,2.4712353,-0.45078173,5.2839847,-0.48277557,-0.50021356
3.9307683,2.4173996,-0.74037236,1.8482084,5.700377,-1.3439295
3.6857662,2.3630927,-1.0520489,-0.86882454,10.745828,-2.4342296
3.4824305,2.3552356,-1.3415108,-2.7715685,15.099436,-4.230229
3.3273802,2.41926,-1.594107,-4.39579,19.034533,-6.840417
3.1930156,2.5216107,-1.8474818,-6.0562887,22.577219,-9.81237
3.0133097,2.6239865,-2.1305652,-7.8443494,24.90281,-12.97957
2.7466977,2.6666226,-2.464353,-9.488003,25.878098,-16.116013
2.4547825,2.6535661,-2.8110094,-10.846041,25.570961,-19.085926
2.152505,2.5913453,-3.150959,-11.904163,24.231144,-21.893375
1.8601846,2.4796393,-3.4756935,-12.583424,22.021658,-24.587488
1.5923697,2.3266842,-3.768449,-12.809104,18.659517,-27.057001
1.3671256,2.1151147,-3.9978294,-12.7794895,14.639642,-29.26101
1.1975765,1.8575444,-4.179994,-12.464777,10.039566,-30.94631
1.0921448,1.5626903,-4.307738,-11.882846,4.9171705,-32.0038
1.0625752,1.2328929,-4.366122,-11.035694,-0.22535047,-32.47825
1.0899675,0.8732008,-4.3518662,-9.706365,-4.8290687,-32.247013
1.1893089,0.48990333,-4.2450376,-8.216351,-8.841328,-31.126806
1.3167201,0.107675225,-4.0805483,-6.5023518,-12.345279,-29.115654
1.452554,-0.25937906,-3.8763065,-4.3524394,-15.212552,-26.585745
1.5960193,-0.5829148,-3.6411433,-1.6378919,-17.452919,-23.833939
1.7544489,-0.83807576,-3.377565,1.7095622,-18.77874,-20.661777
1.9157325,-0.9659791,-3.0809875,5.2702026,-19.45273,-17.29214
2.0697918,-0.9847906,-2.7643726,8.816591,-19.23173,-14.115058
2.2073824,-0.904891,-2.4506536,12.19553,-18.294268,-11.16618
2.3224354,-0.7207767,-2.1393228,15.110331,-17.12063,-8.543886
2.434151,-0.45178318,-1.8272856,17.10917,-15.424734,-6.4462457
2.524275,-0.10570418,-1.5464336,18.23182,-13.397445,-4.7372403
2.5789013,0.2525983,-1.3225842,18.458422,-11.249344,-3.3264294
2.5837317,0.5898049,-1.1709123,17.911829,-9.049864,-2.1172419
2.5385919,0.9001305,-1.0928667,16.824038,-6.889397,-1.2617716
2.4460974,1.1858716,-1.0778453,15.19327,-4.917703,-1.0990763
2.3022752,1.4183671,-1.1398501,13.331753,-3.1609645,-1.3464941
2.1237075,1.606065,-1.2470672,11.359364,-1.750349,-2.016627
1.9176162,1.7496701,-1.386538,9.3424425,-0.79642886,-3.1197634
1.6966043,1.8508995,-1.5445553,7.3507147,-0.27890033,-4.5878596
1.4712684,1.91021,-1.7200322,5.558475,-0.49610806,-6.577772
1.2722219,1.9190359,-1.8902433,3.8593035,-1.1108518,-8.635376
1.0930842,1.8999946,-2.0419838,2.1720407,-2.155997,-10.688552
0.9349302,1.8500757,-2.1803272,0.50582206,-3.6380224,-12.646444
0.79356265,1.7711323,-2.308159,-1.0956324,-5.669942,-14.483412
0.67581725,1.6536542,-2.419951,-2.5630205,-8.376314,-16.0934
0.6009022,1.4703071,-2.493828,-3.8604338,-11.407637,-17.393366
0.5587227,1.2441947,-2.5248454,-5.0574512,-14.469165,-18.363018
0.54773015,0.96555257,-2.5338283,-5.926001,-17.440454,-18.924778
0.5804585,0.651096,-2.5228746,-6.346053,-20.243767,-18.978634
0.6530515,0.3205571,-2.4740634,-6.193958,-22.53629,-18.208363
0.732186,-0.012399698,-2.359109,-5.6965365,-24.494822,-16.777943
0.8122307,-0.33520427,-2.205053,-4.8152385,-26.109385,-14.714964
0.90055734,-0.6312076,-2.0300522,-3.5550094,-27.381777,-12.332249
0.99821866,-0.8778048,-1.8314525,-1.7803999,-28.14286,-9.749649
1.1007315,-1.0492431,-1.5980102,0.31911397,-28.230955,-6.9371424
1.2043283,-1.1382139,-1.3385206,2.4166088,-27.875168,-3.881047
1.3062456,-1.1612241,-1.0643424,4.431684,-26.94045,-0.77891207
1.4115314,-1.1148628,-0.77427983,6.188984,-25.294247,2.137986
1.5404696,-1.0150533,-0.48791018,7.5533156,-22.699205,4.996388
1.6944002,-0.86891335,-0.21802287,8.202509,-18.699852,8.029819
1.8476377,-0.6678734,0.0026703917,8.184536,-13.873108,11.108363
1.9792199,-0.44383097,0.16792743,7.56103,-8.53612,13.98402
1.9172423,-0.4299328,0.16266893,7.324263,-8.26882,13.546123
1.8572277,-0.4164748,0.15757696,7.0949945,-8.009984,13.122094
1.7991117,-0.40344253,0.1526461,6.872979,-7.7593374,12.71148
1.7428325,-0.3908222,0.14787108,6.6579814,-7.5166125,12.313844
1.6883304,-0.37860033,0.14324683,6.449772,-7.281552,11.928763
1.6355478,-0.36676407,0.13876848,6.2481313,-7.0539074,11.555832
1.584429,-0.35530093,0.13443129,6.052847,-6.8334384,11.194656
1.5349205,-0.34419885,0.13023072,5.8637137,-6.6199145,10.844858
1.4869702,-0.33344623,0.12616237,5.680534,-6.413111,10.506069
1.4405282,-0.3230318,0.122221984,5.5031157,-6.2128124,10.177937
1.395546,-0.31294477,0.11840546,5.3312745,-6.0188103,9.860119
1.351977,-0.30317461,0.11470884,5.164832,-5.8309026,9.552285
1.309776,-0.29371125,0.11112828,5.0036154,-5.6488953,9.254117
1.2688992,-0.28454483,0.107660085,4.847458,-5.472599,8.965306
1.2293046,-0.2756659,0.10430067,4.696198,-5.3018327,8.685554
1.1909513,-0.26706538,0.10104658,4.5496807,-5.13642,8.414572
1.1537999,-0.25873435,0.09789445,4.407755,-4.9761906,8.1520815
1.1178123,-0.25066426,0.09484107,4.270274,-4.8209805,7.8978133
1.0829514,-0.24284689,0.091883294,4.137099,-4.6706305,7.651507
1.0491818,-0.23527421,0.08901811,4.008092,-4.5249863,7.4129105
1.0164689,-0.22793847,0.086242564,3.8831215,-4.383899,7.1817794
0.9847791,-0.2208322,0.08355384,3.7620602,-4.2472258,6.9578786
0.95408034,-0.21394815,0.080949195,3.6447847,-4.1148257,6.7409787
0.9243413,-0.2072793,0.07842598,3.5311754,-3.9865654,6.53086
0.8955317,-0.20081888,0.075981624,3.4211166,-3.862313,6.3273077
0.8676223,-0.19456032,0.07361364,3.314497,-3.7419434,6.130116
0.8405847,-0.18849726,0.07131963,3.2112079,-3.6253338,5.9390845
0.81439155,-0.18262358,0.069097266,3.1111445,-3.512366,5.754019
0.7890163,-0.17693329,0.06694429,3.0142057,-3.402926,5.574732
0.76443326,-0.17142065,0.06485854,2.9202933,-3.2969024,5.4010425
0.7406175,-0.16608009,0.062837884,2.8293123,-3.194188,5.2327743
0.71754503,-0.16090618,0.060880296,2.7411706,-3.0946796,5.0697575
0.69519246,-0.15589373,0.058983788,2.6557794,-2.9982758,4.911827
0.6735373,-0.15103765,0.05714645,2.573052,-2.9048798,4.758824
0.6525576,-0.14633305,0.055366423,2.4929054,-2.814397,4.610594
0.6322323,-0.14177519,0.053641915,2.4152584,-2.7267365,4.466987
0.61254084,-0.13735947,0.05197119,2.340033,-2.64181,4.3278584
0.5934634,-0.13308145,0.05035256,2.2671533,-2.5595315,4.1930685
0.57498085,-0.12893681,0.048784398,2.1965458,-2.4798183,4.0624814
0.5570744,-0.12492139,0.047265127,2.1281397,-2.4025905,3.935965
0.53972626,-0.121031135,0.045793213,2.061866,-2.3277698,3.8133926
0.52291876,-0.11726214,0.04436718,1.997658,-2.2552814,3.6946409
0.5066352,-0.11361061,0.042985592,1.9354513,-2.1850524,3.5795903
0.49085903,-0.11007289,0.04164706,1.8751832,-2.1170118,3.4681253
0.47557452,-0.106645405,0.040350243,1.8167932,-2.0510917,3.360134
0.4607663,-0.103324726,0.039093833,1.7602227,-1.9872258,3.2555075
0.44641945,-0.10010751,0.037876572,1.7054148,-1.9253496,3.154141
0.43251958,-0.09699053,0.03669724,1.6523144,-1.8654014,3.0559328
0.41905278,-0.093970664,0.035554644,1.6008685,-1.8073208,2.960784
0.4060055,-0.09104487,0.034447644,1.5510252,-1.7510495,2.8685997
0.39336467,-0.088210225,0.03337513,1.5027345,-1.6965313,2.7792869
0.3811176,-0.085463874,0.032336023,1.4559482,-1.6437112,2.692756
0.369252,-0.08280306,0.03132928,1.4106191,-1.5925364,2.6089206
0.357756,-0.08022514,0.0303539,1.366702,-1.5429555,2.5276964
0.346618,-0.0777275,0.029408894,1.3241526,-1.494919,2.4490018
0.33582693,-0.075307645,0.028493322,1.2829285,-1.4483783,2.3727584
0.32537192,-0.072963156,0.027606266,1.2429881,-1.4032872,2.2988894
0.3152425,-0.07069168,0.026746832,1.2042916,-1.3596003,2.2273207
0.30542853,-0.068490945,0.025914162,1.1668003,-1.317274,2.157981
0.29592016,-0.06635874,0.025107423,1.1304764,-1.2762656,2.0908003
0.2867079,-0.06429293,0.024325807,1.0952835,-1.2365342,2.0257118
0.27778247,-0.062291447,0.023568528,1.0611867,-1.1980401,1.9626501
0.269135,-0.06035229,0.022834828,1.0281514,-1.1607447,1.9015518
0.26075676,-0.05847351,0.022123976,0.9961449,-1.1246104,1.8423562
0.2526394,-0.056653228,0.021435257,0.9651349,-1.0896013,1.7850037
0.2447748,-0.054889627,0.020767981,0.9350904,-1.0556822,1.7294369
0.23715505,-0.053180933,0.020121483,0.9059814,-1.0228193,1.6756002
0.22977255,-0.05152544,0.019495113,0.87777877,-0.9909795,1.6234397
0.2226199,-0.04992149,0.018888244,0.85045415,-0.96013105,1.5729032
0.21568994,-0.04836748,0.01830027,0.8239803,-0.930243,1.5239401
0.20897575,-0.04686185,0.017730601,0.7983306,-0.9012855,1.4765015
0.20247057,-0.045403097,0.017178668,0.7734795,-0.87322956,1.4305397
0.19616793,-0.04398976,0.016643919,0.7494021,-0.84604704,1.3860089
0.1900615,-0.04262042,0.016125817,0.7260743,-0.8197108,1.3428644
0.18414518,-0.04129371,0.015623845,0.70347273,-0.79419446,1.3010631
0.17841303,-0.040008307,0.015137501,0.68157476,-0.7694725,1.2605631
0.17285936,-0.038762916,0.014666297,0.66035855,-0.7455202,1.221324
0.16747856,-0.037556298,0.014209762,0.6398028,-0.72231346,1.1833065
0.16226527,-0.036387242,0.01376744,0.61988693,-0.6998293,1.1464723
0.15721428,-0.035254583,0.013338887,0.6005911,-0.678045,1.110785
0.15232053,-0.03415718,0.012923675,0.58189595,-0.65693885,1.0762086
0.14757912,-0.03309394,0.012521389,0.5637828,-0.63648975,1.0427085
0.14298531,-0.0320638,0.012131626,0.5462335,-0.6166773,1.0102513
0.1385345,-0.031065727,0.011753996,0.52923054,-0.5974815,0.97880447
0.13422225,-0.030098723,0.011388122,0.5127568,-0.5788833,0.9483366
0.13004424,-0.029161822,0.011033637,0.49679592,-0.5608641,0.91881716
0.12599628,-0.028254088,0.010690187,0.48133188,-0.5434058,0.89021665
0.12207433,-0.027374608,0.010357428,0.4663492,-0.52649087,0.86250645
0.118274465,-0.026522506,0.010035028,0.45183298,-0.51010257,0.83565885
