ax,ay,az,gx,gy,gz
-4.3845854,4.7591343,-6.0946007,-16.92379,18.36653,17.47834
-5.655997,4.7419176,-7.1029954,-6.9990826,17.990822,-5.535653
-6.325598,5.1067986,-7.575465,-1.9363388,10.283372,-20.689985
-6.7274256,5.39009,-7.98418,-2.1646614,-4.695519,-29.416157
-6.9143896,5.46426,-8.377379,-3.604089,-21.724663,-35.43816
-6.9128356,5.413577,-8.717399,-5.613618,-38.32071,-38.09855
-6.7136116,5.0820823,-9.158797,-6.2585144,-51.61565,-38.95041
-6.5103335,4.5872,-9.660354,-3.8152578,-61.52016,-41.027737
-6.381457,4.0353947,-10.196808,1.6160352,-70.36554,-44.53285
-6.3065352,3.4692597,-10.712598,8.962325,-80.35817,-48.340378
-6.1333666,2.8996966,-11.183582,18.214457,-93.1073,-51.249504
-5.7224703,2.3031983,-11.587504,28.492317,-105.89844,-54.01713
-5.1678414,1.6954409,-11.90837,39.94767,-117.91045,-56.18466
-4.538441,1.1298828,-12.124027,53.10972,-128.62866,-58.4091
-3.8092616,0.6569414,-12.169482,68.18524,-137.92099,-60.605515
-2.9510005,0.3562356,-11.98026,85.391106,-145.35356,-61.777546
-1.9519427,0.35126126,-11.457349,101.76368,-150.67996,-61.33066
-1.0134766,0.52850515,-10.773889,115.85845,-154.07622,-59.313305
-0.14889444,0.82963234,-9.9771805,127.04943,-155.66301,-56.94243
0.68772656,1.1555005,-9.126709,135.83897,-155.55959,-54.16079
1.5257905,1.4739603,-8.248804,141.95702,-153.3468,-49.633583
2.3093035,1.7977836,-7.3645844,146.38559,-149.72827,-44.299065
3.0389833,2.170705,-6.4741516,149.34332,-144.82797,-39.439716
3.8034692,2.621612,-5.5284443,150.45935,-137.68578,-35.38745
4.5145245,3.0832834,-4.5964932,149.36867,-128.72958,-31.02397
5.073379,3.501714,-3.7514608,145.41884,-118.14663,-26.36419
5.5193553,3.8283987,-3.0626152,140.17647,-107.05277,-21.851696
5.880595,4.0820956,-2.5256774,133.75064,-95.056076,-17.390759
6.1266365,4.2578354,-2.1430686,127.01042,-82.53589,-13.406281
6.3050914,4.369768,-1.8831722,120.25388,-69.23562,-10.426821
6.474019,4.455134,-1.7122457,112.68515,-53.929092,-8.048618
6.511981,4.553433,-1.7072309,105.31863,-39.598064,-6.039813
6.4451876,4.633377,-1.7748566,98.36061,-27.558725,-4.2958403
6.3841033,4.7238345,-1.859148,91.45924,-16.905514,-2.8639343
6.3465457,4.8122687,-1.9759585,84.738304,-6.1917644,-2.3094485
6.2997494,4.8740892,-2.141149,78.8873,5.6850114,-3.5069742
6.183833,5.0059347,-2.3386896,72.43392,16.78852,-4.512407
5.9915257,5.1714926,-2.5785513,64.84568,26.11299,-5.005247
5.73176,5.326088,-2.869799,56.447594,33.161694,-5.3954306
5.4712744,5.4462767,-3.1938884,47.944828,38.524,-6.302867
5.2487445,5.5304446,-3.5255723,39.798275,42.43718,-7.599432
5.0850024,5.604108,-3.8448758,31.88131,45.61775,-8.603232
4.920182,5.659542,-4.169969,24.288473,47.960907,-8.961454
4.7296095,5.694194,-4.500348,17.210386,49.670647,-9.030709
4.505617,5.7151175,-4.8255296,10.814408,50.732796,-9.180348
4.267559,5.7298474,-5.132909,5.324952,51.086555,-9.713956
4.0028367,5.7474556,-5.421673,0.54856575,50.78107,-10.825958
3.7360737,5.7705913,-5.6860514,-3.6214192,49.9228,-12.742694
3.4696918,5.7841406,-5.9405303,-7.125046,48.376797,-15.435923
3.211214,5.789357,-6.178149,-9.973024,46.15511,-18.780233
2.96348,5.8011494,-6.382599,-12.321016,43.025684,-22.788849
2.6981244,5.8136296,-6.55512,-14.4107065,39.0252,-27.237299
2.42799,5.812673,-6.6929207,-16.27821,34.09406,-32.256817
2.1683085,5.7974496,-6.7778096,-18.160805,28.461088,-37.727173
1.9222592,5.7807055,-6.787257,-20.543583,21.935633,-43.679543
1.7572767,5.7232265,-6.7521353,-23.795422,14.137713,-50.111725
1.8200089,5.5288787,-6.6389794,-27.504711,6.411361,-56.2231
2.0559733,5.1855216,-6.49904,-31.047958,-0.64576143,-61.11949
2.411843,4.7567496,-6.3084445,-33.78632,-6.223795,-64.9093
2.7927873,4.319077,-6.0527663,-35.912464,-10.398821,-67.72945
3.1439602,3.8831623,-5.7467256,-38.088535,-13.482955,-68.73921
3.4426992,3.4133604,-5.441485,-40.00652,-15.660233,-68.80996
3.6851277,2.9490654,-5.1527386,-41.508682,-16.974768,-68.06949
3.859305,2.5265718,-4.8751917,-42.68147,-17.661377,-66.75437
3.984228,2.148763,-4.62088,-43.582268,-17.774553,-64.74208
4.051746,1.8179506,-4.399203,-44.040745,-17.239117,-62.24977
4.0484214,1.5397755,-4.222644,-43.873367,-16.275879,-59.853806
3.918909,1.4905169,-4.087558,-42.469826,-15.7552,-57.939037
3.7937503,1.442914,-3.9570131,-41.11346,-15.252024,-56.08863
3.6727793,1.396904,-3.8308363,-39.80248,-14.765684,-54.300137
3.5558388,1.3524269,-3.7088633,-38.535175,-14.295548,-52.57123
3.4427788,1.3094256,-3.5909376,-37.30993,-13.841013,-50.8997
3.333456,1.2678459,-3.4769104,-36.12518,-13.401503,-49.28342
3.227734,1.2276356,-3.3666387,-34.979454,-12.976468,-47.720375
3.1254828,1.1887454,-3.2599869,-33.87134,-12.565387,-46.20864
3.0265772,1.1511276,-3.156825,-32.799488,-12.167756,-44.746372
2.9308984,1.1147372,-3.0570288,-31.7626,-11.783098,-43.331814
2.8383322,1.0795306,-2.9604788,-30.759445,-11.410954,-41.96327
2.7487693,1.0454662,-2.8670619,-29.78884,-11.050884,-40.63913
2.6621053,1.0125045,-2.776668,-28.849648,-10.702469,-39.357845
2.5782394,0.9806069,-2.689193,-27.94078,-10.365303,-38.11793
2.4970756,0.9497371,-2.6045363,-27.061193,-10.039,-36.917965
2.4185212,0.9198597,-2.5226014,-26.209888,-9.7231865,-35.75658
2.3424873,0.890941,-2.4432955,-25.385899,-9.417508,-34.632458
2.2688887,0.8629486,-2.3665297,-24.588299,-9.121619,-33.544342
2.1976435,0.83585113,-2.2922184,-23.816202,-8.835192,-32.49102
2.1286724,0.8096187,-2.2202792,-23.068752,-8.557907,-31.471317
2.0618997,0.78422236,-2.1506329,-22.345125,-8.28946,-30.484118
1.9972521,0.7596344,-2.083203,-21.64453,-8.029558,-29.528336
1.9346592,0.7358278,-2.0179167,-20.966202,-7.7779155,-28.602934
1.8740534,0.71277696,-1.9547026,-20.309406,-7.5342617,-27.706907
1.815369,0.690457,-1.8934928,-19.673435,-7.2983327,-26.839289
1.7585433,0.6688439,-1.8342216,-19.057606,-7.069876,-25.99915
1.7035153,0.6479146,-1.7768255,-18.46126,-6.848647,-25.185589
1.6502265,0.62764674,-1.7212435,-17.88376,-6.63441,-24.397743
1.5986204,0.6080189,-1.6674165,-17.324497,-6.4269376,-23.634773
1.5486424,0.58901024,-1.6152877,-16.782877,-6.2260113,-22.895874
1.5002398,0.57060087,-1.5648022,-16.258331,-6.0314183,-22.180267
1.4533619,0.5527713,-1.5159068,-15.750308,-5.8429546,-21.487202
1.4079595,0.535503,-1.4685506,-15.258275,-5.6604233,-20.81595
1.3639852,0.5187778,-1.4226838,-14.781718,-5.483633,-20.165813
1.3213931,0.5025783,-1.378259,-14.320143,-5.3124003,-19.536112
1.2801392,0.4868878,-1.3352296,-13.873067,-5.146547,-18.926193
1.2401805,0.47168994,-1.2935513,-13.440028,-4.985901,-18.335426
1.2014759,0.456969,-1.253181,-13.020579,-4.8302965,-17.763197
1.163985,0.44270977,-1.2140768,-12.614286,-4.679572,-17.208916
1.1276697,0.42889762,-1.1761986,-12.220732,-4.5335736,-16.672012
1.0924923,0.41551825,-1.1395074,-11.839509,-4.39215,-16.151934
1.058417,0.40255803,-1.1039655,-11.470228,-4.2551565,-15.648145
1.0254085,0.3900036,-1.0695366,-11.112511,-4.1224523,-15.160132
0.9934332,0.37784213,-1.0361853,-10.765989,-3.993902,-14.687394
0.96245843,0.36606118,-1.0038775,-10.430311,-3.869374,-14.229448
0.93245256,0.35464877,-0.9725804,-10.105133,-3.7487414,-13.785828
0.903385,0.3435932,-0.9422619,-9.790123,-3.631881,-13.356078
0.87522614,0.33288327,-0.9128912,-9.4849615,-3.518674,-12.939764
0.84794736,0.32250807,-0.88443846,-9.189337,-3.409005,-12.536462
0.82152086,0.31245705,-0.85687476,-8.902949,-3.3027625,-12.145761
0.79591995,0.30272,-0.8301721,-8.625508,-3.199839,-11.767263
0.77111864,0.29328707,-0.80430347,-8.356731,-3.10013,-11.400589
0.74709165,0.28414866,-0.7792425,-8.096348,-3.0035346,-11.045362
0.72381485,0.27529556,-0.754964,-7.844094,-2.9099548,-10.701227
0.70126456,0.26671878,-0.7314433,-7.599713,-2.819296,-10.367833
0.679418,0.25840968,-0.70865655,-7.3629584,-2.731466,-10.044844
0.6582532,0.25035986,-0.6865809,-7.1335917,-2.646377,-9.731932
0.63774866,0.24256116,-0.665194,-6.9113812,-2.5639427,-9.428783
0.61788374,0.23500575,-0.6444742,-6.696102,-2.4840796,-9.135091
0.5986384,0.22768599,-0.6244006,-6.4875374,-2.4067078,-8.850558
0.5799933,0.2205945,-0.6049531,-6.285477,-2.3317485,-8.5749
0.5619296,0.21372415,-0.586112,-6.089718,-2.259127,-8.307837
0.544429,0.207068,-0.56785834,-5.9000616,-2.1887696,-8.049101
0.5274741,0.20061937,-0.55017376,-5.7163186,-2.1206055,-7.798431
0.5110477,0.19437176,-0.53304046,-5.538303,-2.0545664,-7.5555754
0.4951333,0.18831888,-0.5164412,-5.3658366,-1.9905858,-7.320289
0.47971493,0.18245466,-0.5003593,-5.1987453,-1.9285992,-7.0923367
0.46477708,0.17677319,-0.4847786,-5.036861,-1.8685445,-6.871488
0.45030472,0.17126878,-0.46968344,-4.880022,-1.8103611,-6.6575217
0.43628332,0.16593589,-0.45505863,-4.72807,-1.7539909,-6.4502225
0.4226988,0.16076915,-0.4408895,-4.5808525,-1.6993771,-6.2493825
0.40953752,0.15576339,-0.42716184,-4.4382215,-1.6464647,-6.0547996
0.39678627,0.1509136,-0.41386184,-4.3000345,-1.5952009,-5.866279
0.3844323,0.14621487,-0.40097618,-4.166152,-1.5455341,-5.683632
0.3724631,0.14166252,-0.38849196,-4.0364404,-1.4974145,-5.506674
0.36086679,0.13725199,-0.37639657,-3.9107692,-1.4507937,-5.3352284
0.34963167,0.13297883,-0.36467797,-3.7890127,-1.4056251,-5.1691227
0.3387465,0.12883875,-0.35332435,-3.6710482,-1.3618634,-5.008191
0.32820034,0.12482763,-0.34232435,-3.556758,-1.3194647,-4.8522716
0.31798264,0.12094144,-0.33166692,-3.4460273,-1.2783865,-4.7012086
0.30808318,0.11717627,-0.32134143,-3.3387449,-1.2385876,-4.5548496
0.29849198,0.11352836,-0.3113375,-3.234804,-1.2000281,-4.413049
0.28919947,0.109994054,-0.30164507,-3.1340995,-1.1626694,-4.2756643
0.28019634,0.106569804,-0.2922545,-3.0365312,-1.1264741,-4.1425576
0.2714736,0.10325219,-0.28315637,-2.942001,-1.0914059,-4.013596
0.26302242,0.10003788,-0.2743415,-2.8504148,-1.0574297,-3.88865
0.2548344,0.09692366,-0.26580113,-2.7616801,-1.0245115,-3.7675946
0.24690136,0.0939064,-0.2575267,-2.6757083,-0.9926182,-3.6503086
0.23921533,0.0909831,-0.24950989,-2.5924137,-0.961718,-3.5366745
0.23176861,0.088150814,-0.2417427,-2.5117123,-0.9317799,-3.4265785
0.22455375,0.08540671,-0.23421735,-2.4335237,-0.902774,-3.3199105
0.21756351,0.08274805,-0.2269263,-2.3577695,-0.87467116,-3.2165637
0.21079092,0.080172166,-0.21986224,-2.2843738,-0.8474433,-3.1164343
0.20422919,0.077676475,-0.21301812,-2.2132633,-0.82106316,-3.0194225
0.19787174,0.075258486,-0.20638709,-2.1443667,-0.7955043,-2.925431
0.19171223,0.07291578,-0.19996251,-2.0776153,-0.77074116,-2.8343658
0.18574448,0.07064601,-0.19373794,-2.0129416,-0.74674904,-2.7461357
0.17996252,0.0684469,-0.18770714,-1.9502817,-0.72350377,-2.6606524
0.17436056,0.066316254,-0.18186411,-1.8895724,-0.7009822,-2.5778306
0.168933,0.06425194,-0.17620298,-1.8307531,-0.6791618,-2.4975867
0.16367441,0.062251884,-0.17071809,-1.773765,-0.6580207,-2.4198413
0.15857953,0.060314097,-0.16540395,-1.7185509,-0.6375377,-2.344516
0.15364325,0.058436636,-0.16025524,-1.6650558,-0.61769235,-2.2715359
0.14886065,0.05661762,-0.15526682,-1.6132259,-0.59846485,-2.2008274
0.14422692,0.05485523,-0.15043369,-1.5630095,-0.5798359,-2.1323202
0.13973746,0.053147707,-0.14575101,-1.5143564,-0.56178683,-2.0659459
0.13538773,0.05149334,-0.1412141,-1.4672179,-0.54429966,-2.0016375
0.13117343,0.049890466,-0.13681844,-1.4215467,-0.52735686,-1.939331
0.1270903,0.048337493,-0.1325596,-1.3772973,-0.5109415,-1.8789642
0.12313429,0.046832863,-0.12843333,-1.3344253,-0.4950371,-1.8204767
0.11930142,0.04537507,-0.12443552,-1.292888,-0.47962782,-1.7638097
0.11558787,0.04396266,-0.12056216,-1.2526437,-0.46469823,-1.7089067
0.111989915,0.042594217,-0.11680936,-1.213652,-0.45023334,-1.6557127
