ax,ay,az,gx,gy,gz
-3.3145754,0.8654624,-5.9636908,-10.709188,-16.423786,-43.8904
-3.7030983,0.62653214,-6.546557,-11.219395,-25.58206,-45.138077
-3.9926233,0.39303437,-7.09382,-8.796815,-31.47691,-45.383656
-4.137397,0.14332218,-7.674303,-2.0859492,-39.161198,-46.002857
-4.109498,-0.105941206,-8.141863,4.7685156,-46.10245,-45.72942
-4.0035024,-0.3766924,-8.561899,11.484176,-53.038223,-43.616043
-3.906804,-0.6179454,-8.914878,18.565136,-58.997055,-39.786522
-3.9107244,-0.74236125,-9.225162,25.351818,-63.64806,-38.391693
-3.9810212,-0.9558162,-9.55129,33.020927,-68.65165,-39.14644
-3.9781666,-1.2289499,-9.833034,41.433407,-74.59084,-39.97725
-3.799902,-1.4851818,-10.00046,49.95108,-80.818474,-39.567375
-3.4861407,-1.7105428,-10.065639,58.25193,-86.9596,-37.47313
-3.0700657,-2.030684,-10.109518,67.287254,-91.97124,-35.30085
-2.639517,-2.331225,-10.1027975,76.96264,-97.22295,-33.214283
-2.0148194,-2.4387362,-9.845624,85.45017,-102.64717,-29.718466
-1.1713055,-2.3972096,-9.332001,91.11755,-106.8783,-23.834959
-0.3568693,-2.3613362,-8.747495,94.1838,-108.88816,-16.009466
0.26771766,-2.421555,-8.189842,97.18255,-109.66562,-8.38466
0.82056105,-2.415424,-7.5924177,100.40417,-109.98196,-1.1691202
1.3428566,-2.3081794,-6.9261947,102.87264,-109.331825,5.859177
1.767961,-2.1851707,-6.2840524,104.655266,-108.17643,12.713804
2.126917,-2.0806983,-5.6765733,106.7563,-106.24635,18.946234
2.5040014,-1.894685,-5.01472,108.92995,-103.245316,24.632818
2.8577554,-1.607135,-4.315511,110.867455,-99.13536,29.402756
3.1932864,-1.2321392,-3.5865934,111.84078,-94.050476,33.689514
3.4869266,-0.8179812,-2.866762,111.54109,-88.0453,37.593655
3.711075,-0.42174327,-2.2123933,110.06393,-81.31616,40.952198
3.8661342,-0.06208343,-1.6410999,108.145584,-74.20915,43.511734
4.0151296,0.28656548,-1.1273865,105.62533,-66.537224,45.128494
4.157479,0.61999714,-0.6817358,102.414246,-58.510227,45.951794
4.288123,0.92311305,-0.30470532,98.47104,-50.033043,46.361603
4.374338,1.198655,-0.013871701,93.55042,-41.110615,46.34274
4.4043803,1.4433151,0.15845215,88.70483,-32.110462,45.56775
4.3997946,1.6758667,0.24610884,84.22823,-23.13218,44.142544
4.353433,1.9094266,0.27243486,79.866875,-14.591969,42.113
4.2938843,2.1563509,0.2535701,75.27105,-6.5857854,39.70937
4.2246737,2.4150424,0.19276802,70.04177,0.6510986,37.041668
4.1147017,2.6869185,0.0689649,64.219444,7.0112023,34.377728
3.963166,2.939684,-0.11484073,57.73009,12.138166,31.639036
3.8000402,3.1515207,-0.34667337,50.952446,16.242739,28.716774
3.6472147,3.298171,-0.62517905,44.369843,19.367151,25.520294
3.4980195,3.4055629,-0.92907214,38.421356,21.540535,22.231554
3.3489516,3.5072086,-1.2285196,32.8315,23.053484,19.07961
3.1906595,3.5949893,-1.5247729,27.682354,23.891527,16.075254
3.0305772,3.6699617,-1.8090584,22.919415,24.27085,13.169083
2.876059,3.7478027,-2.0797582,18.313717,24.169767,10.456884
2.7373028,3.8334782,-2.3373246,13.622006,23.459816,7.930286
2.6171472,3.9096029,-2.5942729,8.767078,22.602858,5.345111
2.4701612,3.9319484,-2.875508,4.1335473,21.49718,2.6178632
2.3064308,3.9310346,-3.1615434,-0.02116554,19.818495,-0.260389
2.1390615,3.9220622,-3.428544,-3.6888,17.64526,-3.3456132
1.9807149,3.907192,-3.6621492,-6.967457,15.0681095,-6.803765
1.833165,3.862988,-3.859681,-10.035857,12.334063,-10.489319
1.6977139,3.776838,-4.028001,-12.741249,9.272363,-14.066811
1.5804515,3.6813695,-4.1369576,-15.240888,5.8574533,-17.292887
1.4752281,3.5942996,-4.1722374,-17.805628,2.3446715,-20.51904
1.3836077,3.494193,-4.155426,-20.531733,-1.5879645,-23.980797
1.3642845,3.3503466,-4.0667615,-23.345356,-5.532507,-27.229479
1.4078891,3.1689868,-3.9271727,-26.032282,-9.166255,-30.371748
1.5146338,2.9574268,-3.7436192,-28.574026,-12.231511,-33.15188
1.669976,2.7317262,-3.5298333,-31.24225,-14.780282,-35.09049
1.834783,2.492058,-3.3084986,-34.044468,-16.648607,-36.43131
2.0062058,2.220842,-3.097962,-36.759117,-17.8898,-37.40398
2.1737382,1.9305874,-2.9210732,-39.11627,-18.430794,-37.914047
2.3222632,1.6453757,-2.776737,-41.168625,-18.529028,-37.970642
2.4157887,1.3665283,-2.65807,-42.83738,-18.420113,-37.53339
2.4334538,1.0680162,-2.5465088,-43.73551,-18.076235,-37.0034
2.3064678,0.6630764,-2.444378,-42.324673,-17.749857,-37.41879
2.3575203,0.4430909,-2.286373,-40.832577,-17.650793,-37.905964
2.5106246,0.32842276,-2.0962832,-40.41803,-16.934206,-36.932743
2.5579185,0.22547132,-1.9649351,-40.56532,-15.996645,-35.020298
2.5184312,0.119100004,-1.8985162,-40.725178,-15.059131,-32.91513
2.429188,0.016848262,-1.8897356,-40.534775,-14.19719,-30.88343
2.317544,-0.06972997,-1.9012884,-39.88801,-13.423646,-29.220642
2.2141263,-0.1311958,-1.9080585,-39.02656,-12.76638,-27.60081
2.1222572,-0.17625192,-1.909006,-37.93451,-12.072681,-26.07648
2.0287066,-0.20624459,-1.9066033,-36.73529,-11.440181,-24.677155
1.9192812,-0.22859754,-1.9053209,-35.449795,-11.098132,-23.433226
1.8203799,-0.23634115,-1.8834118,-34.084682,-10.886617,-22.481937
1.7374798,-0.24187937,-1.8455963,-32.650185,-10.716565,-21.69616
1.673985,-0.25023162,-1.7958964,-31.13703,-10.494321,-20.956892
1.6245928,-0.25998324,-1.7353,-29.486261,-10.087112,-20.262564
1.5993758,-0.27527264,-1.6663963,-27.711895,-9.439534,-19.47344
1.5833935,-0.29415837,-1.5973142,-25.902384,-8.507628,-18.630978
1.571222,-0.31875446,-1.5284969,-24.022324,-7.1856246,-17.777138
1.5573357,-0.3460182,-1.4617229,-21.957071,-5.5896506,-17.086689
1.5431396,-0.38141888,-1.4003756,-19.56124,-3.6864042,-16.592587
1.494734,-0.36945444,-1.3564482,-18.947636,-3.570768,-16.072105
1.447869,-0.3578708,-1.313919,-18.353563,-3.4588125,-15.568191
1.4024936,-0.3466553,-1.2727414,-17.778372,-3.3504152,-15.080292
1.3585585,-0.33579585,-1.232871,-17.22144,-3.2454586,-14.607881
1.3160164,-0.3252807,-1.1942648,-16.682165,-3.14383,-14.150448
1.2748216,-0.31509855,-1.1568812,-16.159971,-3.04542,-13.707502
1.2349302,-0.30523857,-1.1206803,-15.654296,-2.9501233,-13.278569
1.1962996,-0.2956902,-1.0856235,-15.164604,-2.8578386,-12.863194
1.1588887,-0.28644332,-1.0516738,-14.690374,-2.768468,-12.460935
1.1226581,-0.2774882,-1.0187951,-14.231106,-2.6819167,-12.071365
1.0875696,-0.26881534,-0.98695284,-13.786315,-2.5980937,-11.6940775
1.0535864,-0.26041567,-0.9561135,-13.355535,-2.5169113,-11.328672
1.0206728,-0.2522804,-0.926245,-12.9383135,-2.438284,-10.97477
0.9887945,-0.24440102,-0.89731586,-12.534216,-2.36213,-10.631999
0.9579182,-0.23676932,-0.86929613,-12.14282,-2.2883697,-10.300002
0.92801195,-0.22937737,-0.84215665,-11.7637205,-2.2169268,-9.9784355
0.8990447,-0.22221752,-0.81586933,-11.396524,-2.1477268,-9.6669655
0.87098646,-0.21528234,-0.7904069,-11.040851,-2.0806985,-9.36527
0.8438083,-0.20856468,-0.76574314,-10.696333,-2.0157726,-9.073037
0.8174822,-0.20205764,-0.7418526,-10.362617,-1.9528822,-8.789966
0.79198104,-0.19575451,-0.71871066,-10.039357,-1.8919625,-8.515765
0.76727873,-0.18964882,-0.6962937,-9.726225,-1.8329512,-8.250154
0.7433499,-0.18373431,-0.67457867,-9.422896,-1.7757876,-7.992859
0.72017,-0.17800494,-0.6535433,-9.129063,-1.7204133,-7.743618
0.69771546,-0.17245482,-0.63316613,-8.844422,-1.6667717,-7.502176
0.6759633,-0.16707833,-0.6134264,-8.5686865,-1.614808,-7.2682858
0.6548914,-0.16186996,-0.5943039,-8.301573,-1.5644691,-7.04171
0.63447815,-0.15682441,-0.5757792,-8.0428095,-1.515704,-6.822217
0.6147029,-0.15193655,-0.5578335,-7.792134,-1.4684631,-6.6095843
0.5955456,-0.14720142,-0.5404485,-7.54929,-1.4226981,-6.4035954
0.5769867,-0.1426142,-0.5236066,-7.314033,-1.3783628,-6.204041
0.5590074,-0.13817026,-0.50729066,-7.086123,-1.3354121,-6.0107193
0.54158956,-0.13386507,-0.49148422,-6.8653297,-1.2938026,-5.823434
0.5247155,-0.1296943,-0.47617126,-6.6514297,-1.2534921,-5.6419954
0.5083681,-0.1256537,-0.46133626,-6.4442058,-1.2144399,-5.466221
0.49253088,-0.1217392,-0.44696423,-6.243449,-1.1766064,-5.2959313
0.47718784,-0.11794685,-0.43304065,-6.048957,-1.1399534,-5.130955
0.46232346,-0.11427282,-0.41955146,-5.8605323,-1.104444,-4.9711266
0.4479228,-0.11071339,-0.40648308,-5.6779857,-1.0700423,-4.816283
0.43397126,-0.10726498,-0.39382228,-5.5011325,-1.0367135,-4.66627
0.42045483,-0.10392412,-0.38155633,-5.329795,-1.0044241,-4.5209346
0.4073599,-0.10068743,-0.36967286,-5.1638,-0.97314155,-4.3801312
0.39467323,-0.09755166,-0.3581599,-5.00298,-0.9428344,-4.243718
0.38238207,-0.09451365,-0.34700587,-4.8471746,-0.91347206,-4.111558
0.37047407,-0.09157034,-0.33619955,-4.6962256,-0.8850251,-3.9835172
0.35893726,-0.08871877,-0.32573006,-4.549982,-0.8574648,-3.8594677
0.34776,-0.08595608,-0.31558686,-4.408296,-0.83076346,-3.7392845
0.33693108,-0.08327949,-0.30575982,-4.271026,-0.80489427,-3.6228466
0.32643962,-0.08068631,-0.29623896,-4.1380334,-0.77983123,-3.5100374
0.3162751,-0.078173935,-0.2870148,-4.0091853,-0.7555492,-3.4007435
0.30642724,-0.07573984,-0.27807805,-3.8843515,-0.7320237,-3.2948546
0.29688624,-0.07338158,-0.26941973,-3.7634072,-0.7092312,-3.192265
0.28764248,-0.07109679,-0.26103115,-3.646231,-0.68714875,-3.0928717
0.2786867,-0.06888318,-0.2529039,-3.5327048,-0.6657543,-2.9965746
0.27000988,-0.06673853,-0.24502984,-3.4227154,-0.64502627,-2.9032774
0.26160336,-0.06466068,-0.23740104,-3.316152,-0.6249439,-2.8128862
0.25345868,-0.06264756,-0.23000987,-3.212908,-0.6054871,-2.7253108
0.24556766,-0.060697135,-0.2228489,-3.1128795,-0.5866363,-2.6404629
0.23792244,-0.05880746,-0.21591097,-3.0159667,-0.56837267,-2.5582578
0.23051533,-0.056976635,-0.20918913,-2.9220722,-0.5506778,-2.4786127
0.22333889,-0.05520283,-0.20267662,-2.831102,-0.533534,-2.4014482
0.21638595,-0.053484265,-0.19636694,-2.7429645,-0.51692414,-2.3266869
0.20964953,-0.05181922,-0.19025373,-2.6575718,-0.5008315,-2.2542536
0.20312288,-0.050206024,-0.18433091,-2.5748384,-0.48524,-2.1840758
0.19679947,-0.048643064,-0.17859252,-2.4946814,-0.47013405,-2.1160836
0.19067298,-0.047128774,-0.1730328,-2.4170203,-0.45549846,-2.0502086
0.18473725,-0.045661636,-0.16764623,-2.3417773,-0.44131857,-1.9863846
0.17898634,-0.04424018,-0.16242737,-2.2688773,-0.42758024,-1.924548
0.1734145,-0.04286298,-0.157371,-2.1982472,-0.4142697,-1.8646369
0.16801614,-0.04152867,-0.15247208,-2.1298163,-0.40137354,-1.8065912
0.16278586,-0.040235896,-0.14772567,-2.063516,-0.38887894,-1.7503526
0.15771843,-0.038983375,-0.14312707,-1.9992799,-0.37677336,-1.6958652
0.15280877,-0.03776985,-0.13867162,-1.9370437,-0.36504468,-1.6430742
0.14805198,-0.036594108,-0.1343549,-1.8767452,-0.35368118,-1.5919267
0.14344327,-0.035454974,-0.13017257,-1.8183241,-0.34267145,-1.5423717
0.13897805,-0.0343513,-0.12612045,-1.7617218,-0.3320045,-1.4943595
0.13465184,-0.03328199,-0.122194484,-1.7068818,-0.3216696,-1.447842
0.13046032,-0.032245968,-0.11839075,-1.6537489,-0.3116565,-1.4027728
0.1263993,-0.031242201,-0.11470542,-1.6022702,-0.3019551,-1.3591065
0.12246469,-0.030269682,-0.111134835,-1.5523943,-0.29255575,-1.3167999
0.118652575,-0.029327441,-0.107675396,-1.5040709,-0.283449,-1.2758101
0.11495914,-0.02841453,-0.10432366,-1.4572519,-0.27462575,-1.2360965
0.11138068,-0.027530042,-0.10107627,-1.4118905,-0.2660772,-1.1976192
0.10791363,-0.026673086,-0.09792996,-1.3679411,-0.25779474,-1.1603397
0.1045545,-0.02584281,-0.09488161,-1.3253601,-0.24977012,-1.1242207
0.10129994,-0.025038378,-0.09192815,-1.2841045,-0.24199532,-1.0892262
0.0981467,-0.02425899,-0.08906663,-1.2441331,-0.23446254,-1.055321
0.09509162,-0.023503862,-0.08629419,-1.2054061,-0.22716425,-1.0224713
0.092131644,-0.022772243,-0.08360805,-1.1678846,-0.22009316,-0.99064416
0.089263804,-0.022063397,-0.081005536,-1.1315312,-0.2132422,-0.9598078
0.086485244,-0.021376617,-0.078484036,-1.0963094,-0.2066045,-0.92993134
0.08379317,-0.020711217,-0.07604102,-1.0621841,-0.20017341,-0.90098494
0.08118491,-0.02006653,-0.07367406,-1.0291209,-0.19394253,-0.8729396
