ax,ay,az,gx,gy,gz
-6.9864273,6.290057,-11.053738,-15.03741,0.27727526,-32.793026
-7.5108137,6.3457766,-11.817638,-19.999619,-23.846855,-42.81788
-7.627537,6.1196327,-12.342577,-21.268492,-45.924305,-44.404984
-7.682487,5.88079,-12.626903,-21.993736,-63.5046,-41.42372
-7.8633223,5.59,-13.006739,-20.966011,-78.227394,-37.778515
-8.13401,5.3555007,-13.457246,-16.70845,-93.24025,-35.516346
-8.296718,5.2699356,-13.858703,-10.83045,-110.13469,-35.10781
-8.316608,5.303371,-14.248303,-5.2969565,-126.75226,-36.509888
-8.224576,5.352684,-14.584758,1.8035927,-140.17615,-42.197155
-8.017007,5.346502,-14.933384,9.702881,-151.68108,-50.165966
-7.742311,5.267824,-15.304397,16.460686,-163.35672,-56.952583
-7.4669385,5.102597,-15.686021,20.72159,-178.7299,-60.716995
-7.0781364,4.719274,-15.9901705,22.98456,-196.03969,-61.61831
-6.4996886,4.2216697,-16.158772,24.732294,-213.35124,-62.1748
-5.6092362,3.573773,-16.138216,29.27061,-228.08853,-65.53318
-4.321955,2.8503454,-15.841573,38.206364,-239.03552,-70.622086
-2.670426,2.249223,-15.150785,50.34534,-244.46715,-74.22697
-0.5931489,1.8259579,-13.972768,61.58336,-246.06169,-74.73376
1.5538707,1.5653452,-12.550869,70.80413,-243.25941,-72.22938
3.4599278,1.4451623,-11.085371,78.00875,-236.4885,-68.012695
5.057201,1.4227998,-9.720377,83.91192,-226.71286,-62.45583
6.3681483,1.51238,-8.525851,88.83147,-213.68077,-56.487614
7.382881,1.6856792,-7.5143332,93.11371,-198.76677,-51.30416
8.209467,1.8929368,-6.655764,96.84544,-181.93631,-46.887783
8.821965,2.1356359,-5.951995,99.6631,-164.84196,-42.61275
9.193061,2.4118152,-5.36838,101.114105,-148.22925,-38.440605
9.394284,2.6637053,-4.88189,101.21676,-131.88385,-35.022297
9.510481,2.871803,-4.5045347,100.8157,-115.35689,-32.70242
9.609507,3.0659006,-4.208534,99.751816,-98.38519,-31.275736
9.675492,3.2762084,-3.9864748,97.600044,-81.48717,-30.161852
9.675099,3.514501,-3.8471353,93.911835,-65.36234,-28.950638
9.612231,3.7645965,-3.790287,87.68913,-50.802063,-27.032608
9.498523,4.0251074,-3.8344984,79.79273,-37.347034,-24.805155
9.347111,4.24888,-3.9751127,71.056816,-24.61496,-22.918629
9.155456,4.4196815,-4.2210126,62.43553,-12.729534,-21.587685
8.908114,4.5526648,-4.5326185,54.144382,-2.2250001,-20.7303
8.615175,4.67004,-4.873904,45.778175,6.236693,-19.553787
8.258159,4.7741184,-5.2470245,37.080738,12.812333,-17.648333
7.8368087,4.855153,-5.6585755,28.179487,16.978352,-14.526449
7.3541117,4.888642,-6.0850573,20.011816,19.022291,-11.497911
6.8787274,4.8660264,-6.489653,13.9991865,20.348928,-10.233034
6.4285913,4.817635,-6.839444,11.4543085,21.871872,-12.241452
6.0242186,4.807478,-7.0869613,10.348135,23.179876,-15.365624
5.6573277,4.846682,-7.261128,9.500935,24.030674,-18.541458
5.2928514,4.9088545,-7.400392,8.422838,24.178669,-21.432308
4.9087315,4.978881,-7.5225244,7.1523876,23.506027,-24.093792
4.500969,5.064036,-7.628539,5.5193205,21.793034,-26.988895
4.1130614,5.1547523,-7.7199244,3.6469562,19.622082,-30.12228
3.7790027,5.242963,-7.8084702,1.2855808,17.150988,-33.06158
3.4803715,5.3252845,-7.905828,-1.452331,14.450459,-35.66136
3.1854477,5.403421,-8.020878,-4.476747,11.219031,-38.096054
2.881967,5.486405,-8.134052,-8.308672,6.872612,-40.816067
2.5678072,5.563061,-8.237513,-12.708607,1.8982306,-43.76705
2.237282,5.6186743,-8.320519,-17.503471,-3.565241,-47.179638
1.8930434,5.6647654,-8.35734,-22.973293,-9.8102255,-50.999134
1.5763276,5.6876764,-8.343996,-29.426146,-17.223188,-55.151367
1.3864814,5.6583223,-8.290856,-37.676826,-26.37691,-59.260582
1.5499367,5.396653,-8.244816,-46.369507,-35.779972,-63.23732
2.019563,4.867974,-8.186669,-53.394905,-43.67175,-67.24906
2.7172217,4.2224793,-8.048279,-57.7452,-48.72644,-70.720634
3.4558616,3.6061122,-7.8121886,-60.40361,-51.36259,-72.642365
4.082143,3.0410955,-7.5445137,-61.918987,-52.538082,-72.49964
4.551948,2.522935,-7.270827,-62.91219,-53.059277,-71.00872
4.9012156,2.062172,-6.9924064,-63.48535,-52.89924,-68.514435
5.1339574,1.6585077,-6.7149224,-63.284763,-52.09468,-65.62862
5.2893023,1.3091767,-6.423117,-62.385494,-50.723763,-62.95301
5.3975186,1.0031445,-6.136284,-60.79301,-48.902546,-60.217617
5.4250784,0.7633371,-5.873087,-58.641216,-46.836308,-57.36568
5.3881245,0.6116568,-5.6216426,-56.056885,-44.15144,-54.572598
5.272913,0.53600013,-5.394014,-53.32744,-41.093185,-51.721157
5.095568,0.5131392,-5.1951423,-50.60926,-38.19901,-48.624638
4.8895783,0.5315126,-5.0164146,-48.02201,-35.52703,-45.225254
4.66836,0.5916706,-4.848453,-45.873047,-32.827065,-41.91112
4.4407907,0.6577442,-4.6989326,-44.234276,-30.012796,-38.90748
4.300111,0.6369075,-4.550075,-42.83298,-29.062021,-37.67493
4.1640344,0.6167527,-4.4060884,-41.477535,-28.142357,-36.48271
4.0323973,0.59725535,-4.266799,-40.16631,-27.252695,-35.329388
3.9050424,0.57839227,-4.1320415,-38.897743,-26.391977,-34.213585
3.78182,0.56014127,-4.001656,-37.670334,-25.559185,-33.133984
3.6625855,0.54248095,-3.8754904,-36.48265,-24.753347,-32.089325
3.547201,0.52539086,-3.7533984,-35.333317,-23.973528,-31.078394
3.4355338,0.50885135,-3.6352403,-34.221012,-23.218832,-30.100037
3.3274567,0.49284363,-3.5208807,-33.144466,-22.488401,-29.153131
3.2228477,0.47734955,-3.4101908,-32.102467,-21.781408,-28.236612
3.1215892,0.46235174,-3.3030462,-31.093842,-21.09706,-27.349447
3.0235684,0.44783342,-3.1993272,-30.117464,-20.434591,-26.490648
2.9286764,0.43377858,-3.0989194,-29.172256,-19.79327,-25.659262
2.836809,0.4201717,-3.0017116,-28.257172,-19.172388,-24.854376
2.7478652,0.4069979,-2.9075978,-27.371214,-18.57127,-24.075108
2.6617486,0.3942428,-2.8164752,-26.513414,-17.989256,-23.320606
2.5783656,0.3818926,-2.7282453,-25.682844,-17.425716,-22.590055
2.4976263,0.36993396,-2.6428125,-24.878609,-16.880047,-21.882668
2.419444,0.35835406,-2.5600855,-24.099844,-16.351656,-21.197683
2.3437355,0.34714052,-2.479976,-23.345716,-15.839984,-20.53437
2.2704194,0.3362814,-2.402398,-22.615423,-15.344483,-19.892021
2.1994185,0.32576516,-2.32727,-21.908192,-14.864628,-19.269955
2.1306577,0.3155807,-2.254512,-21.22327,-14.399912,-18.667513
2.0640643,0.30571726,-2.1840477,-20.55994,-13.949845,-18.084064
1.9995686,0.29616454,-2.115803,-19.917505,-13.513955,-17.518991
1.9371029,0.28691247,-2.0497062,-19.295292,-13.0917845,-16.971706
1.876602,0.27795145,-1.9856883,-18.692648,-12.682894,-16.441635
1.818003,0.2692721,-1.9236829,-18.108948,-12.286856,-15.9282255
1.7612449,0.2608654,-1.8636255,-17.543587,-11.903259,-15.430945
1.7062688,0.25272265,-1.8054537,-16.995975,-11.531708,-14.949279
1.653018,0.24483545,-1.7491074,-16.46555,-11.171815,-14.482728
1.6014373,0.23719563,-1.6945283,-15.951759,-10.823211,-14.03081
1.5514739,0.22979532,-1.6416605,-15.454078,-10.485536,-13.5930605
1.5030761,0.22262692,-1.5904493,-14.971992,-10.1584425,-13.169029
1.4561943,0.21568306,-1.5408424,-14.505007,-9.841595,-12.75828
1.4107804,0.20895663,-1.4927887,-14.052645,-9.534669,-12.360392
1.3667881,0.20244075,-1.4462391,-13.614442,-9.2373495,-11.974958
1.3241724,0.19612874,-1.401146,-13.18995,-8.949333,-11.601584
1.2828896,0.19001418,-1.3574636,-12.778736,-8.670326,-11.23989
1.2428977,0.18409082,-1.315147,-12.380382,-8.400044,-10.889506
1.2041562,0.17835264,-1.2741534,-11.994481,-8.138211,-10.5500765
1.1666254,0.1727938,-1.2344409,-11.62064,-7.884562,-10.221255
1.1302673,0.16740865,-1.1959693,-11.258481,-7.6388383,-9.902707
1.095045,0.16219172,-1.1586995,-10.907635,-7.40079,-9.594111
1.0609226,0.15713772,-1.1225938,-10.567746,-7.170177,-9.295153
1.0278659,0.15224154,-1.0876154,-10.23847,-6.946765,-9.005529
0.9958411,0.14749822,-1.0537289,-9.919475,-6.730327,-8.724948
0.96481586,0.14290294,-1.0209002,-9.6104355,-6.5206456,-8.453124
0.9347589,0.13845108,-0.98909616,-9.311041,-6.3175077,-8.189783
0.9056398,0.13413814,-0.9582844,-9.020989,-6.1207085,-7.93466
0.87742925,0.12995973,-0.9284339,-8.739985,-5.9300485,-7.6874957
0.85009867,0.12591168,-0.8995146,-8.467749,-5.7453365,-7.448042
0.8236205,0.1219899,-0.8714973,-8.204002,-5.5663857,-7.216057
0.7979681,0.11819041,-0.8443537,-7.948481,-5.3930154,-6.991306
0.7731156,0.1145094,-0.8180565,-7.7009277,-5.2250514,-6.7735634
0.7490379,0.11094316,-0.7925793,-7.461093,-5.0623245,-6.56261
0.725711,0.1074881,-0.7678963,-7.228735,-4.9046707,-6.3582335
0.7031112,0.10414075,-0.7439828,-7.0036206,-4.751931,-6.160228
0.68121576,0.10089774,-0.72081465,-6.785523,-4.603953,-5.968394
0.6600028,0.0977558,-0.69836855,-6.5742226,-4.460586,-5.782539
0.63945097,0.09471177,-0.67662203,-6.369508,-4.3216877,-5.6024766
0.61953956,0.09176261,-0.65555316,-6.171172,-4.187118,-5.428025
0.6002486,0.08890534,-0.63514084,-5.979017,-4.056741,-5.2590094
0.5815587,0.08613711,-0.6153645,-5.7928486,-3.9304268,-5.09526
0.5634511,0.083455116,-0.59620434,-5.6124806,-3.8080478,-4.9366126
0.5459077,0.08085668,-0.57764107,-5.437732,-3.6894815,-4.7829075
0.52891076,0.0783392,-0.55965614,-5.2684274,-3.574609,-4.633991
0.5124433,0.07590014,-0.54223144,-5.104397,-3.4633148,-4.489713
0.4964888,0.073537044,-0.52534956,-4.945476,-3.3554873,-4.34993
0.48103127,0.07124757,-0.50899345,-4.791505,-3.2510188,-4.2145004
0.46605518,0.0690294,-0.49314684,-4.6423297,-3.1498039,-4.083289
0.45154557,0.066880316,-0.47779375,-4.497801,-3.0517414,-3.9561648
0.4374878,0.06479816,-0.46291885,-4.357773,-2.956733,-3.8329995
0.42386788,0.06278086,-0.4485072,-4.222106,-2.8646836,-3.71367
0.4106721,0.060826376,-0.43454435,-4.0906644,-2.7755008,-3.5980568
0.39788726,0.05893276,-0.42101634,-3.9633157,-2.6890953,-3.486044
0.38550055,0.057098113,-0.40790957,-3.839933,-2.6053805,-3.3775191
0.37349957,0.055320594,-0.39521098,-3.7203922,-2.5242727,-3.2723737
0.3618723,0.053598426,-0.3829078,-3.604574,-2.4456904,-3.1705027
0.35060704,0.051929884,-0.3709877,-3.492362,-2.369555,-3.0718033
0.33969256,0.050313298,-0.35943878,-3.383644,-2.2957902,-2.9761775
0.32911795,0.048747044,-0.34824947,-3.2783113,-2.2243223,-2.8835292
0.31887257,0.04722956,-0.3374085,-3.176258,-2.1550796,-2.7937655
0.3089462,0.04575932,-0.32690513,-3.0773826,-2.087993,-2.7067966
0.29932886,0.04433486,-0.31672877,-2.9815853,-2.0229948,-2.6225357
0.290011,0.042954747,-0.30686924,-2.8887708,-1.9600204,-2.540898
0.2809832,0.041617606,-0.29731667,-2.798846,-1.8990067,-2.4618022
0.2722365,0.04032209,-0.2880615,-2.7117207,-1.8398926,-2.3851688
0.2637621,0.039066914,-0.2790945,-2.6273081,-1.782619,-2.3109214
0.25555152,0.037850812,-0.27040663,-2.5455234,-1.7271284,-2.2389853
0.24759656,0.03667257,-0.26198927,-2.4662848,-1.6733654,-2.1692889
0.23988926,0.035531007,-0.25383395,-2.3895133,-1.621276,-2.1017623
0.2324219,0.034424987,-0.2459325,-2.3151317,-1.5708084,-2.0363379
0.22518702,0.033353396,-0.23827706,-2.2430656,-1.5219119,-1.9729502
0.21817735,0.032315165,-0.23085994,-2.173243,-1.4745375,-1.911536
0.2113859,0.03130926,-0.2236737,-2.1055942,-1.428638,-1.8520335
0.2048059,0.030334663,-0.2167112,-2.0400512,-1.3841673,-1.7943834
0.19843072,0.029390408,-0.20996542,-1.9765487,-1.3410811,-1.738528
0.19225399,0.02847555,-0.20342965,-1.915023,-1.2993362,-1.6844114
0.18626955,0.027589168,-0.19709735,-1.8554126,-1.2588907,-1.6319793
0.1804714,0.026730381,-0.19096215,-1.7976578,-1.2197044,-1.5811796
0.17485376,0.025898326,-0.18501794,-1.741701,-1.1817378,-1.5319612
0.16941099,0.025092173,-0.1792588,-1.687486,-1.1449531,-1.484275
0.16413763,0.024311116,-0.1736789,-1.6349587,-1.1093136,-1.4380732
0.15902844,0.023554372,-0.16827272,-1.5840666,-1.0747834,-1.3933095
0.15407829,0.022821184,-0.16303481,-1.5347587,-1.0413282,-1.3499393
