ax,ay,az,gx,gy,gz
-0.17818344,0.51364106,-6.211875,193.7054,66.639694,-68.35971
-0.22574273,1.3018885,-7.2148976,206.85951,51.580627,-75.39726
-0.004457218,2.1104856,-7.4085073,175.51355,26.686308,-74.8785
0.3995873,2.3752484,-7.3848815,142.64725,6.182614,-72.65503
0.8078987,2.3483655,-7.3193984,109.50402,-7.2125406,-67.448074
1.0447315,2.02229,-7.564423,84.57429,-18.170034,-61.92235
1.1094253,1.5855032,-8.061053,69.741745,-29.63688,-57.588104
1.1673038,1.2310628,-8.544106,62.473274,-43.51529,-53.41926
1.3024048,1.0641042,-8.823583,57.11719,-56.697342,-49.815212
1.4397869,1.0010357,-8.986415,50.900726,-68.722824,-46.44419
1.5492187,0.95765936,-9.116308,44.06358,-79.932755,-43.398735
1.5995995,0.8569757,-9.275838,40.04655,-91.44008,-41.16894
1.6117367,0.7748872,-9.376539,38.61722,-104.787384,-39.26307
1.6818746,0.7655866,-9.283709,37.335556,-117.70044,-37.263947
1.8288585,0.7882383,-9.06917,35.42534,-129.58621,-35.078342
2.0346484,0.8072216,-8.735535,33.729168,-140.7041,-33.09504
2.2855637,0.85870856,-8.244015,31.413832,-151.21191,-30.990805
2.5637338,0.91429436,-7.5920596,28.197445,-160.06319,-29.618055
2.8611887,0.8586925,-6.7808795,25.106222,-166.48517,-28.943542
3.1273344,0.6634577,-5.9274116,23.84862,-169.93542,-28.663631
3.3326375,0.4511803,-5.04963,24.265999,-171.43025,-27.874447
3.4839804,0.32818112,-4.1357365,24.995842,-171.60222,-26.46907
3.6041489,0.24317072,-3.1935515,26.058216,-169.3377,-25.136274
3.6633604,0.15060537,-2.2234547,27.272121,-165.1925,-23.545246
3.7647905,0.15436733,-1.1372241,28.293505,-157.41435,-21.992918
3.7712612,0.2594343,-0.17645958,32.190357,-148.46523,-22.510265
3.6449933,0.38823736,0.6144627,33.348976,-141.00525,-21.526905
3.505684,0.50043166,1.3033353,32.6255,-133.18669,-19.50542
3.4328332,0.604154,1.9091008,30.778942,-123.818665,-17.34859
3.4012294,0.6850952,2.3899713,29.953894,-113.22217,-16.70398
3.3822517,0.6888186,2.7680078,29.595535,-101.87998,-16.330667
3.3811023,0.6740151,3.067764,29.315166,-90.53501,-15.892175
3.4051106,0.6474408,3.306937,27.778006,-79.388336,-14.616188
3.474576,0.5744073,3.4762597,25.942673,-68.46053,-12.789636
3.5910592,0.48258513,3.6032794,24.238325,-57.391983,-10.583967
3.7277439,0.40544647,3.6786227,22.683155,-45.966785,-8.062424
3.8520756,0.36295506,3.6764812,21.425858,-34.23014,-5.518249
3.94524,0.35312805,3.5911067,20.95588,-22.517717,-3.1610696
4.011304,0.3956199,3.4187884,20.896461,-11.405207,-1.086495
4.0647883,0.467778,3.192308,20.815306,-0.9942009,0.7007469
4.1071568,0.556164,2.9251351,20.589806,8.769421,2.213392
4.1360993,0.6575656,2.6293378,20.173063,17.893349,3.4629457
4.146941,0.78954387,2.318212,19.358028,26.027668,4.3707566
4.1427817,0.9718376,1.9939282,18.30069,33.175972,4.558898
4.143174,1.1954292,1.6844525,16.602701,39.36788,3.8417673
4.1540103,1.4310881,1.3814871,14.208096,44.78269,2.3529854
4.169024,1.6401827,1.0692044,11.36874,49.525433,0.013390489
4.1765347,1.7958201,0.7275909,8.694958,53.321915,-3.3385508
4.1726637,1.9083377,0.35999927,6.332116,56.27766,-7.111962
4.161792,1.996478,-0.012035052,4.143236,58.3945,-11.162706
4.136807,2.0634105,-0.3845855,1.96141,59.60546,-15.352084
4.099627,2.1068928,-0.75404745,-0.18769872,59.899246,-19.681417
4.0522013,2.1236334,-1.1198543,-2.0308156,58.993137,-24.315144
3.990459,2.0939088,-1.474639,-3.469666,57.233902,-29.136068
3.9205775,2.018679,-1.8141763,-4.244367,54.662537,-34.01027
3.8433022,1.9010395,-2.131248,-4.2533646,51.303604,-38.753353
3.754836,1.7466182,-2.421172,-3.4451463,47.368702,-43.235203
3.6510828,1.5589077,-2.6830869,-1.6580049,42.60583,-47.27907
3.5411797,1.3105245,-2.9108887,0.6353953,37.295734,-50.629723
3.4375272,1.0038018,-3.111606,3.3602605,31.474525,-52.857353
3.3463972,0.6457236,-3.2853339,6.5183744,25.206305,-53.55717
3.2784467,0.2637331,-3.4114468,9.720179,18.319098,-52.40537
3.2447245,-0.10433017,-3.471318,11.848067,10.375379,-48.68395
3.2627575,-0.43762454,-3.4152355,12.404788,2.101876,-43.205715
3.3005059,-0.74564105,-3.2981136,11.654169,-6.0289483,-36.450603
3.3386352,-1.0276026,-3.1532016,10.564638,-13.696054,-28.877592
3.3678105,-1.2679433,-2.9963202,10.466646,-20.69601,-21.150927
3.4094687,-1.4308102,-2.8098357,12.703325,-26.805418,-13.808246
3.469144,-1.4097058,-2.5203626,15.7536955,-32.046703,-7.0612917
3.5291188,-1.2408422,-2.1398768,18.840197,-36.279636,-1.2290759
3.5736907,-0.9551171,-1.6955566,21.143702,-39.423187,3.565423
3.5755446,-0.6044714,-1.24455,22.382977,-41.612404,7.164514
3.539804,-0.24249016,-0.8195341,22.125736,-42.39002,9.530218
3.4660718,0.08695327,-0.46179917,20.97492,-42.334805,11.152105
3.3771782,0.38207638,-0.17612426,19.088469,-41.422928,11.931881
3.28151,0.6227017,0.037957333,16.906414,-39.918945,11.855589
3.184727,0.80072325,0.18650763,14.745375,-37.96236,11.150855
3.0880604,0.9235262,0.27476573,12.80308,-35.735947,10.066177
2.9915326,0.9945078,0.30020624,11.276269,-33.487423,8.777856
2.9009979,1.040397,0.29572272,10.124058,-31.579124,7.4985347
2.809606,1.0076208,0.2864064,9.805114,-30.584269,7.262304
2.7211587,0.9759006,0.2773902,9.496446,-29.621466,7.0336843
2.635555,0.94520015,0.2686639,9.1977005,-28.689615,6.8124146
2.5526981,0.9154848,0.26021764,8.908543,-27.787668,6.598245
2.4724948,0.8867212,0.25204188,8.628645,-26.914608,6.390935
2.3948562,0.8588773,0.24412751,8.3576975,-26.069464,6.1902533
2.3196957,0.83192223,0.23646578,8.095399,-25.251297,5.995978
2.2469308,0.80582625,0.22904827,7.8414598,-24.459208,5.807894
2.176482,0.78056085,0.22186682,7.5956035,-23.692327,5.6257973
2.1082723,0.7560985,0.21491364,7.357561,-22.949823,5.4494877
2.0422277,0.7324127,0.20818116,7.127075,-22.230888,5.2787747
1.9782771,0.7094778,0.20166215,6.9038973,-21.534748,5.113475
1.9163519,0.68726933,0.1953496,6.6877875,-20.860653,4.9534097
1.8563858,0.66576344,0.18923676,6.4785147,-20.207886,4.7984085
1.7983149,0.6449372,0.18331712,6.275856,-19.57575,4.6483064
1.7420778,0.6247687,0.17758441,6.0795965,-18.963575,4.502944
1.6876148,0.6052364,0.17203255,5.8895288,-18.370712,4.3621674
1.6348687,0.58631986,0.1666557,5.7054524,-17.79654,4.2258286
1.5837841,0.5679991,0.16144821,5.5271745,-17.240452,4.0937843
1.5343074,0.55025506,0.15640464,5.354508,-16.701866,3.9658961
1.4863868,0.53306913,0.15151972,5.1872725,-16.180223,3.8420308
1.4399726,0.51642346,0.14678833,5.025294,-15.674977,3.722059
1.3950167,0.5003007,0.1422056,4.868404,-15.185603,3.6058562
1.3514721,0.48468414,0.13776673,4.7164397,-14.711596,3.4933016
1.3092941,0.46955764,0.13346718,4.569245,-14.252461,3.3842795
1.268439,0.45490563,0.12930249,4.4266667,-13.80773,3.2786767
1.2288648,0.44071296,0.12526836,4.288558,-13.37694,3.1763847
1.1905307,0.42696503,0.121360645,4.154778,-12.95965,3.0772984
1.1533974,0.41364774,0.11757534,4.025188,-12.555431,2.9813156
1.1174269,0.40074748,0.11390856,3.899656,-12.16387,2.8883386
1.0825821,0.38825098,0.110356554,3.778053,-11.784564,2.7982714
1.0488278,0.3761455,0.10691569,3.6602552,-11.417127,2.7110229
1.0161293,0.3644187,0.10358246,3.546142,-11.061184,2.6265032
0.9844532,0.35305858,0.10035346,3.4355974,-10.716371,2.5446265
0.9537674,0.3420536,0.097225405,3.3285086,-10.382338,2.4653096
0.9240407,0.3313926,0.09419511,3.2247665,-10.0587435,2.3884716
0.89524275,0.32106465,0.0912595,3.1242661,-9.745261,2.3140342
0.86734444,0.3110594,0.08841559,3.026905,-9.441571,2.2419224
0.8403174,0.30136657,0.08566051,2.9325848,-9.147366,2.1720629
0.81413436,0.29197642,0.08299145,2.8412097,-8.862348,2.1043844
0.7887687,0.28287944,0.08040572,2.7526875,-8.586226,2.038819
0.76419485,0.2740664,0.0779007,2.666928,-8.318725,1.9753001
0.74038786,0.26552838,0.07547386,2.5838451,-8.059571,1.9137635
0.71732366,0.2572568,0.07312274,2.5033545,-7.808504,1.854147
0.69497913,0.24924327,0.07084497,2.4253752,-7.56527,1.7963905
0.67333156,0.24147972,0.06863826,2.3498285,-7.3296227,1.7404356
0.6523592,0.23395832,0.06650037,2.276638,-7.101326,1.686226
0.63204086,0.22667147,0.06442916,2.2057302,-6.880149,1.6337069
0.6123561,0.21961185,0.06242253,2.1370332,-6.6658683,1.5828255
0.59328514,0.21277234,0.060478464,2.0704782,-6.458269,1.5335307
0.5748087,0.20614606,0.05859501,2.0059981,-6.2571416,1.4857725
0.55690825,0.19972633,0.056770265,1.9435282,-6.0622845,1.4395032
0.53956574,0.19350672,0.0550024,1.8830054,-5.8735003,1.394676
0.5227637,0.18748094,0.053289633,1.8243688,-5.6906004,1.351246
0.50648534,0.18164296,0.051630244,1.7675598,-5.5134006,1.3091695
0.49071425,0.17598692,0.050022565,1.712521,-5.341723,1.2684042
0.4754346,0.1705071,0.048464984,1.6591972,-5.1753945,1.2289091
0.46063104,0.16519804,0.046955932,1.6075349,-5.014249,1.1906447
0.4462887,0.16005439,0.0454939,1.5574822,-4.8581233,1.1535724
0.4323932,0.15507098,0.044077415,1.5089889,-4.7068624,1.1176552
0.41893056,0.15024282,0.04270506,1.4620063,-4.5603137,1.0828568
0.4058873,0.14556506,0.04137545,1.4164872,-4.4183297,1.0491425
0.39325035,0.14103302,0.04008726,1.3723861,-4.280769,1.0164783
0.38100702,0.13664214,0.0388392,1.3296586,-4.147493,0.9848316
0.369145,0.13238803,0.037630007,1.288262,-4.018368,0.9541705
0.35765246,0.12826641,0.036458477,1.2481548,-3.8932643,0.92446446
0.34651786,0.12427315,0.035323434,1.2092966,-3.7720573,0.8956836
0.33573002,0.120404266,0.03422374,1.1716486,-3.6546252,0.86779904
0.32527813,0.11665586,0.03315829,1.1351731,-3.54085,0.8407829
0.31515172,0.11302419,0.032126024,1.0998334,-3.430618,0.81460804
0.30534068,0.10950561,0.031125901,1.0655942,-3.3238187,0.7892483
0.29583514,0.106096596,0.030156923,1.0324214,-3.2203453,0.7646783
0.2866256,0.10279374,0.029218119,1.0002813,-3.1200936,0.74087334
0.2777028,0.09959372,0.028308546,0.96914214,-3.0229638,0.7178096
0.26905787,0.09649335,0.027427295,0.93897253,-2.9288583,0.6954641
0.2606821,0.09348951,0.026573483,0.90974236,-2.837683,0.67381424
0.2525671,0.090579204,0.025746256,0.8814223,-2.7493465,0.6528386
0.2447048,0.08775951,0.024944786,0.85398394,-2.6637604,0.63251597
0.23708728,0.085027605,0.024168268,0.8273999,-2.5808392,0.6128261
0.22970693,0.08238076,0.023415929,0.80164355,-2.5004995,0.5937493
0.22255635,0.07981632,0.02268701,0.7766891,-2.422661,0.57526636
0.21562842,0.07733172,0.021980789,0.75251156,-2.3472462,0.5573589
0.20891616,0.07492448,0.021296551,0.72908676,-2.2741792,0.540009
0.20241286,0.07259218,0.020633617,0.7063913,-2.203387,0.52319926
0.19611204,0.07033248,0.019991323,0.6844023,-2.1347988,0.50691277
0.19000737,0.068143144,0.019369025,0.6630979,-2.0683455,0.49113336
0.18409276,0.06602196,0.018766098,0.64245677,-2.0039616,0.4758452
0.17836227,0.06396681,0.018181942,0.6224582,-1.9415816,0.46103296
0.17281018,0.06197564,0.017615972,0.60308224,-1.8811438,0.44668186
0.16743094,0.060046457,0.01706762,0.58430946,-1.8225874,0.43277752
0.16221914,0.058177333,0.01653634,0.56612104,-1.7658539,0.419306
0.1571696,0.05636639,0.016021598,0.54849887,-1.7108865,0.4062539
0.15227725,0.05461183,0.01552288,0.5314253,-1.6576303,0.3936081
0.1475372,0.052911885,0.015039687,0.5148832,-1.606032,0.38135594
0.14294471,0.05126486,0.014571536,0.49885607,-1.5560399,0.3694852
0.13849516,0.0496691,0.014117959,0.48332787,-1.507604,0.357984
0.13418415,0.048123024,0.0136785,0.46828303,-1.460676,0.34684083
0.13000733,0.046625074,0.013252722,0.45370653,-1.4152087,0.33604452
0.12596053,0.04517375,0.012840198,0.43958378,-1.3711568,0.3255843
0.12203969,0.04376761,0.012440516,0.42590067,-1.3284762,0.31544968
