ax,ay,az,gx,gy,gz
0.58273256,0.117273785,-8.412804,103.37185,77.07161,-17.47834
0.61525977,0.19576038,-9.2700615,117.86462,61.084423,-24.185404
0.6345658,0.41559064,-9.81393,117.34994,33.296543,-28.736742
0.6760446,0.48839873,-10.222775,115.68159,6.019698,-32.041462
0.83151436,0.45615888,-10.353635,112.57072,-18.422543,-34.42623
1.081981,0.3164591,-10.295278,106.71871,-38.36299,-33.163174
1.3059227,0.16952722,-10.204749,98.464836,-53.585857,-28.656393
1.4479346,0.11391674,-10.180904,86.91191,-67.952225,-21.319983
1.5218054,0.15439919,-10.263435,75.67928,-82.16781,-14.243264
1.6037291,0.24594016,-10.351712,65.644394,-96.28047,-8.539403
1.7304223,0.3800756,-10.372073,56.6862,-109.724846,-4.401021
1.8847723,0.52911407,-10.315809,48.258335,-122.28849,-1.4873189
2.0532203,0.6508777,-10.20808,39.951706,-133.9065,0.4961038
2.2011726,0.719879,-10.04847,32.154945,-144.14325,1.7006423
2.3239577,0.7326126,-9.864134,25.93796,-153.0248,1.8565502
2.4261818,0.7050763,-9.647908,21.119917,-161.25583,1.3648747
2.5128956,0.6529345,-9.416923,17.15758,-168.99004,0.45541134
2.6165156,0.58602625,-9.133324,13.710018,-176.49628,-0.6941326
2.7877703,0.505,-8.671203,9.730221,-183.63347,-1.518835
2.9923515,0.37245178,-8.075895,5.1457477,-189.97801,-1.9482312
3.1925488,0.18553759,-7.402818,0.7302586,-195.20389,-2.0009863
3.3854637,-0.010806993,-6.643456,-2.8297656,-199.28279,-1.4252182
3.62045,-0.13334516,-5.745042,-5.7998495,-201.85826,-0.32029086
3.8931763,-0.21428528,-4.697717,-8.087415,-202.45844,0.578828
4.1390386,-0.3072847,-3.6284847,-9.060548,-200.36148,0.9533992
4.315469,-0.4106018,-2.6024055,-8.402975,-195.9033,0.96574897
4.420226,-0.4849595,-1.6606449,-6.796138,-189.94876,1.1036334
4.4754386,-0.50740224,-0.8099727,-4.899124,-182.68103,1.5492122
4.496392,-0.47814453,-0.049508475,-3.0874636,-174.66951,2.1790125
4.508572,-0.41554958,0.62793285,-1.5532787,-165.62851,2.785149
4.5142636,-0.3541499,1.1960654,0.18947257,-155.46523,2.970599
4.5252795,-0.31500092,1.6616274,2.1089206,-144.50284,2.7255447
4.541997,-0.31444058,2.021228,4.3108606,-132.64728,2.1181693
4.552912,-0.36919516,2.260797,6.574918,-120.44097,1.7605294
4.548566,-0.44033363,2.4296215,8.945886,-108.22603,1.8296355
4.549387,-0.4964054,2.5688128,10.712247,-96.057594,2.5732293
4.56227,-0.54461354,2.676727,12.525555,-83.84609,3.7017264
4.5764985,-0.56951743,2.7356722,14.418252,-71.60472,5.134971
4.593922,-0.56085116,2.7555285,16.449911,-59.510536,6.6277847
4.6262856,-0.50447226,2.7462945,18.243135,-47.349445,7.9566283
4.67432,-0.41741675,2.700556,19.9604,-34.87332,8.722645
4.7282586,-0.30871254,2.604043,21.304617,-22.524345,8.917688
4.783545,-0.19784695,2.4522362,22.359303,-10.461165,8.487709
4.8455315,-0.0749349,2.2427216,22.892475,0.95347965,7.755646
4.904384,0.050611164,1.9942247,23.105965,11.466972,6.8133984
4.955106,0.17822632,1.7147582,22.788734,20.986118,5.6540236
4.995831,0.31148463,1.406677,21.9158,29.430065,4.2875357
5.027185,0.45524454,1.0749937,20.362389,36.503204,2.4971702
5.0471582,0.6204917,0.72119653,18.488241,42.294365,0.09177176
5.057087,0.787014,0.35573304,16.48529,47.13887,-2.9264011
5.0566454,0.945262,-0.012458778,14.467713,51.144157,-6.5083942
5.0417557,1.0858434,-0.38464352,12.615851,54.360344,-10.552776
5.0083904,1.212629,-0.7626575,10.606014,56.35524,-15.008231
4.9509993,1.315556,-1.1460215,8.553972,57.255985,-19.665699
4.8738446,1.3941827,-1.5268562,6.586323,57.07587,-24.54021
4.777288,1.4451308,-1.8933744,4.681043,55.79252,-29.59582
4.6642585,1.4651195,-2.2407086,2.8271463,53.488235,-34.74407
4.533978,1.4425024,-2.5765743,1.3443006,50.077034,-40.100365
4.3681808,1.3533309,-2.89541,0.09801412,45.59961,-45.380432
4.1877217,1.20342,-3.187021,-0.9866933,40.11426,-50.22836
4.0072265,0.9809352,-3.4511013,-1.8210107,33.844948,-54.17576
3.8369377,0.68670285,-3.6893497,-2.1614437,26.877598,-56.899395
3.6796794,0.3377406,-3.8939447,-2.0758185,18.842695,-57.465046
3.5759935,-0.063203745,-4.030854,-1.7609307,10.142659,-56.178932
3.5417602,-0.4708454,-4.0905423,-1.606078,0.9361912,-52.941784
3.5710835,-0.87240666,-4.0718374,-1.5368804,-8.481218,-48.27085
3.6409776,-1.2574184,-3.9758587,-1.3624469,-17.670849,-42.584866
3.7492352,-1.62162,-3.8022811,-0.8033938,-25.669477,-35.792458
3.8627002,-1.9327958,-3.585323,0.7836395,-32.106873,-28.719612
3.9523757,-2.1674898,-3.3699808,3.3821452,-37.307087,-21.552568
4.006937,-2.3056905,-3.1639462,7.1728244,-41.856,-14.509657
4.0415645,-2.303443,-2.928088,11.50724,-46.257847,-7.446209
4.089178,-2.1195402,-2.603843,14.675033,-50.113003,-0.8565999
4.145562,-1.787336,-2.1623378,16.39315,-52.855877,4.8520007
4.1761465,-1.4117707,-1.7012075,16.937263,-53.884533,9.319438
4.171648,-1.0098879,-1.2645648,16.787575,-53.612495,12.634416
4.1396036,-0.62035745,-0.8743807,16.123749,-52.181995,14.74529
4.085041,-0.2802302,-0.5580977,15.502711,-49.381195,15.380286
4.0061216,0.0008666574,-0.34330156,14.905674,-46.01452,15.178074
3.917523,0.236356,-0.19640154,14.16439,-42.389248,14.387782
3.8240983,0.42713046,-0.107769325,13.247056,-38.717594,13.22307
3.7271988,0.58238745,-0.06987424,12.076836,-35.13735,11.894125
3.6224356,0.71144974,-0.07129383,10.617824,-31.883419,10.471596
3.5129228,0.81665903,-0.10335149,8.984964,-29.017883,9.073586
3.4025505,0.7910005,-0.100104295,8.702666,-28.10617,8.788504
3.295707,0.7661623,-0.09696092,8.429394,-27.22361,8.512536
3.1922743,0.742117,-0.09391789,8.1648445,-26.36922,8.2453785
3.092138,0.71883804,-0.09097185,7.9087276,-25.542065,7.986735
2.995189,0.6963,-0.08811957,7.6607623,-24.741234,7.7363234
2.9013214,0.67447835,-0.08535795,7.420678,-23.965857,7.493871
2.8104334,0.6533494,-0.082683995,7.188215,-23.215094,7.259115
2.7224271,0.63289034,-0.080094814,6.9631224,-22.488132,7.0318027
2.6372082,0.6130792,-0.07758764,6.745158,-21.784195,6.811689
2.554685,0.59389484,-0.07515978,6.53409,-21.10253,6.598539
2.4747703,0.57531685,-0.07280866,6.3296933,-20.442408,6.3921256
2.3973792,0.5573255,-0.07053178,6.13175,-19.80313,6.19223
2.3224292,0.5399017,-0.06832673,5.940052,-19.18402,5.998641
2.2498422,0.5230271,-0.06619119,5.7543964,-18.584427,5.811155
2.1795413,0.5066841,-0.064122915,5.5745893,-18.00372,5.629574
2.1114535,0.49085554,-0.06211974,5.400441,-17.441292,5.453708
2.0455072,0.4755248,-0.060179576,5.2317715,-16.896553,5.2833743
1.9816339,0.460676,-0.058300402,5.0684032,-16.368938,5.118395
1.9197671,0.44629368,-0.05648026,4.910167,-15.8579,4.9585986
1.8598429,0.4323629,-0.054717265,4.7569,-15.362906,4.803819
1.8017992,0.41886935,-0.0530096,4.608442,-14.883447,4.653897
1.745576,0.40579897,-0.051355492,4.4646406,-14.419024,4.5086775
1.6911155,0.39313838,-0.049753245,4.3253474,-13.969163,4.36801
1.6383616,0.38087454,-0.048201203,4.1904197,-13.533399,4.2317514
1.5872602,0.36899486,-0.046697784,4.059718,-13.111284,4.0997605
1.537759,0.35748714,-0.045241434,3.933109,-12.702388,3.971903
1.489807,0.34633964,-0.043830674,3.8104632,-12.30629,3.8480473
1.4433556,0.33554095,-0.042464055,3.6916547,-11.9225855,3.7280672
1.3983572,0.32508,-0.041140184,3.5765626,-11.550884,3.6118398
1.3547658,0.31494623,-0.03985771,3.4650695,-11.190805,3.499247
1.3125372,0.30512923,-0.03861533,3.357062,-10.841984,3.3901742
1.2716285,0.29561904,-0.03741178,3.2524302,-10.504064,3.2845101
1.231998,0.286406,-0.036245834,3.1510675,-10.1767025,3.1821477
1.1936053,0.2774808,-0.03511631,3.0528712,-9.859568,3.082983
1.1564119,0.26883432,-0.034022067,2.957742,-9.552338,2.9869153
1.1203798,0.26045784,-0.032961987,2.865583,-9.254701,2.8938475
1.0854726,0.25234285,-0.031935003,2.7763011,-8.966355,2.803685
1.0516549,0.24448118,-0.030940076,2.6898062,-8.687011,2.716337
1.0188926,0.23686485,-0.029976198,2.6060107,-8.416384,2.6317148
0.9871527,0.22948617,-0.029042397,2.5248296,-8.1542015,2.5497332
0.95640296,0.2223377,-0.028137729,2.4461813,-7.900199,2.470309
0.92661244,0.21541221,-0.027261281,2.3699865,-7.6541195,2.3933628
0.8977511,0.20870273,-0.02641217,2.296168,-7.4157157,2.3188162
0.86978984,0.2022025,-0.025589539,2.2246518,-7.1847463,2.2465947
0.8427005,0.19590496,-0.02479256,2.1553657,-6.9609795,2.176625
0.8164557,0.18980376,-0.02402043,2.08824,-6.7441893,2.108837
0.79102916,0.18389279,-0.02327237,2.0232067,-6.5341578,2.0431623
0.7663952,0.17816606,-0.02254763,1.9602007,-6.3306737,1.979535
0.74252915,0.17261784,-0.021845482,1.8991586,-6.133532,1.9178909
0.7194069,0.16724256,-0.021165216,1.8400191,-5.9425344,1.858168
0.6970053,0.16203478,-0.020506153,1.7827227,-5.7574897,1.8003064
0.67530173,0.15698929,-0.019867625,1.7272117,-5.5782113,1.7442479
0.65427446,0.15210102,-0.019248996,1.6734306,-5.404519,1.6899363
0.6339024,0.14736506,-0.018649641,1.6213251,-5.2362394,1.637317
0.614165,0.14277667,-0.018068962,1.570843,-5.073202,1.586337
0.5950425,0.1383312,-0.01750637,1.5219337,-4.9152446,1.5369452
0.5765158,0.13402425,-0.016961308,1.4745481,-4.7622075,1.4890921
0.55856615,0.12985145,-0.016433224,1.4286386,-4.613938,1.4427298
0.54117566,0.12580864,-0.015921589,1.3841591,-4.470287,1.3978117
0.52432686,0.121891744,-0.015425891,1.341065,-4.3311105,1.3542926
0.5080029,0.11809686,-0.014945633,1.2993133,-4.1962686,1.312129
0.4921873,0.11442016,-0.014480332,1.258862,-4.0656266,1.2712787
0.47686428,0.11085798,-0.014029523,1.2196705,-3.9390535,1.2317007
0.46201846,0.107406735,-0.013592754,1.1816995,-3.8164225,1.1933551
0.447635,0.10406297,-0.013169587,1.144911,-3.6976104,1.1562039
0.43369943,0.10082333,-0.012759598,1.1092683,-3.582498,1.1202095
0.42019784,0.09768458,-0.012362376,1.0747354,-3.4709706,1.085336
0.4071167,0.09464357,-0.011977524,1.0412779,-3.3629162,1.0515485
0.3944429,0.091697246,-0.0116046555,1.0088623,-3.2582264,1.018813
0.3821637,0.088842675,-0.011243397,0.9774559,-3.1567962,0.98709697
0.37026688,0.08607698,-0.010893389,0.9470275,-3.0585246,0.95636845
0.35874048,0.08339741,-0.010554277,0.9175466,-2.9633126,0.9265967
0.34757295,0.08080126,-0.010225724,0.88898355,-2.8710654,0.8977519
0.33675313,0.078285955,-0.009907402,0.8613098,-2.7816904,0.8698053
0.32627022,0.07584895,-0.00959899,0.83449775,-2.695098,0.84272873
0.31611365,0.07348783,-0.009300181,0.80852044,-2.6112015,0.81649524
0.3062733,0.07120022,-0.009010674,0.7833519,-2.529917,0.79107845
0.29673934,0.06898383,-0.0087301815,0.758967,-2.4511633,0.76645297
0.2875022,0.06683645,-0.008458422,0.73534125,-2.3748615,0.7425942
0.27855262,0.06475592,-0.008195122,0.71245104,-2.3009353,0.71947825
0.2698817,0.062740155,-0.0079400195,0.6902734,-2.2293103,0.69708186
0.2614807,0.060787152,-0.0076928586,0.6687863,-2.1599154,0.6753828
0.25334123,0.058894947,-0.0074533923,0.64796805,-2.0926807,0.6543592
0.24545515,0.05706165,-0.007221381,0.62779796,-2.0275393,0.63399017
0.23781459,0.055285428,-0.006996593,0.60825574,-1.9644257,0.61425525
0.23041187,0.053564496,-0.0067788027,0.5893219,-1.9032769,0.5951347
0.22323962,0.051897142,-0.006567792,0.5709775,-1.8440317,0.5766093
0.21629064,0.050281692,-0.0063633504,0.5532042,-1.7866309,0.5586606
0.20955797,0.04871653,-0.006165273,0.5359841,-1.7310169,0.54127073
0.2030349,0.047200095,-0.005973362,0.5193001,-1.6771342,0.5244222
0.19671488,0.045730863,-0.0057874247,0.5031355,-1.6249288,0.5080981
0.19059162,0.04430737,-0.0056072758,0.48747408,-1.5743486,0.49228224
0.18465896,0.04292819,-0.0054327347,0.47230017,-1.525343,0.47695866
0.17891097,0.04159194,-0.005263627,0.45759863,-1.4778627,0.46211213
0.17334193,0.040297285,-0.0050997837,0.44335473,-1.4318606,0.44772774
0.16794623,0.039042935,-0.00494104,0.42955422,-1.3872904,0.4337911
