ax,ay,az,gx,gy,gz
-3.7327611,0.2127292,-7.186429,26.633879,-90.99901,28.187529
-3.7371633,0.13852938,-7.5631104,-3.5340457,-130.17365,31.129936
-3.1463633,-0.18157595,-7.1849704,-13.437774,-150.27759,31.701315
-2.4522445,-0.4722664,-6.7181296,-15.258219,-153.17401,30.97832
-1.7409016,-0.93707114,-6.428259,-13.174999,-150.33672,29.43018
-1.229554,-1.5286858,-6.2347584,-7.0452533,-146.54771,29.30719
-0.86081046,-2.0829406,-5.993013,3.0637264,-140.58003,31.492317
-0.6913113,-2.471255,-5.785286,12.994868,-134.97887,35.872105
-0.6862171,-2.7464433,-5.5792904,22.204199,-131.55138,43.305424
-0.66846955,-2.8985927,-5.284855,30.16414,-129.82697,52.52925
-0.54362345,-2.9727845,-4.9106483,36.863716,-129.02377,62.966732
-0.28080258,-2.982194,-4.4513097,43.25803,-127.525505,74.18467
0.10422086,-2.7726233,-3.9034276,48.0446,-124.30895,85.55374
0.5662786,-2.2555487,-3.2773619,48.13547,-118.33082,95.56234
0.98866165,-1.5460148,-2.6393843,44.83179,-111.52311,102.99823
1.2707962,-0.9710193,-2.0851028,40.203415,-104.805466,107.91226
1.4778308,-0.5079533,-1.583183,36.27347,-97.439384,111.0128
1.6311386,-0.055949844,-1.1634995,31.88842,-90.13246,112.74622
1.7745937,0.3747853,-0.79075664,26.243032,-82.458374,113.08924
1.9414731,0.79140925,-0.4503065,19.678434,-74.1674,112.46665
2.133335,1.1682837,-0.1610352,13.665371,-64.613045,110.6672
2.2769096,1.4888209,-0.0011984819,8.610574,-55.542877,107.74947
2.326247,1.7325305,0.05080697,3.0451202,-48.137875,103.562935
2.3145373,1.8678066,0.049013,-1.6696895,-41.69232,98.1226
2.269498,1.9400748,0.002908672,-5.650971,-35.841496,92.69242
2.2186637,2.0122042,-0.055743977,-9.778735,-30.60163,87.614685
2.1816666,2.0750077,-0.10924774,-13.298654,-25.50534,82.99631
2.1239948,2.158655,-0.2154133,-16.572803,-21.933739,78.21633
2.0723183,2.1996236,-0.30380568,-19.659803,-19.512009,73.29726
2.0258381,2.197276,-0.37784007,-22.39262,-17.709677,68.431564
1.9849268,2.1839705,-0.4242314,-24.94342,-16.432745,63.81792
1.97077,2.1755083,-0.4133987,-26.809324,-14.875013,59.59704
1.9799839,2.1906958,-0.37656373,-28.06428,-12.599158,55.765858
1.9708034,2.2286148,-0.36397156,-29.110926,-10.539412,51.726177
1.9385002,2.2509599,-0.37212804,-30.080486,-9.056357,47.550926
1.8876832,2.2501569,-0.39196727,-31.144733,-8.302574,43.774567
1.8269523,2.2531767,-0.402294,-32.132133,-7.898534,40.198254
1.7708222,2.2732387,-0.40351626,-33.25563,-7.6740603,36.49484
1.7257085,2.2886026,-0.39337194,-34.685894,-7.4806805,32.759953
1.7068877,2.2824373,-0.3408499,-35.95067,-6.693834,29.439636
1.6918665,2.2713428,-0.27756786,-37.32074,-5.4305525,26.588238
1.6426921,2.252534,-0.22040492,-38.683704,-3.9965515,23.502028
1.5599551,2.2068205,-0.1720646,-39.628292,-2.8582234,19.527887
1.4743906,2.1330411,-0.117886946,-39.881737,-2.4431179,14.120334
1.4879223,2.0188665,0.011507541,-39.98979,-1.8021767,9.071543
1.5629153,1.8858486,0.17623919,-40.23965,-0.34184068,5.233397
1.625254,1.7178646,0.32658246,-40.36965,1.6544534,2.0423138
1.649288,1.5025475,0.45439053,-39.42047,4.185104,-1.2138654
1.6428003,1.2731758,0.5570013,-37.208683,6.670649,-5.294865
1.6669133,1.0048156,0.6833295,-34.210957,9.322978,-9.814885
1.7443203,0.7060992,0.84183663,-30.039265,12.928021,-14.181459
1.8484517,0.39444122,0.98478174,-26.07722,16.75695,-17.96832
1.9727782,0.068272285,1.1243641,-22.675629,20.72579,-20.499971
2.074137,-0.25232258,1.2249718,-18.599964,25.205284,-21.98635
2.1198816,-0.5522828,1.2474663,-14.39484,29.63951,-22.934187
2.1412046,-0.8119944,1.2309172,-10.2276945,34.126,-23.28515
2.1287022,-1.0224149,1.1633776,-6.469372,38.316452,-23.183798
2.0953164,-1.2020293,1.0604913,-3.2529001,42.083447,-22.321978
2.052803,-1.3475384,0.9296991,-0.44476235,45.47224,-20.308588
1.9898461,-1.4532847,0.74088436,1.9395267,48.25154,-17.84587
1.9328122,-1.5503325,0.5363472,4.386465,50.679085,-15.204317
1.881047,-1.6309593,0.30968276,6.9494195,52.729004,-12.455538
1.8247472,-1.6925267,0.06785598,9.330545,54.206627,-9.557742
1.767458,-1.7323954,-0.17996588,11.560547,55.003418,-6.254235
1.7107522,-1.7328653,-0.43298554,13.572613,55.338882,-2.6026711
1.645065,-1.6996689,-0.6918174,15.288664,55.163155,1.2515328
1.5679554,-1.6372179,-0.9548733,16.670649,54.32442,5.027701
1.4847168,-1.5545467,-1.212563,17.722837,52.78962,8.588444
1.4160609,-1.4599634,-1.4434187,18.764982,50.817127,12.056804
1.3538158,-1.3279529,-1.6576853,19.620445,48.416298,15.389627
1.2852707,-1.1616552,-1.8563118,20.109266,45.502724,18.459822
1.2159476,-0.96116304,-2.0284114,20.38003,42.470417,21.168114
1.1349443,-0.7300825,-2.1846292,20.358881,39.065464,23.343052
1.0432569,-0.47762528,-2.321144,19.73447,34.85317,24.681725
0.9830586,-0.2191998,-2.4131353,18.618183,30.257109,25.688366
0.96634823,0.03561114,-2.4613895,16.872076,25.55069,26.77409
0.98631656,0.29785234,-2.4645069,14.312726,20.907114,27.901562
1.0449244,0.5579104,-2.4264019,11.329668,16.578455,28.516209
1.130945,0.7900614,-2.360566,8.260413,12.686859,27.789719
1.2239869,0.97982854,-2.271796,5.303988,9.073212,26.33047
1.3093305,1.1492916,-2.1598387,2.2968771,5.778151,24.797207
1.3816934,1.3188987,-2.037322,-1.2627915,2.550812,23.465141
1.4497794,1.4693367,-1.895717,-5.205312,-0.38458112,22.456228
1.4935482,1.6118038,-1.7490041,-9.806115,-3.1605499,21.744493
1.490232,1.7561486,-1.5856569,-15.097599,-5.966497,20.953915
1.4522923,1.8819048,-1.3992715,-20.68752,-8.866738,19.337646
1.4122684,1.956037,-1.1743959,-25.359621,-11.2357435,16.003035
1.4111935,1.9929878,-0.9100117,-28.444954,-12.696383,10.674412
1.5187923,1.9616973,-0.61322,-30.193974,-12.60068,4.6006794
1.7477336,1.8264457,-0.30953363,-31.19878,-11.092542,-0.9357101
1.9730101,1.6371577,-0.057151508,-31.525427,-8.431504,-6.372853
2.1541307,1.394844,0.12428724,-30.813456,-4.845709,-12.289316
2.2694454,1.1124057,0.22435267,-29.067507,-0.9531451,-18.511354
2.3239105,0.81931394,0.26239246,-27.040628,2.634808,-23.47654
2.3155923,0.55344135,0.24235992,-25.803356,5.5270534,-26.381243
2.258596,0.30853543,0.18315051,-25.412537,7.560679,-27.35233
2.1570032,0.08198549,0.09948546,-25.238197,8.8432,-27.018147
2.0377033,-0.10197997,0.008143681,-24.92058,9.71139,-26.173698
1.918568,-0.24562287,-0.084508054,-24.153324,10.249013,-25.216614
1.8137727,-0.35081834,-0.16843294,-22.939281,10.796392,-24.377375
1.7181141,-0.43087327,-0.24940567,-21.551825,11.294135,-23.57787
1.6307086,-0.5001993,-0.32005778,-19.775343,11.987788,-22.656765
1.5503572,-0.549271,-0.390145,-17.73073,12.789245,-21.585455
1.4725288,-0.58038324,-0.45996693,-15.687449,13.516001,-20.241072
1.3850648,-0.590639,-0.53193575,-13.807315,13.987536,-18.653128
1.2863024,-0.57922965,-0.6064215,-12.241368,13.996725,-16.947393
1.1795919,-0.54952085,-0.6796016,-11.10917,13.388661,-15.224688
1.07713,-0.5134123,-0.7399134,-10.33042,12.253216,-13.455051
1.0435337,-0.4973987,-0.7168351,-10.008208,11.871031,-13.035381
1.0109893,-0.4818865,-0.6944794,-9.696086,11.5008135,-12.628852
0.9794637,-0.46685988,-0.6728235,-9.393733,11.142184,-12.235046
0.94892454,-0.4523034,-0.6518452,-9.1008415,10.794776,-11.853563
0.9193406,-0.43820226,-0.6315231,-8.817111,10.458235,-11.484014
0.89068174,-0.4245421,-0.6118365,-8.5422535,10.132218,-11.1260195
0.86291885,-0.41130894,-0.5927653,-8.275988,9.816393,-10.779218
0.8360237,-0.3984894,-0.57429016,-8.018044,9.510438,-10.4432535
0.8099688,-0.3860704,-0.5563923,-7.7681603,9.214044,-10.117788
0.7847279,-0.37403935,-0.5390535,-7.5260825,8.9269085,-9.802489
0.7602753,-0.36238405,-0.5222563,-7.291565,8.64874,-9.497037
0.7365862,-0.3510927,-0.50598353,-7.0643706,8.379258,-9.201123
0.7136367,-0.34015384,-0.49021882,-6.844269,8.118189,-8.914448
0.6914035,-0.3295564,-0.47494617,-6.631037,7.8652687,-8.636721
0.6698642,-0.31928974,-0.46015015,-6.4244604,7.6202416,-8.3676605
0.64899695,-0.3093434,-0.4458158,-6.224329,7.38286,-8.106996
0.6287808,-0.29970738,-0.4319287,-6.0304418,7.1528845,-7.8544636
0.6091952,-0.29037195,-0.41847476,-5.8426027,6.930083,-7.6098084
0.5902205,-0.2813277,-0.40544045,-5.660622,6.7142305,-7.3727846
0.57183754,-0.27256548,-0.39281264,-5.484317,6.50511,-7.1431527
0.5540278,-0.2640765,-0.3805786,-5.3135095,6.30251,-6.920681
0.5367734,-0.2558522,-0.36872602,-5.1480274,6.106227,-6.705146
0.52005684,-0.2478843,-0.3572429,-4.9877043,5.9160633,-6.4963303
0.5038614,-0.24016479,-0.3461178,-4.8323793,5.7318273,-6.294024
0.48817086,-0.23268588,-0.33533946,-4.6818957,5.553334,-6.098024
0.4729693,-0.22544007,-0.32489702,-4.536102,5.380404,-5.908132
0.45824146,-0.21842009,-0.31478003,-4.394852,5.2128634,-5.724159
0.44397262,-0.21161886,-0.30497834,-4.2580037,5.050544,-5.545918
0.43014836,-0.20502956,-0.29548204,-4.12542,4.893282,-5.3732314
0.41675487,-0.19864558,-0.28628165,-3.996967,4.7409205,-5.2059255
0.40377867,-0.19246048,-0.2773679,-3.8725164,4.5933056,-5.0438323
0.39120674,-0.1864681,-0.26873183,-3.7519429,4.4502897,-4.8867893
0.37902647,-0.18066238,-0.26036483,-3.6351254,4.3117294,-4.734638
0.36722562,-0.17503752,-0.25225848,-3.5219471,4.1774855,-4.587227
0.35579234,-0.16958788,-0.24440461,-3.4122944,4.047423,-4.4444075
0.3447152,-0.16430798,-0.2367954,-3.306057,3.9214115,-4.3060365
0.3339831,-0.15919253,-0.22942318,-3.2031286,3.7993252,-4.1719756
0.32358524,-0.1542364,-0.22228058,-3.103406,3.6810412,-4.04209
0.31351122,-0.14943464,-0.21536043,-3.0067892,3.5664413,-3.9162498
0.30375096,-0.14478242,-0.2086558,-2.9131815,3.4554102,-3.7943285
0.29429466,-0.14027509,-0.20215997,-2.8224888,3.3478372,-3.6762042
0.2851328,-0.13590811,-0.19586642,-2.7346206,3.243614,-3.5617585
0.2762563,-0.13167714,-0.18976887,-2.6494884,3.1426363,-3.4508767
0.26765618,-0.1275779,-0.18386118,-2.5670075,3.0448031,-3.3434477
0.25932384,-0.12360631,-0.17813747,-2.4870949,2.9500163,-3.239364
0.25125098,-0.1197584,-0.17259197,-2.4096704,2.858181,-3.138521
0.2434295,-0.11603029,-0.16721915,-2.334657,2.7692053,-3.0408182
0.23585153,-0.11241827,-0.1620136,-2.261979,2.683,-2.9461575
0.22850953,-0.10891871,-0.15697016,-2.191564,2.5994787,-2.8544443
0.22139612,-0.105528116,-0.15208374,-2.1233416,2.518558,-2.7655866
0.21450418,-0.10224309,-0.14734946,-2.057243,2.4401567,-2.6794953
0.20782682,-0.099060334,-0.14276259,-1.9932027,2.3641965,-2.5960848
0.20135736,-0.09597667,-0.13831851,-1.931156,2.290601,-2.515271
0.19508931,-0.09298902,-0.1340128,-1.8710412,2.2192972,-2.436973
0.18901642,-0.09009438,-0.12984113,-1.8127979,2.150213,-2.361113
0.18313257,-0.08728986,-0.12579936,-1.7563678,2.0832796,-2.2876146
0.17743193,-0.08457265,-0.1218834,-1.7016946,2.0184302,-2.2164044
0.17190874,-0.08194003,-0.118089356,-1.6487235,1.9555995,-2.147411
0.1665575,-0.07938938,-0.114413425,-1.5974014,1.8947248,-2.080566
0.16137286,-0.076918125,-0.110851936,-1.5476772,1.8357455,-2.0158014
0.15634961,-0.0745238,-0.10740132,-1.4995008,1.778602,-1.9530532
0.15148275,-0.072204016,-0.104058124,-1.4528242,1.7232375,-1.8922584
0.1467674,-0.06995645,-0.100819,-1.4076006,1.6695967,-1.8333563
0.14219883,-0.067778856,-0.09768072,-1.363785,1.6176256,-1.7762877
0.13777249,-0.065669045,-0.09464013,-1.3213333,1.5672724,-1.7209957
0.13348395,-0.06362491,-0.09169419,-1.2802032,1.5184867,-1.6674249
0.12932889,-0.061644416,-0.08883996,-1.2403533,1.4712197,-1.6155218
0.1253032,-0.05972557,-0.08607458,-1.2017441,1.4254241,-1.5652344
0.1214028,-0.057866458,-0.08339529,-1.1643367,1.381054,-1.5165124
0.11762383,-0.056065217,-0.08079939,-1.1280937,1.3380653,-1.4693071
0.113962494,-0.05432005,-0.078284316,-1.0929791,1.2964146,-1.4235712
0.11041513,-0.052629203,-0.07584752,-1.0589573,1.2560605,-1.3792591
