ax,ay,az,gx,gy,gz
-4.084583,-3.0191185,-5.785507,5.6600513,-45.277683,-15.758325
-3.959947,-3.491241,-6.1569095,16.776955,-44.584576,-20.289846
-3.8555815,-3.777811,-6.5673594,28.002785,-49.723373,-24.206667
-3.8407507,-3.777123,-7.12323,32.787113,-64.162285,-25.721863
-3.8090334,-3.7701929,-7.6618347,21.308113,-93.62798,-22.778254
-3.2222006,-4.269113,-7.673612,11.590032,-115.99097,-19.644993
-2.3736584,-4.8706923,-7.449157,8.350404,-128.32289,-17.520641
-1.0856283,-5.5754642,-7.013329,7.845554,-134.38652,-12.013136
0.4620884,-6.022977,-6.2684746,8.912294,-131.27948,2.8141963
1.6268674,-5.752105,-5.5387273,7.6375585,-122.63766,22.896633
2.0201283,-5.332077,-4.9261208,5.8833714,-114.09068,35.972836
1.9223335,-5.3608456,-4.462951,7.4220347,-107.08517,43.563892
1.6485384,-5.555582,-4.0372715,9.278446,-102.74767,50.67458
1.4579628,-5.7215247,-3.5585103,10.217726,-100.06526,60.87771
1.4208504,-5.8258333,-3.0255046,11.752039,-97.172264,75.67165
1.4730414,-5.8067784,-2.4466631,14.632562,-93.256195,90.90679
1.4944023,-5.5945573,-1.917177,17.62563,-88.71614,104.08409
1.4969257,-5.2691226,-1.5024682,21.13651,-84.32285,113.32101
1.5194659,-4.9500117,-1.2364824,27.927809,-81.38558,119.11488
1.6141093,-4.5353513,-1.0420402,36.298607,-79.43314,123.72317
1.8945458,-3.853007,-0.8556855,43.147568,-77.39503,128.50476
2.275267,-2.991507,-0.62181354,46.498882,-74.930664,132.8079
2.6943822,-2.1637738,-0.34054497,46.904102,-71.68149,135.50027
3.110456,-1.457739,-0.026341122,46.807495,-66.62597,136.01778
3.5018184,-0.80253845,0.27735302,46.770226,-58.491817,133.04327
3.8247395,-0.19753106,0.50218034,47.051086,-49.226486,127.700455
4.051553,0.35173383,0.624556,46.163734,-40.0679,120.45544
4.203643,0.8061967,0.65665287,44.4064,-30.87363,112.10158
4.2886667,1.1696044,0.582641,41.487423,-21.800772,103.134315
4.3291965,1.4389262,0.41367045,35.952408,-13.320309,93.87959
4.3274903,1.5660317,0.15339136,29.397818,-5.4735355,85.365776
4.263345,1.6171765,-0.16709185,22.941687,1.3030512,77.85422
4.130262,1.6294558,-0.5255933,16.498213,6.678505,71.08663
3.9558089,1.6008698,-0.8867101,10.778279,11.153274,64.829445
3.7404754,1.5559814,-1.2636944,5.8750563,13.706715,58.90563
3.4960067,1.480245,-1.6255357,2.3531053,14.909555,53.162758
3.253565,1.4019812,-1.946476,-0.27063552,15.32906,47.712376
2.9901495,1.3359839,-2.2451687,-2.5118558,14.728834,42.66295
2.7067103,1.2967029,-2.5192099,-4.6474433,12.732018,38.021217
2.4327705,1.2820143,-2.7628763,-7.294019,8.559464,33.85681
2.2327788,1.290703,-2.9263492,-10.2606735,3.5758116,30.220104
2.098629,1.3346916,-3.019458,-13.629909,-1.4720267,26.900702
2.0291226,1.3992083,-3.0471785,-17.099707,-6.0860667,23.695591
2.0235455,1.4725635,-3.010914,-20.532976,-9.907792,20.298075
2.0721426,1.5422657,-2.9199498,-24.3646,-12.934225,16.321232
2.2006776,1.5470519,-2.7348387,-28.555208,-15.191119,12.033884
2.3903193,1.5015925,-2.4818769,-32.722553,-16.402695,7.2429347
2.6247685,1.3949403,-2.159447,-36.33547,-16.018055,1.4366214
2.850788,1.1930354,-1.7848027,-38.99843,-13.98405,-5.2963924
3.0473058,0.8801971,-1.3735137,-39.84491,-9.87404,-12.069893
3.1560998,0.48254573,-0.9960205,-39.61884,-5.4259825,-17.918747
3.2009685,0.054111294,-0.6605027,-38.76849,-1.6713935,-22.522459
3.2342432,-0.38459536,-0.3398105,-37.35712,2.0730288,-25.864395
3.2547913,-0.7913783,-0.05774915,-35.49936,5.964996,-28.341722
3.2504916,-1.1747851,0.16751057,-32.752304,10.07415,-30.209303
3.237803,-1.524475,0.33820993,-29.135508,14.849809,-31.43206
3.217093,-1.8228754,0.45674735,-25.078577,20.348497,-31.761253
3.157607,-2.076312,0.49837717,-21.128218,25.924553,-31.220427
3.0380495,-2.3045638,0.45475104,-16.408117,30.812319,-30.011053
2.8737833,-2.5077345,0.35531437,-11.223534,34.544304,-28.126942
2.6893559,-2.6933143,0.19438693,-5.5972595,37.38932,-26.055485
2.5368168,-2.8506916,0.013077755,0.2967683,39.604816,-23.914185
2.4337924,-2.9730582,-0.18545541,6.0568795,41.425694,-21.5396
2.3695047,-3.0874898,-0.3970251,11.795134,43.116768,-18.501175
2.3032737,-3.1621184,-0.6382993,17.19301,44.087986,-14.956335
2.1918144,-3.1696603,-0.91494155,22.443872,44.30877,-11.74808
2.0360029,-3.1599286,-1.2159383,27.373695,43.41887,-9.073222
1.8664836,-3.1379852,-1.5250032,31.715237,41.303513,-6.910447
1.7041636,-3.1144798,-1.822306,35.655476,38.385975,-4.79894
1.5463821,-3.0597148,-2.1230853,38.266964,33.75804,-2.2287
1.3592476,-2.8953989,-2.4220579,39.623497,27.558582,-0.035617616
1.1270682,-2.6766005,-2.7207122,40.54298,19.699896,0.58069634
0.88948095,-2.4537938,-2.9824398,41.2189,10.540777,-0.43006235
0.7624772,-2.2618587,-3.1314247,42.6604,3.2861404,-2.0676217
0.69783694,-2.0765095,-3.2714324,43.3527,-3.3842275,-2.3540118
0.6439509,-1.9139018,-3.3938212,42.591145,-10.591533,-0.90818834
0.59665954,-1.7508457,-3.4736493,40.636925,-18.113613,1.2680486
0.5655612,-1.5684594,-3.5064435,37.838337,-25.878685,3.332999
0.5533002,-1.3512222,-3.4832368,34.858994,-33.033604,4.396867
0.51895636,-1.124558,-3.4500616,31.868309,-39.797234,3.8752978
0.47138736,-0.86813277,-3.4090734,27.758972,-46.642418,3.4263308
0.48277104,-0.639109,-3.3142521,22.043148,-52.609947,3.5624728
0.5863399,-0.48291376,-3.145123,17.175465,-56.302334,3.8056328
0.77143687,-0.34858134,-2.950863,13.07224,-58.56568,3.0565994
1.0436684,-0.22470954,-2.7201264,8.895239,-59.19363,1.4609687
1.3785702,-0.1420713,-2.50669,5.173776,-58.553818,-0.58197755
1.6455683,-0.13626301,-2.348116,2.1151204,-57.23911,-2.530962
1.8269217,-0.1953212,-2.2160833,-0.9953918,-55.571884,-3.546699
1.9477289,-0.29570475,-2.0859954,-4.3628297,-53.695576,-3.332157
2.0400949,-0.39875817,-1.9418967,-8.292742,-51.40834,-2.1259587
2.1056893,-0.50305134,-1.7972659,-11.421035,-48.746307,-1.283092
2.1368566,-0.6134633,-1.6743183,-12.538885,-45.904915,-0.9734238
2.12434,-0.71693516,-1.5741401,-12.364189,-43.24714,-1.2142527
2.082586,-0.82282865,-1.4763801,-11.981109,-40.61612,-1.4302834
2.0208802,-0.9283783,-1.3866525,-11.606319,-38.016735,-0.87768406
1.9545559,-1.020244,-1.3028853,-11.361699,-35.495586,0.32744047
1.9164912,-1.0894845,-1.2059103,-11.666713,-32.508244,1.9658377
1.9068493,-1.1279752,-1.1154305,-12.284504,-28.678425,3.5678713
1.8984174,-1.1417872,-1.0539542,-12.968672,-24.33799,4.709389
1.8391116,-1.1061182,-1.0210291,-12.563537,-23.57768,4.56227
1.7816713,-1.0715712,-0.9891397,-12.171144,-22.841288,4.4197783
1.7260365,-1.0381101,-0.95825267,-11.791086,-22.128042,4.2817655
1.6721495,-1.0057003,-0.92833596,-11.422968,-21.437202,4.1480885
1.6199546,-0.974308,-0.8993586,-11.066407,-20.768055,4.018609
1.5693974,-0.9439009,-0.87129056,-10.721036,-20.119907,3.8931923
1.5204262,-0.91444755,-0.84410286,-10.386498,-19.492086,3.7717097
1.4729902,-0.88591754,-0.81776756,-10.0624485,-18.88395,3.6540353
1.4270406,-0.85828155,-0.79225755,-9.748552,-18.29487,3.5400488
1.3825305,-0.8315113,-0.7675466,-9.44449,-17.724243,3.4296327
1.3394139,-0.80557925,-0.74360937,-9.149948,-17.171484,3.322674
1.297647,-0.7804589,-0.72042143,-8.864626,-16.636026,3.219063
1.257187,-0.75612456,-0.69795907,-8.588231,-16.117323,3.1186943
1.2179927,-0.7325514,-0.6761993,-8.320482,-15.614844,3.021465
1.1800239,-0.7097154,-0.65511996,-8.061106,-15.128079,2.9272761
1.143242,-0.68759334,-0.63469964,-7.809838,-14.656531,2.836032
1.1076099,-0.6661626,-0.6149175,-7.566423,-14.199721,2.7476392
1.0730909,-0.64540154,-0.5957535,-7.330614,-13.757184,2.6620085
1.0396504,-0.62528896,-0.57718813,-7.1021714,-13.328471,2.579053
1.0072542,-0.60580456,-0.55920255,-6.880863,-12.913148,2.498688
0.97586966,-0.5869286,-0.5417786,-6.6664658,-12.510793,2.4208324
0.9454649,-0.5686419,-0.52489865,-6.458761,-12.120999,2.3454075
0.9160091,-0.550926,-0.5085456,-6.25754,-11.743372,2.272337
0.8874727,-0.533763,-0.4927028,-6.0625987,-11.37753,2.2015467
0.8598266,-0.5171355,-0.4773544,-5.87374,-11.023104,2.1329653
0.8330431,-0.50102675,-0.46248487,-5.6907735,-10.679735,2.0665238
0.80709505,-0.48542055,-0.44807917,-5.5135145,-10.347077,2.0021546
0.7819564,-0.47030106,-0.43412277,-5.341784,-10.024796,1.9397932
0.7576016,-0.45565313,-0.4206016,-5.1754093,-9.712564,1.8793765
0.7340063,-0.44146192,-0.40750208,-5.0142226,-9.4100685,1.8208438
0.7111467,-0.4277132,-0.394811,-4.858062,-9.117005,1.7641362
0.6889997,-0.4143931,-0.38251555,-4.706769,-8.833078,1.7091964
0.6675432,-0.4014882,-0.3706034,-4.5601926,-8.5580015,1.6559693
0.6467554,-0.3889856,-0.35906255,-4.4181848,-8.291499,1.6044012
0.6266155,-0.37687266,-0.3478814,-4.2806034,-8.033303,1.5544404
0.60710335,-0.3651372,-0.3370487,-4.1473093,-7.783154,1.5060366
0.5881992,-0.35376745,-0.32655358,-4.0181694,-7.5408,1.4591413
0.56988406,-0.34275198,-0.3163855,-3.8930533,-7.3059974,1.413707
0.55213964,-0.33207974,-0.30653423,-3.7718356,-7.078511,1.3696886
0.53494805,-0.32174,-0.2969899,-3.6543946,-6.858113,1.3270416
0.51829207,-0.3117224,-0.2877429,-3.5406125,-6.6445804,1.2857232
0.50215495,-0.30201688,-0.27878398,-3.4303749,-6.4377007,1.245692
0.48652056,-0.2926137,-0.27010414,-3.3235714,-6.237265,1.2069079
0.47137314,-0.2835034,-0.26169467,-3.2200947,-6.043073,1.1693318
0.45669755,-0.2746769,-0.25354716,-3.1198413,-5.85493,1.1329261
0.44247907,-0.26612532,-0.2456534,-3.0227106,-5.6726465,1.0976545
0.42870343,-0.25784007,-0.2380055,-2.9286048,-5.496041,1.0634813
0.4153568,-0.24981286,-0.2305958,-2.83743,-5.3249354,1.0303725
0.40242586,-0.24203566,-0.22341686,-2.7490947,-5.1591587,0.9982948
0.3898976,-0.23450065,-0.21646148,-2.6635106,-4.9985447,0.9672161
0.37775952,-0.22720028,-0.20972271,-2.5805914,-4.8429327,0.9371052
0.3659994,-0.22012727,-0.2031938,-2.5002544,-4.6921663,0.907932
0.35460553,-0.21327451,-0.19686818,-2.4224193,-4.546095,0.87966716
0.34356642,-0.20663512,-0.19073954,-2.3470078,-4.404572,0.8522826
0.33287102,-0.20020248,-0.18480174,-2.2739444,-4.2674556,0.82575065
0.3225087,-0.19397014,-0.17904882,-2.203156,-4.1346087,0.80004483
0.312469,-0.18793185,-0.17347503,-2.1345718,-4.0058985,0.77513945
0.30274191,-0.18208157,-0.16807479,-2.0681229,-3.8811958,0.7510095
0.29331768,-0.17641345,-0.16284269,-2.0037432,-3.7603755,0.7276309
0.28418684,-0.17092179,-0.1577735,-1.9413677,-3.6433172,0.70498013
0.27534032,-0.16560112,-0.15286212,-1.8809344,-3.5299034,0.68303466
0.26676923,-0.1604461,-0.14810365,-1.8223826,-3.4200208,0.6617724
0.258465,-0.15545158,-0.14349334,-1.7656537,-3.313559,0.6411721
0.25041926,-0.15061256,-0.13902657,-1.710691,-3.2104118,0.6212132
0.24262404,-0.1459242,-0.13469885,-1.6574394,-3.110476,0.6018756
0.2350715,-0.14138177,-0.13050586,-1.6058457,-3.0136511,0.5831401
0.22775409,-0.13698079,-0.12644342,-1.5558581,-2.9198408,0.56498784
0.22066447,-0.13271679,-0.122507446,-1.5074269,-2.8289511,0.5474007
0.21379557,-0.12858555,-0.118694,-1.4605032,-2.7408907,0.53036106
0.2071405,-0.12458292,-0.11499927,-1.4150405,-2.655572,0.5138519
0.20069262,-0.12070489,-0.111419566,-1.370993,-2.5729089,0.49785668
0.19444546,-0.11694759,-0.1079513,-1.3283167,-2.4928195,0.48235938
0.18839279,-0.11330726,-0.104591,-1.286969,-2.4152231,0.46734455
0.18252853,-0.109780245,-0.10133531,-1.2469084,-2.3400426,0.4527971
0.17684682,-0.10636303,-0.098180965,-1.208095,-2.2672021,0.43870255
0.17134199,-0.10305219,-0.09512482,-1.1704897,-2.1966293,0.42504674
0.1660085,-0.09984442,-0.09216381,-1.1340551,-2.1282535,0.41181603
0.16084106,-0.096736506,-0.08929497,-1.0987548,-2.062006,0.3989972
0.15583448,-0.09372534,-0.086515434,-1.0645531,-1.9978209,0.3865774
0.15098374,-0.0908079,-0.08382243,-1.0314163,-1.9356338,0.3745442
0.146284,-0.08798128,-0.08121325,-0.999311,-1.8753824,0.3628856
