ax,ay,az,gx,gy,gz
1.0700097,2.5618415,-2.9845726,26.467514,15.9801445,-4.9382267
0.70598435,2.6452987,-3.473155,64.37069,14.298624,-35.970413
0.8197438,3.760448,-2.9431129,61.51756,9.243784,-47.81819
0.96228456,4.51508,-2.5682847,29.274544,9.266849,-53.130714
0.9622284,4.565575,-2.6100578,11.913319,6.0053797,-59.880672
0.9257828,4.683474,-2.6421533,-1.7447811,-0.059060484,-67.7079
0.8605875,4.71709,-2.667965,-13.499972,-5.5648985,-76.7387
0.81439435,4.534361,-2.7368343,-20.623962,-8.830962,-86.569435
0.74599546,4.2446003,-2.802509,-21.91461,-12.812957,-96.60593
0.79377323,3.8545787,-2.7183123,-21.715288,-17.887032,-106.23219
0.98174405,3.287038,-2.5134506,-21.016256,-22.321615,-113.82385
1.1861215,2.6146955,-2.2338448,-20.57806,-25.7726,-118.70418
1.3538198,1.939398,-1.9718734,-19.88253,-28.819677,-122.01744
1.5284531,1.264612,-1.7171602,-18.65107,-31.742218,-124.01465
1.7332953,0.61063975,-1.4354292,-18.06175,-34.54229,-123.82111
1.9349083,-0.05029544,-1.0903369,-18.013065,-36.918915,-122.01765
2.1176476,-0.6796074,-0.7094616,-18.486044,-38.370743,-118.4779
2.305909,-1.2752894,-0.31985047,-19.049305,-38.623787,-113.90833
2.511351,-1.8465698,0.06168322,-19.1234,-37.507748,-108.63938
2.7193587,-2.3906217,0.41276398,-17.917,-34.332577,-102.29618
2.8889804,-2.9034338,0.6991298,-15.612848,-30.142729,-95.18898
3.0084944,-3.325884,0.93005335,-13.139774,-25.674007,-87.09449
3.0881457,-3.6468048,1.114823,-10.937338,-21.256653,-78.27613
3.1333203,-3.873016,1.2608076,-9.279776,-16.963173,-68.95155
3.1458144,-4.0089574,1.382449,-8.302132,-12.8624935,-59.191803
3.135116,-4.0341573,1.5019572,-7.6260257,-8.711309,-49.516705
3.1034117,-3.9798477,1.6224067,-6.974842,-4.4357896,-40.490715
3.0588636,-3.8592453,1.7493782,-6.4718637,-0.040233646,-32.10503
3.0083127,-3.6697536,1.8856591,-6.266756,4.534928,-24.374844
2.961706,-3.4173405,2.030645,-6.404099,9.24298,-17.642982
2.9319823,-3.1323504,2.1633532,-6.515501,14.140667,-12.079221
2.9199796,-2.8625674,2.2739317,-6.456522,19.436203,-7.564513
2.9241426,-2.609734,2.3522148,-6.386225,25.133858,-3.7907436
2.9335546,-2.367763,2.3866062,-6.4231772,31.043558,-0.56050944
2.9428535,-2.1314213,2.3760583,-6.8966875,36.889668,2.1657782
2.9536624,-1.8945016,2.3132675,-7.680006,42.463005,4.4046483
2.960294,-1.672995,2.2161674,-8.449123,47.72935,6.036356
2.971457,-1.4760098,2.086482,-9.134699,52.772587,7.22954
2.9826002,-1.2890246,1.9262706,-9.9587,57.435474,8.162301
2.9904034,-1.1063046,1.7410553,-11.29742,61.421413,8.807895
2.9838355,-0.94930595,1.5205246,-12.846282,64.83266,9.191715
2.9725778,-0.8350816,1.2694443,-14.325272,67.70684,9.376497
2.9611425,-0.7535042,0.9939103,-15.571708,70.08929,9.527076
2.9399047,-0.68978804,0.694397,-16.645668,71.666504,9.757213
2.9073572,-0.6304689,0.38553488,-17.62042,72.33903,10.037353
2.8638728,-0.580795,0.06501792,-18.320997,72.4192,10.195453
2.8115854,-0.53796774,-0.2597779,-18.69353,71.88302,10.210106
2.7519214,-0.5004813,-0.590108,-18.67619,70.67988,10.111119
2.6895995,-0.46858665,-0.91962653,-18.314137,68.7841,9.955747
2.6284153,-0.4343571,-1.2390537,-17.763556,66.17884,9.858246
2.5594628,-0.38888067,-1.5494103,-17.152094,63.063694,9.700731
2.4886656,-0.34112626,-1.8507143,-16.5068,59.4641,9.440703
2.4171853,-0.2966237,-2.142502,-15.749398,55.389626,9.005017
2.3456976,-0.26034662,-2.4233222,-14.878368,50.808502,8.419228
2.2830634,-0.23396552,-2.6897242,-14.055896,45.47775,7.7763777
2.2397635,-0.21723495,-2.941732,-13.24961,39.630173,7.1229377
2.2144182,-0.19986483,-3.1804736,-12.402482,33.29135,6.3729043
2.2078826,-0.18374503,-3.4035428,-11.379921,26.493462,5.501936
2.2168705,-0.1622568,-3.6043773,-10.288304,19.300993,4.572458
2.240197,-0.13765597,-3.781105,-9.106259,11.584788,3.429463
2.2777724,-0.13893396,-3.9128823,-7.8191733,3.4923537,2.076983
2.3493786,-0.17969221,-3.9941714,-6.3912783,-4.6470213,0.89246476
2.450199,-0.24023412,-4.0297804,-4.6500945,-12.483665,0.19295473
2.5611439,-0.2763075,-4.0302067,-2.5655887,-19.974833,-0.094691485
2.6688907,-0.26847923,-3.9862823,-0.481963,-27.556387,-0.35872358
2.7820146,-0.2572578,-3.8633597,1.5403305,-34.97322,-0.68428653
2.9115522,-0.26679984,-3.6867957,3.4665976,-41.893757,-0.76016706
3.0454159,-0.28612867,-3.475791,5.1930566,-48.400883,-0.5152083
3.1631868,-0.31304756,-3.2335224,6.6743636,-54.58989,0.01584924
3.2461824,-0.3347929,-2.9609048,7.8024783,-60.59904,1.0915899
3.3038704,-0.32002583,-2.6402178,8.850246,-66.54206,2.1392908
3.3912807,-0.27500242,-2.2483299,9.651742,-71.9502,3.0726416
3.5075557,-0.21308164,-1.7905189,10.015844,-75.822914,3.8433595
3.6068072,-0.16185868,-1.3280602,10.666079,-77.70586,3.9750621
3.7502558,-0.36790344,-0.7880262,19.210855,-76.56675,1.3432633
3.941098,-0.34898284,-0.1422482,30.089264,-69.38084,-2.1488216
3.9682505,-0.09500546,0.35569423,35.7215,-61.759827,-4.768682
3.8433638,0.0763634,0.60438746,36.139297,-56.38768,-5.43348
3.6014538,0.15397657,0.64826787,33.150013,-53.93431,-4.139216
3.344578,0.19754948,0.6441292,28.481327,-54.43721,-1.809202
3.1668482,0.24333838,0.6928927,24.049898,-55.012333,0.4686707
3.0397353,0.30587918,0.7677878,20.007195,-54.717728,2.4310403
2.9493632,0.3674474,0.8462836,16.541838,-53.389996,3.9539797
2.8832688,0.41320726,0.9138667,13.830492,-51.23372,4.875432
2.8308535,0.43060684,0.96574354,12.565612,-48.133995,4.812392
2.7774136,0.42220372,0.991312,11.931481,-44.656147,4.676602
2.690247,0.40895325,0.96020055,11.557023,-43.254654,4.529831
2.6058588,0.3961251,0.9300808,11.194499,-41.89783,4.387738
2.524156,0.38370523,0.90091956,10.8435135,-40.584194,4.2501674
2.4450505,0.3716801,0.8726852,10.503683,-39.312305,4.1169696
2.368456,0.3600367,0.8453471,10.174641,-38.08079,3.9879997
2.2942898,0.34876248,0.81887585,9.856031,-36.888325,3.8631191
2.2224724,0.3378453,0.7932429,9.547512,-35.733627,3.7421935
2.1529274,0.32727352,0.7684209,9.248753,-34.615456,3.6250935
2.08558,0.31703585,0.7443834,8.959436,-33.532627,3.5116944
2.0203595,0.30712146,0.721105,8.6792555,-32.48399,3.4018762
1.9571967,0.29751986,0.6985609,8.407914,-31.468437,3.2955227
1.8960248,0.28822094,0.6767275,8.145126,-30.484896,3.1925218
1.8367798,0.27921492,0.65558183,7.890616,-29.532335,3.092765
1.7793996,0.27049235,0.63510174,7.6441164,-28.609758,2.9961483
1.7238243,0.26204416,0.6152658,7.4053707,-27.7162,2.9025707
1.6699959,0.25386152,0.5960534,7.1741295,-26.850729,2.8119347
1.6178585,0.24593596,0.5774446,6.950153,-26.012447,2.724146
1.5673581,0.23825923,0.55942005,6.733208,-25.200487,2.6391137
1.5184425,0.23082341,0.54196113,6.523072,-24.414007,2.5567496
1.4710612,0.22362082,0.52504987,6.3195267,-23.652195,2.476969
1.4251653,0.21664403,0.5086687,6.1223626,-22.914265,2.3996897
1.3807077,0.20988588,0.49280095,5.9313774,-22.199461,2.324832
1.3376427,0.20333943,0.47743022,5.7463746,-21.507048,2.2523193
1.2959261,0.19699796,0.46254078,5.5671644,-20.836315,2.182077
1.2555152,0.19085498,0.44811738,5.3935637,-20.186577,2.1140335
1.2163689,0.18490422,0.4341453,5.2253947,-19.557169,2.0481188
1.178447,0.17913958,0.42061028,5.0624866,-18.94745,1.984266
1.141711,0.17355523,0.40749848,4.9046726,-18.356796,1.9224101
1.1061234,0.16814545,0.3947966,4.751792,-17.784609,1.8624878
1.0716481,0.16290474,0.3824917,4.6036897,-17.230303,1.8044384
1.03825,0.15782778,0.37057126,4.4602146,-16.693317,1.7482027
1.0058953,0.15290941,0.3590232,4.321222,-16.173105,1.6937237
0.9745509,0.14814466,0.34783584,4.1865697,-15.669142,1.6409463
0.9441853,0.14352868,0.33699778,4.0561223,-15.180914,1.5898168
0.9147677,0.13905683,0.32649806,3.9297473,-14.707929,1.5402834
0.8862683,0.13472454,0.3163261,3.807317,-14.249706,1.4922963
0.8586584,0.13052747,0.3064716,3.6887076,-13.805785,1.4458067
0.83190995,0.12646134,0.29692456,3.573799,-13.375715,1.4007678
0.805996,0.122522086,0.28767538,3.4624755,-12.959063,1.357134
0.78089046,0.11870571,0.27871472,3.3546245,-12.555408,1.3148613
0.75656796,0.11500836,0.27003354,3.2501376,-12.164342,1.2739071
0.7330039,0.11142632,0.2616231,3.148909,-11.785473,1.2342302
0.71017474,0.10795598,0.25347492,3.050837,-11.418417,1.1957904
0.6880573,0.104593836,0.24558079,2.955823,-11.062806,1.1585491
0.66662943,0.10133652,0.23793277,2.863771,-10.718282,1.1224688
0.6458695,0.09818073,0.23052317,2.7745886,-10.384497,1.0875133
0.6257567,0.09512331,0.2233445,2.688186,-10.061116,1.0536474
0.6062707,0.092161186,0.2163896,2.6044762,-9.747815,1.0208371
0.58739203,0.08929138,0.20965143,2.5233753,-9.444277,0.98904914
0.56910163,0.08651099,0.20312324,2.4448016,-9.150199,0.95825183
0.5513812,0.08381725,0.19679847,2.3686764,-8.865283,0.92841417
0.5342129,0.08120744,0.19067077,2.294923,-8.589246,0.8995062
0.51757944,0.07867894,0.184734,2.2234678,-8.321809,0.87149894
0.50146425,0.07622922,0.17898217,2.1542385,-8.062703,0.8443642
0.48585108,0.07385581,0.17340954,2.087166,-7.81167,0.8180748
0.47072428,0.07155634,0.16801049,2.0221827,-7.568456,0.7926043
0.4560687,0.069328494,0.16277963,1.9592239,-7.3328185,0.7679273
0.4418696,0.06717004,0.1577117,1.898226,-7.104521,0.74401885
0.42811272,0.06507882,0.15280162,1.839128,-6.8833337,0.7208551
0.41478434,0.06305272,0.14804447,1.7818706,-6.669036,0.69841284
0.4018711,0.061089735,0.14343546,1.7263966,-6.461412,0.6766695
0.38935998,0.05918788,0.13897002,1.6726501,-6.2602544,0.6556033
0.37723848,0.057345256,0.13464363,1.6205776,-6.0653615,0.63519317
0.3654945,0.05556001,0.13045196,1.5701265,-5.876538,0.6154187
0.3541162,0.053830363,0.12639084,1.5212466,-5.693594,0.59625995
0.34309223,0.05215457,0.12245618,1.4738888,-5.516347,0.5776978
0.33241156,0.050530966,0.11864403,1.4280056,-5.3446198,0.5597137
0.32206345,0.048957914,0.11495059,1.3835511,-5.1782393,0.54228956
0.31203753,0.047433846,0.11137216,1.3404809,-5.01704,0.52540797
0.30232382,0.04595723,0.10790514,1.2987518,-4.8608594,0.50905204
0.2929125,0.044526592,0.10454608,1.2583219,-4.709542,0.49320537
0.28379428,0.043140497,0.1012916,1.2191508,-4.5629354,0.47785208
0.27495992,0.041797556,0.09813845,1.1811994,-4.4208937,0.4629768
0.26640064,0.040496428,0.095083475,1.1444296,-4.2832747,0.44856468
0.2581078,0.03923581,0.092123605,1.1088045,-4.14994,0.43460125
0.2500732,0.03801444,0.0892559,1.0742885,-4.0207567,0.42107257
0.2422887,0.036831096,0.086477466,1.0408472,-3.8955953,0.4079651
0.23474656,0.035684593,0.083785534,1.0084469,-3.7743306,0.39526567
0.22743924,0.034573782,0.081177406,0.97705543,-3.656841,0.3829616
0.2203594,0.033497553,0.07865048,0.9466412,-3.5430093,0.37104058
0.21349998,0.03245483,0.07620222,0.9171738,-3.4327211,0.35949072
0.20685409,0.03144457,0.07383018,0.8886238,-3.3258665,0.3483004
0.2004151,0.030465756,0.07153198,0.86096257,-3.2223384,0.33745843
0.19417657,0.029517416,0.06930533,0.8341625,-3.1220334,0.326954
0.18813224,0.028598597,0.06714799,0.80819666,-3.0248506,0.31677657
0.18227609,0.027708383,0.065057814,0.78303915,-2.9306934,0.306916
0.17660221,0.02684588,0.06303271,0.75866485,-2.839467,0.29736236
0.17110498,0.026010228,0.06107064,0.7350493,-2.7510808,0.28810614
0.16577888,0.025200589,0.05916965,0.71216893,-2.665446,0.27913806
0.16061857,0.024416154,0.057327837,0.6900008,-2.5824769,0.27044913
0.1556189,0.023656137,0.05554336,0.6685227,-2.5020907,0.2620307
0.15077487,0.02291978,0.05381443,0.64771324,-2.4242067,0.25387433
0.14608163,0.022206346,0.052139323,0.62755156,-2.3487473,0.24597186
0.14153448,0.021515118,0.05051636,0.60801744,-2.2756367,0.23831539
