ax,ay,az,gx,gy,gz
-1.1527377,2.0963826,-3.080028,17.755615,23.360212,38.174892
-1.0799632,2.326334,-3.153867,18.16556,19.907154,35.922207
-0.9458613,2.304574,-3.093478,23.873459,16.905863,28.494818
-0.7715922,2.4302645,-2.9969068,31.088318,16.323254,21.459335
-0.62309986,2.7032864,-2.8964953,35.178642,16.125305,15.635531
-0.56913364,3.2988372,-2.8146615,33.225426,13.244571,10.542988
-0.54114,3.853784,-2.7018125,27.098083,8.888882,4.6824656
-0.48758882,4.235458,-2.5529222,19.343872,4.880287,-1.4053409
-0.4209669,4.45486,-2.427352,11.844336,2.1427002,-7.55339
-0.3634134,4.5762024,-2.3555992,4.942367,0.36376512,-13.673122
-0.35320783,4.659478,-2.3661766,-1.5134355,-1.9018695,-19.753166
-0.36938673,4.681406,-2.3964875,-7.1725407,-4.5880504,-25.612946
-0.39116096,4.672876,-2.4111187,-12.6942,-7.7333755,-30.933355
-0.3894222,4.650063,-2.3949692,-18.243206,-11.180474,-35.731693
-0.35644847,4.6169734,-2.343364,-23.680416,-14.5065,-40.27776
-0.29641032,4.5709486,-2.261188,-28.441504,-17.325245,-44.798187
-0.2298143,4.514619,-2.1804273,-32.524044,-19.557198,-49.594837
-0.16679583,4.4451213,-2.0948656,-35.867954,-21.42175,-54.687576
-0.11459174,4.367342,-2.0074015,-38.74065,-23.215635,-59.955544
-0.056429427,4.259042,-1.9154432,-40.525772,-24.729584,-65.51473
0.019091154,4.14179,-1.7983848,-42.067333,-25.998285,-70.71504
0.10772213,4.044291,-1.6804607,-43.5996,-27.116493,-75.80314
0.21122468,3.9375226,-1.5662484,-45.10714,-28.01712,-81.02202
0.32848188,3.784795,-1.4458488,-46.389187,-28.510849,-86.35455
0.45099163,3.5762246,-1.3224705,-46.97616,-28.472902,-91.679245
0.57924336,3.3093739,-1.2179186,-47.058807,-28.16167,-96.605576
0.71539444,3.028478,-1.1171967,-47.36383,-27.841766,-100.82473
0.8662594,2.720048,-1.0090754,-47.917072,-27.408932,-104.31097
1.0228716,2.2981489,-0.88422996,-48.30852,-26.48616,-105.845894
1.1790327,1.8156217,-0.7477318,-48.783802,-24.57751,-104.96446
1.3093641,1.2778647,-0.6355085,-48.603653,-21.775024,-101.7043
1.410665,0.7805681,-0.5555337,-47.738617,-18.420452,-96.378944
1.4867177,0.3450805,-0.48907807,-46.040596,-14.959687,-89.35608
1.5314528,0.016957922,-0.40455282,-43.74299,-11.200374,-80.35638
1.6089501,-0.19574067,-0.27862772,-40.873302,-6.3755946,-70.6676
1.6871793,-0.2793411,-0.1346763,-39.246685,-0.35130942,-60.314465
1.7466292,-0.25304165,-0.029504588,-38.671837,5.9364796,-50.09432
1.822283,-0.101610765,0.07691095,-39.569168,12.354532,-41.418064
1.9082634,0.06518315,0.08448972,-40.43007,19.347786,-34.19246
1.9574714,0.2608763,-0.06610592,-39.21952,25.636992,-28.980764
1.9557164,0.46069977,-0.29865098,-38.075768,29.859875,-25.1206
1.9214338,0.5945454,-0.5847351,-37.430275,30.87528,-22.305956
1.8589041,0.6765272,-0.9165185,-36.07106,29.369308,-20.195335
1.7778207,0.7547737,-1.2528038,-33.095997,26.320627,-19.03743
1.6769193,0.8149482,-1.5718791,-30.393084,21.12041,-18.542011
1.5818812,0.82721674,-1.884563,-27.758934,14.661989,-18.198856
1.5127498,0.80542964,-2.187352,-24.390766,6.314822,-17.924631
1.5002396,0.7676187,-2.4369597,-20.862144,-3.21517,-17.219824
1.5760233,0.7357535,-2.6261508,-17.306198,-14.134605,-15.569355
1.7247277,0.6975175,-2.7103984,-12.651066,-25.943293,-14.313078
1.9318899,0.6710916,-2.6714299,-8.42635,-36.84526,-12.774302
2.1517904,0.6781029,-2.5226698,-4.8311996,-45.89599,-10.737528
2.331194,0.7405041,-2.3217032,-1.6520668,-53.05301,-8.902588
2.4772773,0.8056489,-2.1090314,1.4928565,-59.206074,-7.837032
2.6152446,0.8285849,-1.8713064,4.9737163,-64.0769,-7.470241
2.745757,0.8211403,-1.6056681,8.407025,-67.76731,-7.0504885
2.8530962,0.8352097,-1.315122,10.3062,-70.43809,-5.5802927
2.9157875,0.8991099,-1.0137389,10.8605795,-72.462265,-3.8711784
2.9481046,0.9629099,-0.7209632,11.133874,-73.58645,-2.7975543
2.9635081,0.9848669,-0.4304801,12.657894,-73.644806,-2.7680578
3.1908677,0.9545977,0.15067606,23.777298,-65.19198,-5.822495
3.296164,1.2447307,0.62715715,27.902987,-58.09293,-9.133832
3.228161,1.3305442,0.83188784,28.896835,-53.39277,-11.66726
3.0887334,1.3552256,0.9252697,28.173708,-51.041424,-12.249479
2.955476,1.3812151,1.0008063,25.582335,-50.25932,-10.946148
2.863661,1.406767,1.0925161,21.358727,-49.435326,-8.44873
2.795666,1.425779,1.1794137,16.689726,-47.759075,-6.0732446
2.7619584,1.4369508,1.271342,12.844251,-44.456345,-4.7347426
2.7270844,1.4387408,1.3355886,10.048113,-39.923527,-4.8232803
2.640126,1.3928639,1.2930008,9.72771,-38.65049,-4.6694813
2.556065,1.3485154,1.251832,9.417982,-37.41987,-4.520806
2.4747934,1.3056386,1.2120292,9.118531,-36.23008,-4.377064
2.3962083,1.264179,1.1735421,8.8289795,-35.07962,-4.238074
2.3202116,1.2240851,1.1363229,8.548965,-33.967056,-4.1036615
2.2467096,1.1853073,1.1003252,8.278143,-32.891014,-3.9736617
2.1756127,1.1477984,1.0655056,8.016182,-31.850182,-3.8479156
2.1068354,1.1115131,1.0318218,7.762767,-30.843306,-3.7262719
2.0402954,1.0764084,0.99923396,7.5175962,-29.869186,-3.6085856
1.9759145,1.0424426,0.9677034,7.2803807,-28.926672,-3.4947176
1.9136171,1.0095761,0.93719333,7.0508423,-28.014662,-3.384535
1.8533313,0.97777086,0.9076684,6.828716,-27.1321,-3.27791
1.7949878,0.94699025,0.87909466,6.613745,-26.277971,-3.1747203
1.73852,0.9171993,0.8514396,6.4056864,-25.451303,-3.0748482
1.6838642,0.88836426,0.8246719,6.2043033,-24.651163,-2.9781806
1.630959,0.8604528,0.7987616,6.009371,-23.876648,-2.8846092
1.5797453,0.83343375,0.77367973,5.8206706,-23.126898,-2.7940297
1.5301664,0.8072772,0.74939847,5.6379943,-22.401081,-2.7063417
1.4821677,0.7819543,0.7258912,5.46114,-21.698399,-2.6214485
1.4356967,0.75743735,0.703132,5.2899146,-21.01808,-2.539257
1.3907027,0.7336997,0.6810962,5.1241317,-20.359385,-2.4596782
1.3471371,0.71071553,0.65975994,4.963611,-19.721598,-2.3826253
1.3049526,0.6884601,0.63910013,4.80818,-19.104034,-2.3080153
1.2641042,0.6669095,0.6190946,4.6576715,-18.506027,-2.2357686
1.2245481,0.6460407,0.599722,4.5119243,-17.92694,-2.1658072
1.1862422,0.6258315,0.58096176,4.370784,-17.366158,-2.0980573
1.149146,0.60626036,0.5627938,4.2341003,-16.82308,-2.0324466
1.11322,0.58730674,0.5451991,4.1017284,-16.297136,-1.9689058
1.0784265,0.5689506,0.52815896,3.9735298,-15.787772,-1.907368
1.0447289,0.5511726,0.5116556,3.849369,-15.294453,-1.8477685
1.012092,0.5339542,0.49567172,3.7291164,-14.81666,-1.790045
0.9804817,0.51727736,0.48019058,3.6126463,-14.353896,-1.7341372
0.949865,0.5011248,0.46519607,3.4998372,-13.90568,-1.6799867
0.9202102,0.48547965,0.45067263,3.390572,-13.471543,-1.6275375
0.8914864,0.47032574,0.4366052,3.2847376,-13.051039,-1.5767349
0.8636641,0.45564738,0.42297918,3.1822245,-12.643729,-1.5275267
0.8367144,0.4414294,0.4097806,3.0829268,-12.249195,-1.479862
0.8106096,0.42765716,0.39699578,2.986742,-11.867031,-1.4336915
0.78532284,0.41431653,0.3846116,2.8935714,-11.496842,-1.3889679
0.7608282,0.40139377,0.37261537,2.8033192,-11.138249,-1.3456452
0.73710054,0.38887563,0.36099473,2.7158933,-10.790885,-1.303679
0.71411556,0.37674934,0.34973785,2.6312037,-10.454393,-1.2630265
0.69184977,0.36500248,0.33883318,2.5491638,-10.12843,-1.2236459
0.67028046,0.35362306,0.32826963,2.4696906,-9.812663,-1.1854972
0.6493857,0.34259948,0.3180364,2.3927023,-9.506771,-1.1485415
0.6291441,0.33192053,0.30812308,2.3181207,-9.210442,-1.1127409
0.6095351,0.32157534,0.2985196,2.2458704,-8.923373,-1.0780593
0.5905388,0.31155336,0.2892162,2.1758773,-8.645274,-1.0444614
0.5721359,0.30184448,0.28020337,2.1080709,-8.375863,-1.0119131
0.5543078,0.29243883,0.27147207,2.042382,-8.114866,-0.9803812
0.5370364,0.28332686,0.2630134,1.9787444,-7.8620186,-0.9498339
0.5203042,0.27449936,0.2548188,1.9170934,-7.6170645,-0.92024034
0.50409424,0.2659474,0.24687998,1.8573668,-7.379757,-0.8915705
0.48839015,0.25766233,0.23918891,1.7995042,-7.149855,-0.86379534
0.4731761,0.24963577,0.23173784,1.7434471,-6.927127,-0.8368869
0.4584367,0.24185964,0.22451922,1.6891388,-6.7113476,-0.81081796
0.4441571,0.23432608,0.21752578,1.6365247,-6.502299,-0.78556216
0.43032286,0.22702749,0.21075048,1.5855516,-6.299771,-0.76109415
0.41692007,0.2199565,0.20418645,1.5361681,-6.1035585,-0.73738915
0.4039352,0.21310602,0.19782713,1.4883246,-5.913465,-0.71442336
0.3913552,0.20646912,0.19166608,1.4419727,-5.729298,-0.69217366
0.37916738,0.20003915,0.1856971,1.397066,-5.5508733,-0.6706176
0.3673595,0.1938096,0.17991419,1.3535591,-5.37801,-0.6497334
0.35591966,0.18777423,0.17431153,1.3114083,-5.210535,-0.62950027
0.34483638,0.18192697,0.1688835,1.2705712,-5.04828,-0.60989773
0.3340985,0.17626193,0.16362463,1.2310069,-4.891081,-0.5909061
0.32369524,0.17077345,0.15852964,1.1926755,-4.738781,-0.5725063
0.31361616,0.16545597,0.1535934,1.1555384,-4.591227,-0.5546799
0.30385113,0.16030417,0.14881098,1.1195585,-4.4482703,-0.5374088
0.29439032,0.1553129,0.14417756,1.0846996,-4.3097677,-0.5206759
0.28522426,0.15047713,0.13968849,1.0509267,-4.17558,-0.50446427
0.27634376,0.14579199,0.13533926,1.018206,-4.0455728,-0.48875773
0.2677399,0.14125282,0.13112552,0.9865045,-3.9196153,-0.47354043
0.25940403,0.13685502,0.12704304,0.95579046,-3.7975812,-0.45879713
0.25132784,0.13259423,0.12308773,0.9260332,-3.6793485,-0.44451308
0.24350318,0.12846613,0.1192556,0.89720273,-3.5647984,-0.43067393
0.23592223,0.12446661,0.11554283,0.86927027,-3.453816,-0.41726583
0.22857738,0.120591655,0.111945696,0.8422077,-3.34629,-0.4042753
0.22146128,0.11683738,0.10846058,0.81598794,-3.2421129,-0.39168933
0.21456678,0.113200024,0.10508401,0.7905848,-3.14118,-0.37949535
0.207887,0.10967594,0.101812586,0.7659727,-3.0433903,-0.3676811
0.20141523,0.10626159,0.09864304,0.74212706,-2.948646,-0.35623473
0.19514498,0.10295357,0.09557219,0.71902394,-2.8568518,-0.3451448
0.18906999,0.09974855,0.09259696,0.69664025,-2.7679162,-0.3344002
0.18318416,0.096643336,0.08971438,0.6749535,-2.6817498,-0.3239902
0.17748159,0.093634814,0.08692155,0.6539421,-2.5982664,-0.31390432
0.1719566,0.09071996,0.084215686,0.63358486,-2.5173824,-0.30413246
0.16660362,0.08789587,0.081594065,0.6138615,-2.4390166,-0.2946649
0.16141732,0.085159704,0.07905408,0.59475225,-2.363091,-0.2854921
0.15639248,0.08250873,0.07659317,0.5762379,-2.2895293,-0.2766049
0.15152411,0.0799403,0.07420888,0.5583001,-2.2182581,-0.26799437
0.1468073,0.077451825,0.071898825,0.5409207,-2.1492057,-0.25965196
0.14223734,0.07504083,0.069660686,0.5240824,-2.082303,-0.25156927
0.13780965,0.0727049,0.06749223,0.50776833,-2.0174835,-0.2437382
0.13351983,0.070441686,0.06539129,0.49196216,-1.9546818,-0.23615095
0.12936354,0.068248935,0.06335575,0.4766481,-1.8938353,-0.22879991
0.12533665,0.066124454,0.061383583,0.46181077,-1.8348832,-0.22167772
0.12143513,0.06406611,0.05947281,0.44743535,-1.7777662,-0.21477726
0.11765506,0.06207184,0.057621527,0.43350747,-1.7224275,-0.20809162
0.113992676,0.06013966,0.055827875,0.42001316,-1.6688116,-0.20161411
0.11044431,0.058267627,0.05409006,0.40693897,-1.6168646,-0.19533825
0.10700639,0.056453872,0.052406345,0.3942718,-1.5665349,-0.18925776
0.10367551,0.054696582,0.050775044,0.38199893,-1.5177718,-0.18336655
0.10044832,0.052993994,0.049194526,0.37010813,-1.4705269,-0.17765875
0.097321585,0.05134441,0.04766321,0.35858747,-1.4247527,-0.17212863
0.094292186,0.049746178,0.046179567,0.34742546,-1.3804034,-0.16677067
0.09135709,0.048197694,0.044742104,0.33661094,-1.3374346,-0.16157949
0.08851337,0.046697415,0.04334939,0.32613304,-1.2958035,-0.1565499
0.08575816,0.04524384,0.04200003,0.31598133,-1.2554684,-0.1516769
0.083088726,0.043835513,0.040692676,0.3061456,-1.2163888,-0.14695556
0.08050238,0.042471025,0.039426014,0.29661608,-1.1785257,-0.14238122
