ax,ay,az,gx,gy,gz
-5.716416,-0.017272884,-8.826444,-5.437322,-76.18342,-7.7682524
-6.0821443,-0.46263948,-9.326999,7.33167,-89.64246,-17.676739
-6.11603,-0.73066056,-9.407145,17.290134,-100.49681,-24.430021
-6.131201,-0.99587035,-9.447013,27.580835,-109.94692,-24.530632
-6.5236063,-1.2336519,-9.593215,37.950974,-120.40761,-26.554886
-6.8321447,-1.3661014,-9.69628,48.134563,-132.12685,-32.07929
-6.730502,-1.4600015,-9.692672,57.659245,-142.93974,-38.49441
-6.1986217,-1.502602,-9.579865,67.11882,-151.36967,-42.991432
-5.53558,-1.4348543,-9.37594,75.69846,-158.53322,-43.764305
-4.885383,-1.3350359,-9.154888,83.13334,-165.42607,-42.53918
-4.19623,-1.185046,-8.874513,90.089966,-172.05084,-41.639896
-3.3346784,-0.9568223,-8.494964,96.48925,-176.87337,-41.696507
-2.3887405,-0.68827903,-8.033368,101.6764,-179.00232,-41.764286
-1.4966674,-0.43331018,-7.547018,105.42972,-178.8155,-40.021896
-0.62325394,-0.062351465,-6.9119635,107.857475,-176.86641,-38.254032
0.2382847,0.3928509,-6.196016,108.98389,-173.09851,-36.727936
1.0309385,0.86991316,-5.448231,108.33351,-168.0922,-34.369446
1.643283,1.2897122,-4.764718,106.04185,-162.97137,-30.107298
2.0528626,1.653382,-4.154464,102.14442,-157.75613,-24.810005
2.3008404,1.9684974,-3.5906062,97.71279,-151.55348,-20.69861
2.4572175,2.2620244,-3.0921826,92.79676,-144.41666,-17.956379
2.541794,2.5504005,-2.658543,87.40468,-137.15665,-15.972955
2.5441656,2.820606,-2.301681,81.47445,-130.23257,-14.468353
2.4612021,3.0514088,-2.0267062,74.56126,-124.2331,-12.739825
2.264079,3.2351408,-1.8569942,67.47402,-119.26044,-11.320616
2.0326324,3.3879375,-1.7470186,60.484207,-114.99877,-10.843256
1.8060274,3.5204551,-1.6567383,53.671413,-110.78532,-11.839065
1.612418,3.637392,-1.5737183,46.77371,-106.53363,-13.694928
1.443245,3.732159,-1.5036654,39.515774,-102.51888,-15.654726
1.2607437,3.7826705,-1.4674684,32.219604,-99.14525,-17.539072
1.0789428,3.7843409,-1.4592074,25.02589,-96.5988,-19.583143
0.94214845,3.7250023,-1.4782822,18.111883,-94.81398,-21.56779
0.86902475,3.600818,-1.5171709,11.524646,-93.59647,-23.069132
0.862325,3.4014394,-1.5705177,5.53651,-92.52986,-23.836447
0.948876,3.1024692,-1.6390415,0.38888836,-90.83032,-24.446724
1.0991291,2.736676,-1.7137427,-3.769294,-88.20882,-25.200695
1.2975403,2.3131912,-1.7899268,-6.7939744,-85.03413,-25.801176
1.518012,1.8529913,-1.857684,-8.485746,-81.767334,-25.742495
1.7315661,1.4078861,-1.8862977,-8.835262,-78.3217,-24.43484
1.9060371,1.0404047,-1.8519516,-8.53896,-74.522675,-22.72675
2.0554926,0.74096924,-1.7778041,-7.6972528,-70.14064,-20.770277
1.98176,0.7143899,-1.7140325,-7.4211445,-67.624626,-20.025227
1.9112887,0.68898624,-1.6530817,-7.157249,-65.2199,-19.313131
1.8438768,0.6646854,-1.5947767,-6.90481,-62.919567,-18.631948
1.7793394,0.6414208,-1.5389581,-6.663135,-60.717323,-17.979813
1.7175075,0.6191315,-1.4854795,-6.431592,-58.607403,-17.355017
1.6582261,0.5977616,-1.4342067,-6.209599,-56.58451,-16.755991
1.6013526,0.57725966,-1.3850164,-5.9966235,-54.643784,-16.181297
1.5467554,0.5575783,-1.3377953,-5.792172,-52.78074,-15.629605
1.4943134,0.5386739,-1.2924379,-5.5957913,-50.991234,-15.09969
1.4439143,0.5205059,-1.2488475,-5.4070606,-49.271435,-14.590419
1.3954539,0.5030368,-1.206934,-5.2255898,-47.617798,-14.100739
1.3488358,0.48623174,-1.1666137,-5.0510178,-46.027023,-13.629673
1.3039699,0.47005838,-1.1278089,-4.8830075,-44.49604,-13.176313
1.2607723,0.45448646,-1.0904473,-4.721245,-43.02199,-12.739813
1.2191652,0.43948776,-1.054461,-4.5654373,-41.602207,-12.319382
1.179075,0.42503595,-1.0197868,-4.4153104,-40.234188,-11.91428
1.1404333,0.41110632,-0.98636556,-4.270608,-38.9156,-11.523814
1.1031759,0.39767566,-0.95414144,-4.131089,-37.644245,-11.147337
1.0672424,0.38472226,-0.9230624,-3.9965281,-36.418064,-10.784237
1.032576,0.37222558,-0.8930792,-3.8667119,-35.235123,-10.43394
0.999123,0.3601664,-0.86414564,-3.7414398,-34.093594,-10.095906
0.9668331,0.34852648,-0.836218,-3.6205232,-32.99175,-9.769625
0.9356587,0.33728862,-0.8092551,-3.5037835,-31.927967,-9.454615
0.90555453,0.3264366,-0.7832179,-3.3910518,-30.900707,-9.150419
0.876478,0.315955,-0.75806946,-3.2821681,-29.908514,-8.856607
0.8483886,0.3058293,-0.73377484,-3.1769812,-28.950006,-8.57277
0.821248,0.29604557,-0.7103008,-3.0753472,-28.023872,-8.298521
0.7950197,0.28659073,-0.6876159,-2.9771295,-27.12887,-8.03349
0.769669,0.27745223,-0.66568995,-2.882198,-26.263815,-7.777327
0.7451629,0.26861823,-0.64449453,-2.7904294,-25.427582,-7.5296984
0.72147,0.26007736,-0.6240024,-2.701706,-24.619095,-7.290287
0.6985603,0.2518188,-0.6041877,-2.6159155,-23.837336,-7.0587897
0.6764052,0.24383226,-0.58502567,-2.5329506,-23.081326,-6.8349175
0.6549773,0.2361079,-0.5664926,-2.4527094,-22.350132,-6.618394
0.63425064,0.22863628,-0.54856604,-2.3750937,-21.642864,-6.4089556
0.6142002,0.22140843,-0.53122425,-2.30001,-20.95867,-6.2063503
0.59480196,0.21441571,-0.5144467,-2.227369,-20.296736,-6.010336
0.5760331,0.20764989,-0.49821344,-2.1570852,-19.656277,-5.820681
0.55787176,0.20110303,-0.48250562,-2.0890758,-19.036547,-5.637165
0.5402968,0.19476756,-0.46730494,-2.0232625,-18.436829,-5.459574
0.5232881,0.18863621,-0.45259404,-1.9595695,-17.85643,-5.2877045
0.50682616,0.18270199,-0.43835607,-1.8979242,-17.294693,-5.1213613
0.4908925,0.17695817,-0.42457497,-1.838257,-16.75098,-4.960355
0.47546917,0.17139834,-0.41123527,-1.7805009,-16.224682,-4.804506
0.46053898,0.16601627,-0.39832208,-1.7245914,-15.715211,-4.65364
0.44608536,0.160806,-0.3858211,-1.6704667,-15.222003,-4.5075893
0.43209246,0.1557618,-0.37371856,-1.618067,-14.744515,-4.3661942
0.4185449,0.15087813,-0.3620012,-1.5673351,-14.282225,-4.229299
0.4054279,0.14614968,-0.3506563,-1.5182157,-13.834627,-4.096755
0.39272732,0.14157134,-0.3396715,-1.4706554,-13.401238,-3.9684186
0.38042942,0.13713816,-0.32903498,-1.4246031,-12.98159,-3.844151
0.36852098,0.13284539,-0.31873533,-1.3800093,-12.5752325,-3.723819
0.3569893,0.12868841,-0.30876154,-1.3368263,-12.181731,-3.607294
0.34582207,0.124662824,-0.29910296,-1.2950082,-11.800666,-3.494452
0.3350075,0.12076435,-0.28974935,-1.2545105,-11.431634,-3.385173
0.32453406,0.11698887,-0.28069088,-1.2152905,-11.0742445,-3.2793417
0.3143908,0.1133324,-0.27191794,-1.1773069,-10.728121,-3.1768463
0.30456707,0.10979111,-0.26342133,-1.1405196,-10.3928995,-3.0775795
0.2950525,0.10636128,-0.25519213,-1.1048902,-10.06823,-2.9814372
0.28583723,0.10303933,-0.24722181,-1.0703815,-9.753773,-2.888319
0.27691165,0.09982181,-0.23950203,-1.0369576,-9.4492,-2.798128
0.26826644,0.09670537,-0.23202476,-1.0045838,-9.154195,-2.7107704
0.2598927,0.09368678,-0.22478227,-0.9732264,-8.868453,-2.6261554
0.2517817,0.09076291,-0.21776704,-0.94285303,-8.591678,-2.544196
0.24392514,0.087930754,-0.21097188,-0.91343236,-8.323585,-2.464807
0.23631488,0.08518739,-0.20438972,-0.884934,-8.063895,-2.387907
0.2289431,0.08252999,-0.19801384,-0.8573287,-7.8123446,-2.313417
0.22180223,0.07995584,-0.19183768,-0.83058816,-7.568673,-2.2412603
0.21488497,0.077462286,-0.18585491,-0.80468494,-7.3326316,-2.1713629
0.20818423,0.07504678,-0.1800594,-0.77959245,-7.103978,-2.1036534
0.20169315,0.072706856,-0.17444524,-0.75528514,-6.8824797,-2.0380626
0.1954051,0.07044013,-0.16900669,-0.73173815,-6.6679096,-1.9745233
0.1893137,0.06824428,-0.1637382,-0.7089275,-6.460049,-1.912971
0.18341272,0.06611708,-0.15863442,-0.68683,-6.258687,-1.853343
0.17769615,0.06405637,-0.15369014,-0.6654231,-6.063618,-1.7955785
0.17215823,0.062060036,-0.14890036,-0.64468503,-5.8746443,-1.7396189
0.16679329,0.060126066,-0.1442602,-0.6245948,-5.6915736,-1.6854075
0.1615959,0.058252502,-0.13976496,-0.60513204,-5.5142207,-1.6328892
0.15656081,0.05643744,-0.1354101,-0.586277,-5.342406,-1.5820107
0.1516829,0.05467904,-0.13119118,-0.5680106,-5.1759543,-1.5327207
0.14695726,0.052975528,-0.12710395,-0.55031437,-5.014699,-1.4849691
0.14237909,0.05132518,-0.12314427,-0.5331704,-4.8584757,-1.4387078
0.13794379,0.049726326,-0.11930815,-0.5165614,-4.707127,-1.39389
0.13364685,0.048177354,-0.11559171,-0.5004706,-4.5605006,-1.3504704
0.12948395,0.046676703,-0.111991204,-0.48488164,-4.418448,-1.3084053
0.1254509,0.045222856,-0.108503,-0.46977895,-4.2808256,-1.2676522
0.12154361,0.04381435,-0.10512357,-0.45514727,-4.1474957,-1.22817
0.11775816,0.042449765,-0.101849526,-0.44097182,-4.018323,-1.189919
0.11409075,0.041127723,-0.09867756,-0.42723837,-3.8931777,-1.1528606
0.11053766,0.0398469,-0.09560449,-0.41393307,-3.7719343,-1.1169575
0.107095346,0.038606003,-0.09262721,-0.40104252,-3.65447,-1.0821737
0.10376032,0.037403785,-0.089742735,-0.38855377,-3.5406673,-1.048474
0.10052924,0.036239035,-0.08694816,-0.37645426,-3.4304113,-1.0158247
0.097398855,0.03511059,-0.084240675,-0.36473182,-3.3235917,-0.98419285
0.09436602,0.034017302,-0.081617564,-0.35337472,-3.2201006,-0.95354676
0.09142769,0.032958087,-0.07907619,-0.34237146,-3.1198347,-0.92385566
0.088580914,0.031931873,-0.076614,-0.33171108,-3.0226924,-0.8950896
0.085822836,0.030937634,-0.074228525,-0.32138282,-2.9285772,-0.86721987
0.08315068,0.02997437,-0.07191737,-0.31137633,-2.8373938,-0.84021837
0.08056177,0.029041111,-0.06967821,-0.3016816,-2.749051,-0.814058
0.078053504,0.028136928,-0.0675088,-0.29228884,-2.6634603,-0.7887126
0.07562338,0.027260907,-0.06540697,-0.28318867,-2.580536,-0.7641567
0.07326894,0.026412174,-0.063370615,-0.27437198,-2.500194,-0.7403657
0.07098784,0.025589878,-0.06139768,-0.26582986,-2.422355,-0.7173157
0.068777785,0.02479319,-0.05948619,-0.25755382,-2.34694,-0.6949836
0.06663656,0.024021316,-0.05763424,-0.24953553,-2.273874,-0.673347
0.06456202,0.023273483,-0.055839963,-0.24176696,-2.2030833,-0.6523843
0.06255209,0.022548936,-0.054101564,-0.23424031,-2.1344974,-0.63207436
0.060604747,0.021846954,-0.0524173,-0.22694807,-2.0680473,-0.61239696
0.05871805,0.021166833,-0.050785486,-0.21988289,-2.0036664,-0.5933323
0.056890104,0.020507889,-0.049204487,-0.21303773,-1.9412905,-0.5748613
0.055119075,0.019869465,-0.04767272,-0.20640573,-1.8808569,-0.5569655
0.053403195,0.01925092,-0.046188645,-0.19998023,-1.822305,-0.5396269
0.051740743,0.018651634,-0.044750784,-0.1937548,-1.7655762,-0.5228282
0.050130054,0.018071009,-0.043357693,-0.18772322,-1.7106138,-0.5065526
0.048569515,0.017508462,-0.042007975,-0.18187943,-1.6573628,-0.4907837
0.047057565,0.016963432,-0.040700283,-0.1762176,-1.6057698,-0.4755058
0.04559269,0.01643537,-0.039433308,-0.17073204,-1.555783,-0.46070358
0.044173423,0.015923748,-0.038205776,-0.16541728,-1.5073527,-0.4463622
0.042798344,0.015428056,-0.037016466,-0.160268,-1.4604301,-0.43246734
0.041466076,0.014947797,-0.03586418,-0.15527901,-1.4149685,-0.4190051
0.040175285,0.01448249,-0.034747772,-0.15044536,-1.3709221,-0.40596196
0.038924683,0.014031668,-0.03366612,-0.14576219,-1.3282471,-0.39332488
0.03771301,0.013594883,-0.032618143,-0.14122482,-1.2869006,-0.38108125
0.036539063,0.013171695,-0.03160279,-0.1368287,-1.2468414,-0.36921877
0.03540166,0.012761681,-0.030619046,-0.13256946,-1.2080293,-0.3577256
0.03429967,0.012364432,-0.029665928,-0.1284428,-1.1704254,-0.34659022
0.033231985,0.01197955,-0.028742483,-0.12444461,-1.1339923,-0.3358015
0.03219754,0.01160665,-0.027847784,-0.12057089,-1.0986933,-0.32534865
0.031195292,0.011245359,-0.026980938,-0.11681776,-1.0644932,-0.3152212
0.030224247,0.010895314,-0.026141077,-0.113181464,-1.0313576,-0.305409
0.029283432,0.010556166,-0.025327362,-0.109658375,-0.99925375,-0.2959023
0.028371904,0.010227576,-0.024538979,-0.10624495,-0.9681492,-0.28669152
0.027488751,0.009909215,-0.023775136,-0.10293779,-0.93801296,-0.27776748
0.026633091,0.009600765,-0.023035072,-0.099733576,-0.9088148,-0.26912123
0.025804067,0.009301916,-0.022318045,-0.09662911,-0.8805256,-0.26074412
0.02500085,0.00901237,-0.02162334,-0.093621284,-0.853117,-0.2526278
0.024222637,0.008731837,-0.02095026,-0.090707086,-0.8265616,-0.24476413
0.023468647,0.008460038,-0.02029813,-0.08788361,-0.80083287,-0.23714525
