ax,ay,az,gx,gy,gz
-4.098219,1.5881963,-6.5773325,-3.3845763,-57.484158,-20.419277
-4.361601,1.6500435,-7.137023,-0.17243777,-72.2336,-25.928534
-4.3161635,1.6287005,-7.1719174,2.2895818,-83.25013,-29.068563
-4.3442764,1.4138327,-7.107798,6.3760133,-90.01927,-30.49908
-4.4407053,1.1546032,-7.165057,10.597412,-94.93416,-30.779636
-4.6759152,0.873998,-7.352382,16.277784,-100.85917,-31.029255
-4.957243,0.63792735,-7.492058,23.702488,-108.45138,-33.45644
-5.0143905,0.60400677,-7.4495754,30.33443,-116.298775,-39.483936
-4.6889877,0.5425094,-7.336748,36.400402,-122.47836,-44.20558
-4.329284,0.44822723,-7.2722898,42.136894,-127.99543,-45.60288
-4.0357203,0.41985035,-7.1692867,47.491932,-134.20044,-45.69878
-3.655895,0.45992446,-6.9518976,51.71387,-139.9282,-45.905308
-3.1756265,0.48365977,-6.690323,55.08865,-144.30455,-45.151237
-2.7141056,0.44810072,-6.433774,58.059837,-147.73062,-43.356148
-2.271901,0.43770143,-6.143375,60.60452,-150.46011,-41.723648
-1.7594633,0.4529074,-5.8162823,62.985207,-152.19492,-40.48397
-1.2152389,0.4999001,-5.4452653,65.069336,-152.93393,-39.0586
-0.68520445,0.5656658,-5.047901,66.81291,-152.63893,-37.403778
-0.118716255,0.7054311,-4.567102,68.01586,-150.984,-36.19202
0.44236636,0.89084065,-4.0560384,68.38914,-147.94437,-34.81315
0.9480456,1.1129354,-3.543674,68.00707,-144.04831,-32.88997
1.3932457,1.391145,-3.030974,66.62855,-139.58832,-30.616217
1.7691581,1.6840204,-2.5452821,63.937515,-134.19173,-28.437319
2.0213306,1.9652972,-2.1215239,60.431484,-128.38605,-26.500916
2.1665914,2.2204409,-1.7700115,56.214603,-122.55721,-24.582949
2.2266977,2.464232,-1.4778805,51.34435,-116.751884,-22.778065
2.201181,2.6896272,-1.242394,46.08908,-111.107376,-21.494112
2.1106613,2.8919642,-1.0527726,40.258175,-105.61148,-21.00758
1.9628805,3.0499241,-0.92522717,34.17186,-100.364296,-20.949245
1.7828846,3.1702094,-0.84903896,28.062046,-95.51802,-21.306705
1.5871625,3.2681882,-0.80377084,21.867075,-91.30177,-22.087555
1.4043804,3.330313,-0.78510386,15.558392,-87.60912,-23.061384
1.2307956,3.3385446,-0.80402946,9.324917,-84.557304,-24.307533
1.0959228,3.2703538,-0.8681391,3.478784,-82.01426,-25.458944
1.0187992,3.1569026,-0.9392409,-1.9989859,-79.815285,-26.300116
0.9795783,3.0004134,-1.009414,-7.071114,-77.774734,-27.05323
0.97165155,2.7908242,-1.0939312,-11.607636,-75.95273,-27.74522
0.99883366,2.5277355,-1.1825043,-15.297862,-74.4988,-28.08376
1.0968406,2.1886964,-1.2638204,-18.131538,-73.12617,-27.821842
1.2369664,1.8208195,-1.3295722,-20.01056,-71.45657,-27.114738
1.3962724,1.4413184,-1.3800222,-20.799786,-69.15228,-26.395994
1.5612695,1.076355,-1.4070681,-20.522224,-66.17035,-25.672476
1.7228796,0.7505069,-1.405181,-19.13698,-62.445644,-24.238682
1.8513036,0.48740685,-1.3599932,-17.222042,-58.391815,-22.238508
1.9556657,0.275742,-1.2832364,-14.848278,-54.010967,-19.877151
1.8877065,0.26615998,-1.2386441,-14.332301,-52.13409,-19.186422
1.8225505,0.2569732,-1.195891,-13.837608,-50.334633,-18.524185
1.760041,0.24815959,-1.1548746,-13.3630085,-48.60826,-17.888845
1.7000334,0.23969874,-1.1154999,-12.907405,-46.950993,-17.278936
1.6423947,0.23157187,-1.0776794,-12.469786,-45.359142,-16.693102
1.5870011,0.22376157,-1.0413321,-12.049213,-43.8293,-16.130089
1.5337386,0.21625173,-1.0063832,-11.64482,-42.35831,-15.588735
1.4825007,0.20902738,-0.9727628,-11.2558,-40.94324,-15.06796
1.4331887,0.20207456,-0.9404061,-10.881402,-39.58136,-14.566758
1.3857106,0.1953803,-0.90925264,-10.520926,-38.270123,-14.084196
1.3399801,0.18893248,-0.87924606,-10.173721,-37.007153,-13.619398
1.2959172,0.18271977,-0.8503335,-9.839175,-35.790237,-13.171547
1.2534463,0.17673151,-0.82246566,-9.516718,-34.617287,-12.739878
1.2124968,0.17095777,-0.7955961,-9.2058115,-33.48636,-12.323672
1.1730024,0.16538921,-0.7696813,-8.9059515,-32.395615,-11.9222555
1.1349006,0.16001698,-0.7446803,-8.616666,-31.34333,-11.534993
1.0981326,0.15483283,-0.7205545,-8.337507,-30.327883,-11.161288
1.0626429,0.14982891,-0.6972675,-8.068054,-29.34774,-10.800575
1.0283792,0.14499785,-0.67478484,-7.807909,-28.401455,-10.452323
0.9952918,0.14033264,-0.65307415,-7.556695,-27.48766,-10.116027
0.9633339,0.13582669,-0.6321045,-7.3140564,-26.605055,-9.79121
0.93246096,0.13147372,-0.6118468,-7.0796556,-25.752417,-9.477422
0.9026308,0.12726776,-0.59227335,-6.853172,-24.928576,-9.174232
0.8738034,0.123203196,-0.5733579,-6.634301,-24.13243,-8.881233
0.84594053,0.11927463,-0.5550752,-6.422754,-23.36292,-8.598038
0.81900597,0.11547696,-0.5374018,-6.218255,-22.619051,-8.324279
0.7929652,0.1118053,-0.52031475,-6.0205417,-21.899864,-8.059603
0.7677852,0.10825501,-0.5037926,-5.829364,-21.20445,-7.8036766
0.74343455,0.10482165,-0.4878146,-5.6444836,-20.531944,-7.55618
0.71988326,0.10150101,-0.47236112,-5.465672,-19.881512,-7.3168073
0.69710267,0.09828902,-0.45741332,-5.2927113,-19.252363,-7.085268
0.6750652,0.09518182,-0.44295314,-5.1253934,-18.643742,-6.8612823
0.65374476,0.09217571,-0.42896342,-4.9635186,-18.054918,-6.644583
0.633116,0.08926713,-0.4154276,-4.806896,-17.485199,-6.434915
0.6131549,0.08645268,-0.40232983,-4.6553426,-16.93392,-6.232033
0.59383833,0.08372911,-0.38965502,-4.5086827,-16.400442,-6.0357018
0.5751441,0.08109329,-0.37738854,-4.366748,-15.88415,-5.8456955
0.5570509,0.07854221,-0.36551642,-4.2293763,-15.384458,-5.6617985
0.53953826,0.07607299,-0.35402527,-4.0964127,-14.900799,-5.483802
0.5225865,0.07368286,-0.34290218,-3.9677076,-14.432631,-5.3115067
0.50617677,0.07136914,-0.33213472,-3.8431177,-13.979432,-5.14472
0.49029088,0.06912929,-0.32171097,-3.7225049,-13.540701,-4.983258
0.4749113,0.06696082,-0.31161946,-3.6057363,-13.1159525,-4.8269415
0.46002123,0.06486137,-0.30184913,-3.4926841,-12.704722,-4.6756005
0.4456044,0.06282865,-0.29238933,-3.3832254,-12.306563,-4.52907
0.4316452,0.060860455,-0.28322983,-3.277241,-11.921042,-4.3871903
0.41812864,0.058954664,-0.27436075,-3.1746173,-11.547746,-4.2498093
0.40504012,0.05710923,-0.26577252,-3.0752435,-11.186272,-4.1167793
0.3923657,0.055322178,-0.25745603,-2.9790134,-10.836233,-3.9879577
0.38009185,0.05359161,-0.24940237,-2.8858252,-10.497257,-3.8632078
0.36820555,0.051915687,-0.24160303,-2.7955792,-10.168986,-3.742397
0.35669425,0.050292633,-0.23404974,-2.7081804,-9.85107,-3.6253977
0.34554586,0.048720747,-0.22673456,-2.6235366,-9.543178,-3.5120866
0.3347486,0.047198374,-0.21964979,-2.541559,-9.244982,-3.4023445
0.32429117,0.045723915,-0.21278803,-2.4621618,-8.956173,-3.2960567
0.3141627,0.044295836,-0.2061421,-2.385262,-8.676448,-3.1931121
0.3043526,0.042912647,-0.19970506,-2.3107796,-8.405516,-3.0934036
0.2948507,0.041572914,-0.19347027,-2.2386367,-8.143095,-2.9968274
0.28564715,0.040275242,-0.18743122,-2.1687593,-7.8889136,-2.9032834
0.27673241,0.039018296,-0.18158169,-2.1010747,-7.6427093,-2.812675
0.26809728,0.03780077,-0.17591563,-2.035513,-7.404227,-2.7249086
0.25973287,0.036621418,-0.17042722,-1.9720066,-7.173221,-2.6398935
0.25163057,0.035479024,-0.16511078,-1.9104904,-6.9494543,-2.5575428
0.24378207,0.03437241,-0.15996088,-1.8509011,-6.732697,-2.4777718
0.23617932,0.033300452,-0.15497224,-1.7931777,-6.522727,-2.4004984
0.22881456,0.032262046,-0.15013975,-1.7372612,-6.319329,-2.3256438
0.22168022,0.03125613,-0.14545846,-1.6830941,-6.1222954,-2.2531312
0.21476907,0.030281682,-0.14092362,-1.6306216,-5.931425,-2.182887
0.20807402,0.029337704,-0.13653056,-1.5797898,-5.7465234,-2.1148393
0.20158827,0.028423237,-0.13227485,-1.5305471,-5.567402,-2.048919
0.19530523,0.02753735,-0.12815215,-1.4828435,-5.393879,-1.9850589
0.1892185,0.026679141,-0.12415827,-1.4366304,-5.2257776,-1.9231942
0.18332191,0.025847744,-0.12028915,-1.391861,-5.0629272,-1.8632619
0.17760949,0.025042312,-0.11654086,-1.3484896,-4.9051633,-1.8052015
0.17207544,0.02426203,-0.112909615,-1.3064727,-4.7523255,-1.7489542
0.16671415,0.023506109,-0.109391734,-1.2657675,-4.6042595,-1.6944627
0.16152021,0.022773782,-0.10598366,-1.2263328,-4.460815,-1.6416721
0.15648837,0.022064308,-0.10268195,-1.1881288,-4.321847,-1.590529
0.15161353,0.021376973,-0.09948326,-1.1511168,-4.1872153,-1.5409818
0.14689077,0.020711083,-0.09638436,-1.1152596,-4.0567837,-1.4929802
0.14231536,0.020065963,-0.093382135,-1.080521,-3.930421,-1.4464762
0.13788263,0.019440966,-0.09047355,-1.0468658,-3.8079996,-1.4014226
0.13358815,0.018835459,-0.08765567,-1.0142603,-3.689396,-1.357774
0.12942758,0.018248834,-0.08492565,-0.9826714,-3.5744908,-1.3154866
0.12539674,0.0176805,-0.08228076,-0.95206743,-3.4631681,-1.2745174
0.12149157,0.017129883,-0.07971833,-0.9224176,-3.3553162,-1.2348257
0.11770812,0.01659643,-0.077235766,-0.893692,-3.2508261,-1.1963712
0.1140426,0.016079606,-0.07483059,-0.86586183,-3.149593,-1.1591154
0.110491335,0.015578889,-0.07250038,-0.838899,-3.051515,-1.1230206
0.10705074,0.015093777,-0.070242785,-0.8127765,-2.9564939,-1.088051
0.103717364,0.014623783,-0.06805555,-0.787468,-2.8644338,-1.0541708
0.10048786,0.014168434,-0.06593646,-0.76294816,-2.7752423,-1.0213466
0.09735897,0.013727273,-0.0638834,-0.7391923,-2.6888297,-0.9895449
0.09432758,0.013299856,-0.06189431,-0.7161766,-2.6051095,-0.95873415
0.09139062,0.012885756,-0.059967186,-0.69387794,-2.5239975,-0.9288833
0.08854516,0.012484556,-0.0581001,-0.67227393,-2.4454126,-0.89996237
0.08578834,0.012095854,-0.056291174,-0.6513429,-2.3692756,-0.8719424
0.08311739,0.011719259,-0.054538596,-0.63106394,-2.29551,-0.84479517
0.08052964,0.011354395,-0.052840605,-0.6114166,-2.2240424,-0.8184936
0.07802249,0.011000896,-0.051195506,-0.5923812,-2.1548007,-0.7930112
0.07559343,0.010658407,-0.049601644,-0.57393867,-2.0877156,-0.76832247
0.07324001,0.010326584,-0.04805742,-0.5560705,-2.0227199,-0.7444027
0.070959896,0.010005095,-0.04656129,-0.5387588,-1.9597481,-0.7212278
0.068750784,0.009693618,-0.045111753,-0.5219863,-1.8987377,-0.6987747
0.06661047,0.0093918415,-0.043707356,-0.5057361,-1.8396271,-0.6770208
0.0645368,0.009099462,-0.042346694,-0.4899919,-1.7823573,-0.65594435
0.062527716,0.008816187,-0.041028403,-0.474738,-1.7268709,-0.63552415
0.060581185,0.008541733,-0.03975116,-0.4599591,-1.6731122,-0.6157399
0.058695264,0.0082758255,-0.03851369,-0.44564036,-1.6210275,-0.5965716
0.05686807,0.0080181975,-0.03731475,-0.4317675,-1.5705646,-0.57800025
0.055097766,0.007768591,-0.03615314,-0.4183266,-1.521673,-0.5600071
0.053382583,0.0075267563,-0.0350277,-0.40530416,-1.4743036,-0.54257417
0.051720805,0.0072924513,-0.0339373,-0.3926872,-1.4284091,-0.52568406
0.05011077,0.0070654415,-0.032880854,-0.38046306,-1.3839436,-0.50931984
0.048550855,0.0068454994,-0.031857297,-0.36861953,-1.3408624,-0.49346507
0.04703951,0.0066324053,-0.030865608,-0.35714474,-1.2991225,-0.47810394
0.04557522,0.0064259456,-0.029904794,-0.3460272,-1.2586821,-0.46322107
0.044156518,0.0062259133,-0.028973892,-0.33525577,-1.2195009,-0.44880155
0.042781983,0.006032109,-0.028071973,-0.32481968,-1.1815394,-0.43483093
0.04145024,0.005844338,-0.027198132,-0.31470853,-1.1447598,-0.42129526
0.040159956,0.0056624124,-0.026351497,-0.30491212,-1.1091251,-0.40818098
0.038909845,0.0054861507,-0.025531217,-0.2954207,-1.0745999,-0.395475
0.03769865,0.0053153764,-0.024736475,-0.28622478,-1.0411495,-0.38316455
0.03652516,0.0051499186,-0.023966474,-0.27731514,-1.0087404,-0.37123734
0.0353882,0.0049896115,-0.023220444,-0.26868284,-0.9773403,-0.35968143
0.034286637,0.0048342953,-0.022497639,-0.2603193,-0.94691765,-0.34848526
0.033219364,0.0046838135,-0.021797335,-0.2522161,-0.9174421,-0.33763766
0.03218532,0.0045380164,-0.021118829,-0.24436514,-0.88888407,-0.32712772
0.03118346,0.004396758,-0.020461448,-0.2367586,-0.86121505,-0.31694496
0.030212792,0.004259897,-0.019824529,-0.22938885,-0.83440745,-0.3070792
0.029272338,0.0041272966,-0.019207438,-0.22224851,-0.8084343,-0.29752055
0.02836116,0.003998824,-0.018609557,-0.21533045,-0.78326964,-0.28825945
0.027478347,0.00387435,-0.018030288,-0.20862775,-0.7588884,-0.27928662
0.026623014,0.0037537513,-0.01746905,-0.20213369,-0.73526615,-0.27059314
0.025794309,0.0036369066,-0.016925283,-0.19584179,-0.71237916,-0.26217026
