ax,ay,az,gx,gy,gz
-3.0100274,4.437313,-5.777325,-5.3818674,-50.43773,1.9418358
-3.3907115,4.6758738,-6.339878,-0.86931163,-69.91154,-11.575454
-3.556912,4.673976,-6.528646,3.7116659,-82.46765,-25.586811
-3.2531273,4.4857244,-6.5762253,6.269498,-87.38127,-34.727974
-2.7387207,4.20205,-6.7014713,6.6582932,-87.63831,-32.777195
-2.5863507,3.8336613,-6.893527,7.728137,-88.3871,-28.84777
-2.736307,3.470897,-7.0590158,11.207237,-89.87559,-27.883966
-2.894607,3.2433295,-7.0727115,14.884059,-92.003914,-29.771973
-2.9435563,3.1326659,-6.976395,17.794405,-95.05481,-32.09277
-2.8284876,3.079218,-6.867761,19.245918,-98.96961,-33.704384
-2.595907,3.003085,-6.748018,19.545805,-102.94616,-33.270527
-2.4616883,2.8766909,-6.642823,19.186995,-107.438515,-31.860756
-2.4020696,2.7105308,-6.528039,19.13633,-111.8849,-31.616108
-2.338102,2.557342,-6.3911033,19.857906,-116.23734,-32.816593
-2.2025726,2.494258,-6.156459,20.274942,-120.843735,-34.6993
-1.9051025,2.5060148,-5.7769117,19.482063,-125.180466,-35.644493
-1.5600387,2.4811535,-5.346343,17.436193,-129.15059,-35.112854
-1.2268099,2.3692193,-4.9183993,15.249129,-132.20152,-34.271275
-0.87954706,2.236082,-4.4851403,13.363713,-134.22223,-34.07099
-0.46452236,2.1185358,-4.027518,11.623979,-134.90288,-33.845505
0.005256019,2.0587,-3.5346875,9.490705,-134.62985,-33.02387
0.42636612,2.005524,-3.055251,6.831701,-133.56,-31.528643
0.7828307,1.9218526,-2.5998383,3.9925618,-131.61221,-30.006071
1.1110533,1.817459,-2.1773689,1.3407437,-128.86542,-28.53466
1.3971497,1.7236187,-1.7944015,-1.131834,-125.3246,-27.127636
1.6440462,1.6741172,-1.440642,-3.485131,-121.08725,-25.87569
1.841308,1.657542,-1.1211005,-5.7878575,-116.28086,-24.575907
1.971892,1.6667145,-0.8496487,-8.092637,-111.23144,-23.220566
2.0446315,1.7091017,-0.6156546,-10.430376,-106.00505,-22.168016
2.0668042,1.7833768,-0.41317335,-12.80823,-100.63477,-21.812023
2.030947,1.9019321,-0.23354967,-15.354078,-95.4129,-22.036077
1.9623474,2.0379586,-0.08248939,-18.188803,-90.29886,-22.654345
1.8650433,2.1680274,0.024985682,-21.205488,-85.23653,-23.652967
1.7591228,2.2967994,0.112069696,-24.496948,-80.31696,-25.020178
1.6683215,2.4060893,0.18577614,-28.38105,-75.59076,-26.480452
1.5913844,2.44995,0.20873187,-32.44484,-71.30839,-27.83696
1.5326318,2.42098,0.17205434,-36.29637,-67.36936,-29.392708
1.5184444,2.306549,0.07765187,-39.679787,-63.508163,-31.058815
1.5323595,2.1072752,-0.06312826,-42.471783,-59.8441,-32.41465
1.5456196,1.8307551,-0.23245952,-44.371346,-56.428383,-33.3295
1.5508108,1.4879688,-0.4073524,-45.502834,-53.29372,-33.94588
1.5550863,1.1337075,-0.5650647,-45.83669,-50.451523,-34.13819
1.5549054,0.7939074,-0.6940382,-45.428688,-47.800156,-33.89442
1.5508527,0.48000383,-0.7907484,-44.302162,-45.195007,-33.18547
1.557858,0.20461637,-0.8426286,-42.39478,-42.34418,-31.203596
1.5813886,-0.0047037136,-0.8271431,-40.196194,-39.12293,-28.157364
1.5268054,-0.004541361,-0.7985934,-38.808784,-37.772564,-27.185486
1.4744394,-0.0043856017,-0.7712034,-37.477726,-36.477043,-26.253082
1.4241692,-0.0042360774,-0.7449097,-36.199947,-35.233383,-25.358
1.3758835,-0.0040924554,-0.7196539,-34.972607,-34.03881,-24.49825
1.3294786,-0.003954428,-0.6953819,-33.793076,-32.890774,-23.67199
1.284859,-0.0038217101,-0.6720436,-32.65892,-31.786901,-22.877516
1.2419355,-0.0036940377,-0.6495926,-31.567877,-30.72499,-22.113243
1.2006253,-0.0035711639,-0.62798536,-30.517843,-29.702995,-21.377697
1.1608515,-0.0034528596,-0.60718167,-29.506859,-28.719006,-20.669504
1.1225418,-0.0033389106,-0.58714384,-28.533092,-27.771238,-19.987381
1.0856289,-0.003229116,-0.56783664,-27.59483,-26.858028,-19.33013
1.0500497,-0.0031232887,-0.549227,-26.690468,-25.977814,-18.696627
1.015745,-0.0030212523,-0.53128403,-25.818504,-25.129131,-18.085817
0.9826594,-0.0029228418,-0.5139786,-24.977522,-24.310604,-17.496712
0.9507404,-0.0028279012,-0.4972834,-24.166195,-23.52094,-16.928377
0.91993874,-0.0027362842,-0.48117265,-23.38327,-22.75892,-16.37994
0.890208,-0.0026478523,-0.465622,-22.627565,-22.023394,-15.85057
0.8615042,-0.0025624754,-0.45060855,-21.897964,-21.313272,-15.339486
0.83378595,-0.0024800296,-0.43611056,-21.193413,-20.627533,-14.845949
0.8070138,-0.002400398,-0.42210743,-20.512913,-19.965202,-14.369259
0.78115064,-0.00232347,-0.40857974,-19.855515,-19.325357,-13.908752
0.75616103,-0.0022491405,-0.39550894,-19.22032,-18.707125,-13.463801
0.7320114,-0.0021773092,-0.38287753,-18.606478,-18.109673,-13.033806
0.70866984,-0.0021078817,-0.37066874,-18.013176,-17.532211,-12.618198
0.68610597,-0.002040767,-0.35886675,-17.43964,-16.97399,-12.216437
0.6642908,-0.0019758798,-0.34745634,-16.885136,-16.434292,-11.828009
0.64319676,-0.0019131373,-0.33642316,-16.348963,-15.912433,-11.452419
0.6227975,-0.0018524614,-0.32575336,-15.830448,-15.4077635,-11.089201
0.60306793,-0.0017937772,-0.3154338,-15.328956,-14.9196615,-10.737906
0.5839839,-0.0017370133,-0.30545193,-14.843872,-14.44753,-10.398107
0.5655225,-0.0016821013,-0.2957957,-14.374615,-13.990802,-10.069392
0.54766166,-0.0016289757,-0.28645363,-13.920623,-13.548932,-9.751372
0.5303803,-0.0015775738,-0.27741468,-13.481361,-13.121399,-9.44367
0.51365834,-0.0015278355,-0.26866826,-13.056316,-12.707704,-9.145926
0.49747625,-0.0014797032,-0.26020423,-12.644996,-12.307365,-8.857798
0.48181552,-0.0014331217,-0.2520129,-12.246927,-11.919925,-8.578951
0.4666583,-0.0013880377,-0.24408495,-11.861656,-11.544941,-8.30907
0.45198742,-0.0013444005,-0.23641138,-11.488748,-11.18199,-8.047848
0.43778646,-0.0013021608,-0.22898358,-11.127783,-10.830664,-7.794993
0.42403954,-0.0012612717,-0.22179328,-10.77836,-10.49057,-7.5502224
0.41073143,-0.0012216878,-0.21483248,-10.440091,-10.161333,-7.3132653
0.3978475,-0.0011833656,-0.20809357,-10.112603,-9.842589,-7.083861
0.38537362,-0.001146263,-0.20156913,-9.795539,-9.533991,-6.8617578
0.37329623,-0.0011103398,-0.19525206,-9.488552,-9.235201,-6.646714
0.3616022,-0.0010755567,-0.1891355,-9.19131,-8.945895,-6.4384966
0.35027894,-0.0010418766,-0.1832129,-8.903492,-8.665762,-6.236881
0.3393143,-0.0010092632,-0.17747787,-8.624789,-8.394502,-6.04165
0.32869655,-0.0009776816,-0.17192426,-8.354904,-8.131823,-5.852596
0.3184144,-0.0009470981,-0.16654618,-8.093549,-7.8774457,-5.669517
0.30845687,-0.00091748027,-0.16133793,-7.8404465,-7.631101,-5.492219
0.29881352,-0.00088879693,-0.15629399,-7.595329,-7.392528,-5.3205147
0.28947416,-0.00086101773,-0.15140904,-7.3579383,-7.161476,-5.154223
0.28042898,-0.0008341135,-0.14667797,-7.128025,-6.9377017,-4.9931693
0.2716685,-0.00080805615,-0.14209582,-6.905349,-6.7209706,-4.8371844
0.26318356,-0.0007828184,-0.13765779,-6.6896763,-6.511057,-4.6861067
0.25496536,-0.000758374,-0.13335927,-6.4807835,-6.3077416,-4.5397773
0.24700531,-0.00073469756,-0.12919578,-6.278453,-6.1108136,-4.3980455
0.23929521,-0.00071176444,-0.12516302,-6.082475,-5.9200687,-4.260763
0.23182707,-0.00068955106,-0.12125681,-5.8926477,-5.7353096,-4.1277895
0.22459316,-0.00066803436,-0.11747313,-5.708774,-5.556346,-3.9989862
0.21758604,-0.00064719224,-0.113808066,-5.530665,-5.3829923,-3.8742213
0.2107985,-0.00062700326,-0.11025786,-5.3581376,-5.215071,-3.753366
0.20422357,-0.0006074467,-0.106818855,-5.1910143,-5.0524106,-3.6362965
0.19785453,-0.00058850244,-0.10348753,-5.029124,-4.8948426,-3.5228925
0.19168484,-0.0005701512,-0.10026048,-4.872301,-4.742207,-3.4130383
0.1857082,-0.0005523742,-0.09713441,-4.720385,-4.5943475,-3.3066216
0.17991851,-0.0005351532,-0.09410612,-4.573221,-4.4511127,-3.2035334
0.17430986,-0.00051847077,-0.09117253,-4.430659,-4.312357,-3.103669
0.16887656,-0.0005023098,-0.08833065,-4.2925534,-4.1779394,-3.0069263
0.16361307,-0.00048665397,-0.085577585,-4.1587644,-4.0477223,-2.9132073
0.15851404,-0.0004714873,-0.08291054,-4.0291557,-3.9215744,-2.8224165
0.15357429,-0.00045679443,-0.08032681,-3.903596,-3.799367,-2.734462
0.14878882,-0.0004425604,-0.07782378,-3.7819574,-3.6809764,-2.6492546
0.14415278,-0.00042877087,-0.0753989,-3.664117,-3.5662825,-2.5667076
0.13966146,-0.00041541184,-0.07304973,-3.5499556,-3.4551694,-2.4867377
0.13531035,-0.0004024698,-0.070773885,-3.4393578,-3.3475244,-2.409264
0.13109502,-0.00038993164,-0.068569064,-3.3322113,-3.2432387,-2.3342083
0.12701122,-0.00037778472,-0.066433035,-3.228408,-3.1422071,-2.2614942
0.12305483,-0.00036601673,-0.06436365,-3.1278434,-3.0443277,-2.1910489
0.11922186,-0.00035461588,-0.062358823,-3.0304158,-2.9495015,-2.122801
0.11550844,-0.0003435706,-0.060416523,-2.936027,-2.8576329,-2.0566819
0.11191082,-0.00033286976,-0.058534794,-2.8445818,-2.7686293,-1.9926245
0.108425386,-0.00032250263,-0.056711745,-2.7559881,-2.6824012,-1.9305648
0.10504863,-0.00031245872,-0.054945536,-2.6701565,-2.5988615,-1.87044
0.101777144,-0.00030272795,-0.053234387,-2.5870008,-2.5179262,-1.8121897
0.09860764,-0.00029330052,-0.051576585,-2.5064375,-2.439514,-1.7557552
0.095536925,-0.00028416692,-0.04997045,-2.4283853,-2.3635457,-1.7010797
0.092561916,-0.00027531802,-0.04841438,-2.3527658,-2.2899451,-1.6481084
0.08967963,-0.00026674487,-0.046906803,-2.2795029,-2.2186384,-1.5967878
0.08688716,-0.0002584389,-0.045446206,-2.208523,-2.1495538,-1.5470666
0.0841817,-0.00025039172,-0.04403112,-2.139755,-2.082622,-1.4988947
0.081560545,-0.00024259531,-0.042660125,-2.0731297,-2.0177755,-1.4522237
0.07902105,-0.00023504179,-0.041331846,-2.00858,-1.9549495,-1.4070069
0.076560676,-0.00022772359,-0.040044952,-1.9460415,-1.8940808,-1.3631986
0.074176945,-0.00022063339,-0.038798146,-1.8854512,-1.8351083,-1.3207552
0.07186747,-0.00021376404,-0.03759018,-1.8267484,-1.7779728,-1.279634
0.06962994,-0.00020710868,-0.036419842,-1.7698741,-1.7226171,-1.2397937
0.0674621,-0.00020066062,-0.035285957,-1.7147714,-1.6689857,-1.2011943
0.06536179,-0.0001944134,-0.034187388,-1.6613849,-1.6170247,-1.1637973
0.06332689,-0.00018836075,-0.03312304,-1.6096612,-1.5666821,-1.1275649
0.061355364,-0.00018249662,-0.032091834,-1.5595484,-1.5179074,-1.092461
0.05944524,-0.0001768151,-0.031092748,-1.5109963,-1.4706516,-1.0584503
0.0575946,-0.00017131053,-0.030124774,-1.4639564,-1.4248676,-1.0254989
0.055801596,-0.00016597737,-0.029186945,-1.4183811,-1.3805094,-0.99357355
0.054064423,-0.0001608103,-0.02827832,-1.3742253,-1.3375324,-0.9626424
0.052381348,-0.00015580413,-0.027397988,-1.3314443,-1.2958938,-0.9326744
0.05075068,-0.00015095384,-0.026545072,-1.2899956,-1.2555517,-0.9036396
0.049170792,-0.00014625458,-0.025718711,-1.2498374,-1.2164658,-0.87550896
0.047640093,-0.00014170165,-0.024918083,-1.2109298,-1.1785971,-0.8482542
0.04615706,-0.00013729047,-0.024142383,-1.1732335,-1.1419073,-0.82184803
0.0447202,-0.00013301666,-0.023390835,-1.136711,-1.10636,-0.79626405
0.043328077,-0.0001288759,-0.022662688,-1.1013256,-1.0719194,-0.7714767
0.041979298,-0.00012486406,-0.021957211,-1.067042,-1.0385512,-0.7474611
0.040672515,-0.000120977136,-0.0212737,-1.0338258,-1.0062219,-0.72419316
0.039406415,-0.000117211224,-0.020611469,-1.0016437,-0.97489905,-0.70164967
0.038179733,-0.00011356256,-0.019969855,-0.9704636,-0.94455147,-0.679808
0.036991242,-0.00011002749,-0.019348217,-0.94025415,-0.91514874,-0.6586464
0.035839755,-0.00010660248,-0.018745933,-0.9109853,-0.88666135,-0.6381436
0.034724113,-0.000103284096,-0.018162398,-0.8826276,-0.8590608,-0.6182791
0.033643205,-0.00010006902,-0.01759703,-0.8551528,-0.83231956,-0.599033
0.032595947,-9.6954034e-05,-0.017049264,-0.8285333,-0.80641085,-0.5803861
0.031581294,-9.3936025e-05,-0.01651855,-0.8027425,-0.78130865,-0.5623197
0.030598225,-9.101197e-05,-0.016004357,-0.77775455,-0.756988,-0.5448157
0.029645761,-8.8178946e-05,-0.0155061735,-0.75354457,-0.73342437,-0.52785665
0.028722947,-8.543411e-05,-0.015023497,-0.73008823,-0.71059436,-0.51142555
0.027828863,-8.277472e-05,-0.014555847,-0.7073621,-0.688475,-0.49550593
0.02696261,-8.019812e-05,-0.014102755,-0.68534344,-0.6670443,-0.4800819
0.026123324,-7.7701734e-05,-0.013663767,-0.6640102,-0.6462807,-0.46513802
0.025310164,-7.528306e-05,-0.013238446,-0.6433411,-0.6261634,-0.45065933
0.02452232,-7.293967e-05,-0.012826364,-0.62331545,-0.60667247,-0.43663138
0.023758998,-7.066924e-05,-0.01242711,-0.6039131,-0.5877882,-0.4230401
0.023019439,-6.8469475e-05,-0.012040284,-0.5851148,-0.5694918,-0.40987188
0.022302901,-6.6338194e-05,-0.011665501,-0.5669016,-0.55176497,-0.3971136
0.02160867,-6.4273256e-05,-0.011302384,-0.54925543,-0.5345899,-0.38475248
