ax,ay,az,gx,gy,gz
-1.1400104,0.41364014,-3.8763988,7.7127976,-20.363821,-46.720425
-1.1647817,0.3737884,-4.624262,-3.1743765,-28.400475,-54.03542
-0.9121365,0.005447628,-5.1386576,-4.8114133,-30.406212,-54.266026
-0.6303295,-0.38243723,-5.928246,-1.4520617,-31.49433,-52.755554
-0.71175265,-0.68364006,-6.7979307,9.058737,-38.105656,-51.980618
-1.0343333,-0.8389292,-7.4340854,17.842157,-48.748535,-50.19637
-1.150323,-0.85435385,-7.6562996,20.99284,-61.060394,-45.183735
-1.1254007,-0.91651386,-7.5215483,20.065195,-72.58527,-37.78759
-1.0402497,-1.034615,-7.134294,20.650234,-81.0512,-30.23873
-0.91044116,-1.0135671,-6.5601215,20.125883,-86.42984,-22.849474
-0.72151756,-0.8583041,-5.8223963,18.510551,-89.89084,-15.748103
-0.5422744,-0.6878669,-5.1101336,17.851778,-92.78939,-10.1162615
-0.32155427,-0.50189155,-4.388946,17.648813,-94.86759,-6.208048
-0.052751318,-0.33779007,-3.6923478,17.057028,-95.965866,-3.5105212
0.22364864,-0.24321498,-3.0605216,16.036755,-96.04654,-1.808219
0.5118718,-0.23109193,-2.4840875,14.894476,-94.85169,-0.2663227
0.76957625,-0.27362218,-1.9984456,13.978489,-92.57352,1.4115528
0.93885404,-0.3063429,-1.6075615,13.508193,-89.81607,2.688493
1.0272056,-0.31021452,-1.2865663,12.837042,-87.0596,3.4398746
1.0673603,-0.29558653,-1.0252875,11.991542,-84.68508,3.9459748
1.0817419,-0.25063264,-0.80587256,10.897847,-82.50247,4.409547
1.0906811,-0.20534788,-0.6178137,9.47714,-80.46357,4.782536
1.1171219,-0.19528297,-0.44566023,8.102645,-78.12615,5.207666
1.1459212,-0.2086239,-0.3047698,7.1722665,-75.23158,5.4714627
1.1512319,-0.22773708,-0.20508677,6.601051,-71.92137,5.460922
1.116424,-0.22673392,-0.1467951,6.1471157,-68.86977,5.513121
1.0551679,-0.20855494,-0.11519528,5.5790033,-66.216736,5.55346
0.9857696,-0.18736564,-0.10550628,4.9521527,-64.06312,5.513222
0.92682505,-0.17580876,-0.1019963,4.405105,-62.103363,5.304697
0.89661425,-0.19645469,-0.10174323,4.244936,-59.88936,5.127199
0.88482696,-0.23151429,-0.09533455,4.190478,-57.565758,5.2409577
0.87315625,-0.22713964,-0.065170325,3.8163223,-55.106724,5.733012
0.85333973,-0.19583789,-0.022901682,3.2385712,-52.63506,6.299865
0.82818645,-0.15663701,0.019690465,3.1879141,-50.22911,6.6143947
0.79862565,-0.113777086,0.057411436,3.5832205,-48.148083,6.265096
0.7949623,-0.1019098,0.1100324,4.3087487,-45.95986,5.936247
0.8233683,-0.106187135,0.16850454,5.2400203,-43.512836,6.1457357
0.87664634,-0.11186061,0.22659838,5.981657,-40.935516,6.785097
0.93848264,-0.105953194,0.2947925,6.3650627,-38.15297,7.6576037
0.90416634,-0.10207894,0.2840132,6.1323195,-36.75788,7.377598
0.8714304,-0.09838311,0.2737303,5.9102945,-35.427036,7.110487
0.8401713,-0.094854,0.26391134,5.698286,-34.15623,6.8554263
0.81029487,-0.091481,0.25452667,5.4956555,-32.94164,6.611648
0.78171545,-0.08825442,0.2455494,5.3018217,-31.779774,6.3784523
0.75435466,-0.08516544,0.23695494,5.116253,-30.667452,6.1552005
0.7281409,-0.082205944,0.22872078,4.9384637,-29.60176,5.941308
0.7030084,-0.07936853,0.22082625,4.7680078,-28.580027,5.736238
0.6788968,-0.07664636,0.2132524,4.6044755,-27.599794,5.5394974
0.6557502,-0.07403315,0.20598169,4.447489,-26.658796,5.3506317
0.63351727,-0.07152309,0.19899797,4.2966986,-25.754942,5.169221
0.6121505,-0.06911081,0.19228631,4.1517825,-24.886297,4.9948773
0.5916056,-0.06679133,0.18583284,4.0124416,-24.05107,4.8272405
0.5718417,-0.06456002,0.17962469,3.8783972,-23.247591,4.665976
0.55282074,-0.062412582,0.17364989,3.749391,-22.474314,4.5107727
0.5345071,-0.060344998,0.16789728,3.6251826,-21.729794,4.3613415
0.51686764,-0.05835353,0.16235644,3.5055466,-21.01268,4.217411
0.4998713,-0.056434672,0.15701762,3.3902726,-20.321712,4.0787287
0.4834891,-0.054585148,0.15187171,3.2791636,-19.655712,3.9450572
0.46769375,-0.052801877,0.14691013,3.172035,-19.013569,3.816174
0.45245963,-0.05108197,0.14212485,3.068713,-18.394245,3.6918707
0.4377627,-0.04942271,0.13750832,2.9690342,-17.796757,3.5719502
0.4235803,-0.047821537,0.13305338,2.8728447,-17.220186,3.4562278
0.40989092,-0.046276033,0.12875333,2.7799995,-16.66366,3.3445287
0.39667445,-0.044783913,0.12460183,2.6903615,-16.12636,3.2366881
0.38391173,-0.043343022,0.120592855,2.603801,-15.607506,3.13255
0.37158468,-0.041951317,0.11672073,2.5201955,-15.106362,3.0319667
0.35967612,-0.04060686,0.11298006,2.439428,-14.622234,2.9347982
0.3481698,-0.039307818,0.10936574,2.361389,-14.154457,2.8409116
0.33705026,-0.038052436,0.105872914,2.2859728,-13.702404,2.7501812
0.32630277,-0.036839064,0.10249695,2.2130804,-13.265477,2.6624863
0.31591338,-0.035666116,0.09923348,2.1426165,-12.843107,2.5777135
0.30586872,-0.03453209,0.096078284,2.0744905,-12.434753,2.4957535
0.29615608,-0.03343555,0.0930274,2.0086167,-12.039897,2.4165027
0.28676337,-0.032375127,0.09007699,1.9449127,-11.658047,2.3398623
0.277679,-0.031349517,0.08722345,1.8832998,-11.288732,2.265738
0.26889187,-0.030357465,0.08446327,1.823703,-10.931501,2.1940389
0.26039144,-0.029397778,0.08179314,1.7660505,-10.585925,2.124679
0.25216752,-0.028469311,0.07920988,1.7102735,-10.251591,2.0575755
0.24421045,-0.02757097,0.07671043,1.6563063,-9.928104,1.9926493
0.2365109,-0.026701704,0.07429188,1.6040857,-9.615088,1.9298244
0.22905996,-0.025860503,0.07195142,1.5535513,-9.312179,1.869028
0.22184907,-0.025046406,0.06968636,1.504645,-9.019028,1.8101903
0.21487002,-0.024258481,0.06749413,1.4573109,-8.735302,1.7532443
0.2081149,-0.02349584,0.06537224,1.4114958,-8.46068,1.6981256
0.20157614,-0.022757625,0.06331831,1.367148,-8.194855,1.6447723
0.19524646,-0.022043014,0.061330058,1.3242183,-7.937528,1.5931249
0.18911883,-0.021351214,0.059405267,1.2826589,-7.688416,1.543126
0.1831865,-0.020681463,0.05754183,1.2424241,-7.4472437,1.4947208
0.17744298,-0.02003303,0.055737697,1.2034699,-7.2137475,1.4478563
0.171882,-0.019405205,0.053990904,1.1657538,-6.9876723,1.4024812
0.16649756,-0.01879731,0.052299567,1.1292349,-6.7687736,1.3585465
0.16128384,-0.018208688,0.05066185,1.093874,-6.5568156,1.3160049
0.15623523,-0.01763871,0.049076002,1.0596329,-6.35157,1.2748104
0.15134636,-0.017086763,0.047540326,1.0264751,-6.152818,1.2349193
0.14661199,-0.01655226,0.046053186,0.9943652,-5.9603477,1.1962891
0.14202712,-0.016034635,0.044613004,0.96326923,-5.773955,1.1588786
0.13758689,-0.015533341,0.04321826,0.93315434,-5.5934424,1.1226482
0.13328664,-0.015047849,0.04186748,0.9039888,-5.4186206,1.08756
0.12912184,-0.0145776495,0.040559247,0.8757419,-5.2493052,1.0535772
0.12508813,-0.0141222505,0.039292194,0.8483841,-5.085319,1.0206639
0.121181294,-0.013681175,0.038064994,0.8218868,-4.926491,0.9887858
0.11739727,-0.0132539645,0.036876373,0.79622245,-4.7726555,0.9579098
0.11373212,-0.012840175,0.03572509,0.77136433,-4.623653,0.92800385
0.11018205,-0.012439378,0.034609955,0.74728674,-4.479329,0.8990368
0.10674338,-0.012051158,0.033529814,0.7239647,-4.339534,0.87097883
0.103412576,-0.011675115,0.03248355,0.7013742,-4.2041235,0.8438009
0.100186184,-0.0113108605,0.031470094,0.6794919,-4.0729585,0.817475
0.097060904,-0.0109580215,0.030488392,0.65829533,-3.9459035,0.79197407
0.094033524,-0.0106162345,0.029537443,0.6377627,-3.8228285,0.767272
0.09110093,-0.01028515,0.02861627,0.617873,-3.7036073,0.74334335
0.08826014,-0.009964429,0.027723929,0.59860593,-3.5881178,0.7201637
0.08550823,-0.009653742,0.02685951,0.5799417,-3.476242,0.6977093
0.0828424,-0.009352775,0.02602213,0.5618613,-3.3678658,0.6759574
0.080259934,-0.009061218,0.025210937,0.5443462,-3.2628787,0.6548856
0.0777582,-0.008778777,0.024425102,0.52737874,-3.1611733,0.63447255
0.07533465,-0.008505163,0.023663828,0.51094157,-3.0626469,0.6146975
0.07298684,-0.008240097,0.02292634,0.49501798,-2.9671988,0.59554034
0.07071236,-0.007983313,0.02221189,0.47959182,-2.8747325,0.5769816
0.06850892,-0.007734548,0.021519754,0.46464744,-2.785154,0.5590025
0.06637428,-0.0074935504,0.02084923,0.45016968,-2.6983728,0.5415848
0.06430628,-0.007260077,0.02019964,0.43614393,-2.6143007,0.52471083
0.06230284,-0.007033891,0.019570325,0.42255598,-2.5328526,0.5083636
0.060361914,-0.006814764,0.01896065,0.40939206,-2.4539466,0.49252653
0.058481555,-0.006602474,0.018369997,0.39663893,-2.3775027,0.47718364
0.05665986,-0.0063968077,0.017797774,0.38428366,-2.3034437,0.4623194
0.05489499,-0.006197557,0.0172434,0.3723138,-2.231695,0.44791886
0.05318517,-0.0060045207,0.016706318,0.36071727,-2.162184,0.43396744
0.051528666,-0.005817504,0.016185984,0.34948242,-2.0948408,0.42045113
0.04992382,-0.0056363195,0.015681876,0.33859786,-2.0295975,0.4073563
0.048369013,-0.0054607843,0.015193485,0.3280527,-1.9663885,0.39466974
0.046862673,-0.005290721,0.014720321,0.31783628,-1.90515,0.3823787
0.045403294,-0.0051259594,0.014261906,0.30793837,-1.8458205,0.37047082
0.043989405,-0.0049663335,0.01381778,0.29834893,-1.7883404,0.3589341
0.042619582,-0.0048116827,0.013387497,0.2890584,-1.7326517,0.34775695
0.041292448,-0.0046618516,0.012970623,0.2800574,-1.6786987,0.33692813
0.04000667,-0.0045166896,0.01256674,0.27133688,-1.6264268,0.32643676
0.03876096,-0.0043760506,0.012175442,0.2628881,-1.5757838,0.3162723
0.037554063,-0.004239794,0.011796336,0.2547026,-1.5267187,0.30642456
0.03638477,-0.0041077826,0.011429042,0.2467721,-1.4791824,0.29688364
0.035251904,-0.0039798836,0.011073191,0.23908867,-1.433127,0.28763995
0.03415433,-0.0038559695,0.010728424,0.2316446,-1.3885064,0.27868423
0.03309095,-0.0037359153,0.010394399,0.22443244,-1.3452758,0.2700075
0.03206069,-0.0036196006,0.010070778,0.21744493,-1.3033917,0.26160106
0.031062521,-0.0035069091,0.0097572375,0.21067506,-1.2628124,0.25345644
0.030095443,-0.0033977276,0.009453463,0.20411605,-1.2234968,0.24556552
0.029158486,-0.0032919466,0.00915915,0.19776133,-1.1854059,0.23792036
0.02825071,-0.00318946,0.008874003,0.19160452,-1.1485013,0.2305133
0.027371204,-0.0030901653,0.008597735,0.18563947,-1.1127459,0.22333692
0.026519088,-0.0029939627,0.008330072,0.17986017,-1.0781041,0.21638404
0.02569351,-0.0029007562,0.008070745,0.17426085,-1.0445411,0.20964769
0.02489364,-0.0028104521,0.007819493,0.16883591,-1.0120233,0.2031211
0.024118679,-0.0027229602,0.0075760647,0.1635799,-0.9805181,0.19679774
0.023367846,-0.0026381926,0.007340217,0.15848754,-0.9499939,0.1906713
0.022640396,-0.0025560646,0.007111713,0.15355375,-0.92042017,0.18473563
0.021935595,-0.0024764938,0.0068903235,0.1487736,-0.8917673,0.17898476
0.02125274,-0.0023994006,0.006675828,0.14414227,-0.8640066,0.17341296
0.020591147,-0.0023247078,0.0064680106,0.13965516,-0.8371102,0.16801466
0.019950153,-0.0022523405,0.0062666642,0.13530774,-0.8110513,0.16278443
0.019329116,-0.0021822264,0.0060715866,0.13109569,-0.7858038,0.15771705
0.018727414,-0.0021142953,0.0058825826,0.12701479,-0.7613423,0.15280743
0.018144447,-0.0020484792,0.0056994627,0.12306092,-0.73764235,0.14805067
0.01757963,-0.0019847122,0.0055220444,0.119230166,-0.7146803,0.143442
0.017032396,-0.0019229304,0.0053501497,0.11551867,-0.6924332,0.13897683
0.0165022,-0.001863072,0.0051836064,0.111922726,-0.67087865,0.13465066
0.01598851,-0.0018050773,0.0050222483,0.10843873,-0.64999515,0.13045917
0.015490812,-0.001748888,0.0048659137,0.1050632,-0.62976176,0.12639818
0.015008609,-0.001694448,0.0047144457,0.10179275,-0.6101583,0.122463614
0.014541417,-0.0016417027,0.004567693,0.09862412,-0.5911652,0.11865153
0.014088769,-0.0015905995,0.0044255094,0.095554136,-0.57276326,0.11495813
0.013650213,-0.0015410873,0.0042877514,0.092579715,-0.55493426,0.111379705
0.01322531,-0.0014931164,0.0041542826,0.0896979,-0.5376603,0.107912675
0.012813633,-0.0014466387,0.0040249685,0.086905785,-0.52092403,0.10455358
0.012414772,-0.001401608,0.0038996798,0.0842006,-0.50470877,0.101299055
0.012028328,-0.001357979,0.0037782914,0.08157962,-0.48899832,0.09814584
0.011653914,-0.0013157083,0.003660682,0.07904024,-0.47377694,0.095090784
0.011291155,-0.0012747534,0.0035467334,0.0765799,-0.45902938,0.09213083
0.010939688,-0.0012350733,0.003436332,0.07419615,-0.4447409,0.08926302
0.010599162,-0.0011966286,0.0033293676,0.07188661,-0.4308972,0.086484484
0.010269238,-0.0011593805,0.0032257328,0.06964896,-0.41748446,0.08379244
0.009949583,-0.0011232919,0.003125324,0.06748096,-0.40448922,0.08118419
