ax,ay,az,gx,gy,gz
-1.035464,0.9527359,-2.21002,-8.211893,-15.869235,-0.77637064
-1.2282121,1.0505375,-2.3720093,-4.299197,-28.228676,-2.2966
-1.1715895,1.015785,-2.3199766,-6.538996,-38.515152,-4.7104554
-0.9995902,0.764665,-2.2803235,-8.613987,-41.861633,-6.157157
-0.84774405,0.58458906,-2.3903575,-11.153341,-42.74249,-6.2309194
-0.7921818,0.39037192,-2.6592193,-12.327766,-44.325317,-5.9775677
-0.7453413,0.13654976,-3.012438,-11.430616,-46.327023,-6.3875422
-0.61674243,-0.09411584,-3.392773,-6.389209,-47.462032,-7.648026
-0.3457141,-0.34717205,-3.8538544,-1.6223545,-49.303665,-7.6527452
-0.105226815,-0.59551495,-4.278262,2.453828,-51.108135,-6.6679883
0.07061824,-0.7265187,-4.6397724,4.564757,-54.10636,-4.9927654
0.21504384,-0.7138095,-4.872406,4.1347013,-58.4052,-3.0587332
0.357015,-0.6278062,-4.9444427,1.6552583,-62.65272,-0.90524435
0.47427794,-0.5116828,-4.813557,-1.7818283,-66.14657,1.4079233
0.5019707,-0.3987346,-4.526708,-5.427088,-68.25762,3.992256
0.4123953,-0.27124342,-4.164003,-9.571859,-70.05695,6.199562
0.25443345,-0.22964557,-3.7702417,-12.537377,-72.22312,7.9941173
0.121432036,-0.22990972,-3.35286,-14.246437,-75.16561,9.949184
0.10717679,-0.17403983,-2.8688104,-16.201868,-78.13102,12.168381
0.2520439,-0.10212909,-2.3088942,-17.800653,-79.61182,13.981972
0.5028222,-0.051396422,-1.7158281,-18.766073,-79.076035,15.116478
0.7570623,-0.015931945,-1.1703744,-19.040176,-76.69548,15.431089
0.9324874,0.00817848,-0.7356031,-18.635557,-73.43737,14.747859
0.96892107,-0.012739629,-0.44601008,-18.2538,-70.72371,13.701811
0.97219425,-0.049995046,-0.23420733,-18.195765,-68.636406,12.855937
0.991153,-0.10376023,-0.07211837,-18.094013,-66.52229,12.530212
1.0296893,-0.16005494,0.04081501,-17.856405,-64.131615,12.490939
1.0702727,-0.2025143,0.107221946,-17.215721,-61.280178,11.890272
1.066213,-0.22100963,0.11354278,-16.032766,-58.58863,10.9261465
1.0333269,-0.21408774,0.101871505,-14.915631,-56.373558,10.1069565
0.98498213,-0.19731106,0.08100371,-14.267586,-54.5975,9.592336
0.9444972,-0.1931888,0.065256886,-13.932895,-52.999332,9.398235
0.9271884,-0.20114537,0.06436615,-13.604889,-50.88803,9.515527
0.8932933,-0.1999969,0.058047034,-13.121718,-48.466755,9.486898
0.8244272,-0.1868319,0.036841206,-12.586076,-46.136536,9.227522
0.7294042,-0.16887137,0.001334736,-12.038444,-44.221786,8.848318
0.6294244,-0.14746878,-0.03725673,-11.596965,-42.953197,8.592135
0.5588885,-0.12906449,-0.066247426,-11.314101,-42.20333,8.485435
0.5511324,-0.12640144,-0.07070966,-10.808056,-41.36776,8.268871
0.5726282,-0.12510696,-0.055508927,-10.046828,-40.15865,7.9575915
0.6087387,-0.1295926,-0.023882968,-9.269825,-38.430676,7.8727765
0.6463051,-0.13351715,0.017830862,-8.926366,-36.250805,8.03919
0.6767691,-0.13097401,0.059904255,-9.027841,-33.522762,8.072361
0.6879932,-0.114715256,0.08882938,-9.226066,-30.895899,7.753186
0.6933836,-0.10450495,0.113021,-9.505581,-28.598967,7.120783
0.69455177,-0.11251463,0.13088171,-9.5761385,-26.75889,6.4151936
0.67057866,-0.108631074,0.12636422,-9.245608,-25.835281,6.193767
0.64757925,-0.10490527,0.12203019,-8.928504,-24.949186,5.981334
0.62550044,-0.10132859,0.117869645,-8.624092,-24.09856,5.7774043
0.6042931,-0.09789309,0.11387333,-8.3316965,-23.28151,5.5815244
0.58391196,-0.094591424,0.11003269,-8.050691,-22.496288,5.3932743
0.56431484,-0.09141676,0.106339805,-7.7804956,-21.741272,5.2122664
0.54546267,-0.08836279,0.102787286,-7.520571,-21.014957,5.0381393
0.52731913,-0.0854236,0.099368304,-7.2704167,-20.315943,4.8705573
0.50985026,-0.082593724,0.096076466,-7.029565,-19.642923,4.7092075
0.4930245,-0.07986801,0.09290581,-6.7975793,-18.99468,4.553797
0.4768122,-0.07724169,0.08985076,-6.5740523,-18.370071,4.404053
0.46118572,-0.07471026,0.0869061,-6.358602,-17.768032,4.25972
0.446119,-0.07226951,0.08406691,-6.1508694,-17.18756,4.120557
0.43158767,-0.06991549,0.08132862,-5.9505186,-16.627712,3.9863386
0.4175687,-0.06764448,0.07868688,-5.757232,-16.087606,3.8568532
0.40404052,-0.06545296,0.07613762,-5.570712,-15.566407,3.7319007
0.39098266,-0.06333764,0.07367699,-5.3906765,-15.06333,3.6112924
0.37837586,-0.061295386,0.071301356,-5.2168603,-14.577629,3.4948502
0.36620188,-0.05932325,0.069007285,-5.049011,-14.108604,3.382406
0.35444346,-0.057418436,0.06679153,-4.8868923,-13.65559,3.2738
0.34308428,-0.055578288,0.06465099,-4.730277,-13.217956,3.1688812
0.33210874,-0.053800296,0.06258275,-4.578952,-12.795103,3.0675063
0.32150212,-0.05208207,0.06058404,-4.432713,-12.386463,2.969539
0.31125042,-0.050421335,0.058652204,-4.291368,-11.991498,2.8748496
0.30134028,-0.04881593,0.05678473,-4.1547318,-11.609692,2.783315
0.29175898,-0.047263797,0.054979224,-4.0226293,-11.240554,2.6948178
0.2824944,-0.045762975,0.053233404,-3.894894,-10.883619,2.609246
0.27353498,-0.044311583,0.051545084,-3.771366,-10.538441,2.5264926
0.26486966,-0.042907834,0.04991219,-3.6518927,-10.204594,2.446456
0.2564879,-0.04155002,0.04833272,-3.536329,-9.88167,2.369038
0.24837957,-0.040236507,0.046804786,-3.4245355,-9.569283,2.2941458
0.24053504,-0.03896572,0.045326553,-3.3163788,-9.267056,2.2216902
0.23294501,-0.037736166,0.043896288,-3.2117312,-8.974637,2.1515853
0.22560064,-0.03654641,0.042512313,-3.1104708,-8.691682,2.0837495
0.21849342,-0.035395067,0.041173022,-3.0124798,-8.417863,2.0181038
0.21161516,-0.034280818,0.03987688,-2.917646,-8.152865,1.9545733
0.20495805,-0.03320239,0.03862241,-2.825861,-7.896388,1.8930851
0.19851457,-0.032158572,0.037408195,-2.7370212,-7.6481404,1.8335701
0.19227743,-0.031148182,0.036232866,-2.6510267,-7.4078436,1.7759613
0.18623973,-0.030170098,0.03509512,-2.567782,-7.17523,1.7201943
0.18039477,-0.029223237,0.03399369,-2.4871943,-6.9500422,1.6662076
0.1747361,-0.028306555,0.032927368,-2.4091754,-6.7320313,1.6139416
0.16925754,-0.027419047,0.03189498,-2.3336396,-6.5209594,1.563339
0.1639531,-0.02655975,0.030895412,-2.2605045,-6.3165956,1.5143448
0.15881702,-0.025727728,0.029927569,-2.189691,-6.1187196,1.4669058
0.15384382,-0.024922088,0.028990414,-2.1211228,-5.9271173,1.4209709
0.14902811,-0.024141962,0.028082939,-2.0547261,-5.741583,1.3764908
0.14436474,-0.023386516,0.027204173,-1.9904301,-5.5619187,1.333418
0.13984878,-0.022654947,0.02635318,-1.9281662,-5.387933,1.2917064
0.13547541,-0.021946479,0.02552906,-1.8678683,-5.2194405,1.251312
0.13124001,-0.02126036,0.024730941,-1.8094727,-5.056264,1.212192
0.12713812,-0.020595873,0.023957979,-1.752918,-4.8982315,1.1743052
0.12316544,-0.019952314,0.023209365,-1.6981446,-4.7451763,1.1376116
0.11931781,-0.019329011,0.022484314,-1.6450952,-4.596939,1.1020732
0.1155912,-0.018725315,0.02178207,-1.5937146,-4.4533644,1.0676525
0.11198173,-0.018140595,0.0211019,-1.543949,-4.314303,1.0343138
0.108485654,-0.017574245,0.020443097,-1.4957469,-4.1796103,1.0020225
0.10509935,-0.017025677,0.01980498,-1.4490582,-4.0491467,0.970745
0.10181931,-0.016494324,0.019186888,-1.4038346,-3.922777,0.9404491
0.09864215,-0.015979636,0.018588182,-1.3600295,-3.8003712,0.9111034
0.0955646,-0.0154810855,0.018008245,-1.3175976,-3.6818027,0.88267773
0.092583485,-0.0149981575,0.017446483,-1.2764956,-3.5669498,0.8551429
0.08969575,-0.014530356,0.016902318,-1.236681,-3.4556947,0.82847047
0.086898446,-0.014077203,0.016375192,-1.1981131,-3.3479233,0.8026333
0.08418869,-0.013638235,0.015864564,-1.1607523,-3.243525,0.7776048
0.08156373,-0.013213001,0.015369915,-1.1245606,-3.1423936,0.75335944
0.07902088,-0.012801069,0.014890739,-1.089501,-3.0444255,0.7298725
0.07655754,-0.0124020185,0.014426546,-1.0555377,-2.9495208,0.70712
0.074171215,-0.012015442,0.0139768645,-1.0226362,-2.857583,0.6850788
0.071859464,-0.011640948,0.013541238,-0.990763,-2.768519,0.6637265
0.06961995,-0.011278156,0.013119223,-0.95988566,-2.6822374,0.6430413
0.0674504,-0.0109266965,0.012710391,-0.92997295,-2.5986512,0.62300235
0.0653486,-0.010586214,0.012314327,-0.90099436,-2.5176756,0.6035892
0.06331243,-0.010256363,0.011930631,-0.8729207,-2.4392285,0.58478224
0.061339837,-0.00993681,0.011558913,-0.84572345,-2.3632305,0.5665624
0.059428807,-0.00962723,0.011198797,-0.81937516,-2.2896047,0.5489113
0.05757742,-0.009327313,0.010849921,-0.7938491,-2.2182765,0.53181106
0.0557838,-0.009036754,0.01051193,-0.7691196,-2.149174,0.51524436
0.05404614,-0.00875526,0.0101844845,-0.7451616,-2.0822275,0.49919453
0.052362684,-0.008482547,0.009867253,-0.72195095,-2.017369,0.48364538
0.050731733,-0.00821834,0.009559916,-0.6994642,-1.9545338,0.4685812
0.049151648,-0.007962372,0.009262164,-0.67767876,-1.893658,0.45398682
0.047620833,-0.007714386,0.008973696,-0.65657264,-1.8346807,0.43984753
0.046137746,-0.007474132,0.008694223,-0.63612455,-1.777542,0.42614907
0.0447009,-0.0072413683,0.0084234625,-0.616314,-1.7221848,0.41287768
0.04330884,-0.00701586,0.008161142,-0.597121,-1.6685531,0.40002
0.041960172,-0.006797381,0.0079069985,-0.5785262,-1.6165932,0.3875631
0.040653538,-0.006585712,0.0076607754,-0.560511,-1.5662527,0.37549445
0.039387625,-0.006380639,0.007422226,-0.5430572,-1.5174811,0.3638019
0.038161162,-0.006181957,0.007191111,-0.52614737,-1.4702294,0.35247374
0.036972918,-0.005989466,0.006967197,-0.5097644,-1.4244499,0.34149855
0.035821695,-0.0058029722,0.00675026,-0.4938919,-1.380097,0.33086535
0.03470634,-0.005622289,0.006540082,-0.47851393,-1.3371259,0.32056344
0.033625733,-0.0054472354,0.006336452,-0.46361506,-1.2954935,0.31058246
0.03257879,-0.0052776346,0.0061391653,-0.44918033,-1.2551581,0.3009124
0.031564463,-0.0051133176,0.005948025,-0.43519527,-1.2160792,0.29154363
0.03058173,-0.0049541187,0.005762838,-0.42164585,-1.1782176,0.28246665
0.029629607,-0.0047998787,0.0055834195,-0.40851843,-1.1415354,0.27367243
0.02870714,-0.004650443,0.0054095895,-0.39579993,-1.1059957,0.2651521
0.027813405,-0.0045056613,0.0052411733,-0.38347754,-1.0715628,0.25689715
0.026947504,-0.004365389,0.0050780023,-0.37153894,-1.0382024,0.24889931
0.02610857,-0.0042294846,0.0049199136,-0.35997212,-1.005881,0.24115054
0.025295762,-0.0040978133,0.004766748,-0.34876555,-0.97456604,0.23364308
0.024508268,-0.003970242,0.004618352,-0.33790794,-0.9442263,0.22636943
0.023745297,-0.0038466437,0.0044745766,-0.32738847,-0.9148314,0.21932228
0.023006083,-0.003726894,0.004335279,-0.31719655,-0.8863519,0.21249457
0.022289887,-0.0036108734,0.004200319,-0.30732203,-0.8587591,0.20587946
0.021595994,-0.0034984653,0.004069561,-0.29775494,-0.8320256,0.19947036
0.020923706,-0.0033895574,0.0039428747,-0.28848577,-0.80612445,0.1932608
0.020272352,-0.0032840406,0.0038201332,-0.27950522,-0.7810298,0.1872446
0.019641278,-0.003181809,0.0037012133,-0.2708043,-0.7567165,0.1814157
0.019029852,-0.0030827606,0.0035859959,-0.26237425,-0.7331602,0.1757683
0.018437464,-0.002986796,0.003474366,-0.2542067,-0.71033734,0.17029674
0.01786352,-0.0028938192,0.0033662114,-0.24629341,-0.6882251,0.16499552
0.017307444,-0.0028037373,0.0032614244,-0.23862652,-0.6668013,0.15985936
0.01676868,-0.0027164598,0.0031598995,-0.23119833,-0.64604443,0.1548831
0.016246691,-0.0026318997,0.0030615355,-0.2240014,-0.6259338,0.15006179
0.015740953,-0.002549972,0.002966234,-0.21702853,-0.6064493,0.14539056
0.015250959,-0.002470595,0.0028738994,-0.21027273,-0.58757144,0.14086474
0.014776221,-0.0023936892,0.0027844394,-0.20372726,-0.5692812,0.13647985
0.014316262,-0.0023191776,0.0026977642,-0.19738556,-0.5515604,0.13223146
0.013870621,-0.0022469857,0.0026137875,-0.19124131,-0.53439134,0.12811533
0.013438854,-0.002177041,0.002532425,-0.18528831,-0.5177567,0.12412733
0.0130205285,-0.002109274,0.0024535956,-0.17952064,-0.5016399,0.12026348
0.012615225,-0.0020436165,0.0023772202,-0.17393252,-0.4860249,0.11651992
0.01222254,-0.001980003,0.0023032222,-0.16851836,-0.47089595,0.112892896
0.0118420785,-0.0019183698,0.0022315278,-0.16327275,-0.45623797,0.109378785
0.011473461,-0.0018586551,0.0021620654,-0.15819044,-0.4420363,0.10597406
0.011116318,-0.0018007995,0.0020947652,-0.15326633,-0.42827672,0.10267533
0.010770294,-0.0017447448,0.00202956,-0.14849551,-0.41494545,0.099479295
0.01043504,-0.0016904351,0.0019663847,-0.1438732,-0.40202922,0.096382745
0.010110223,-0.0016378161,0.0019051761,-0.13939479,-0.38951504,0.09338259
0.009795518,-0.0015868349,0.0018458727,-0.13505578,-0.3773904,0.09047582
0.009490608,-0.0015374408,0.0017884154,-0.13085184,-0.3656432,0.08765954
