ax,ay,az,gx,gy,gz
-1.1309193,0.6481877,-5.468231,-6.658242,-91.886284,-37.50943
-0.84269524,0.67001575,-5.908853,-19.015297,-103.91218,-42.029945
-0.5393409,0.164256,-6.198134,-23.34401,-107.27531,-41.761414
-0.34169772,-0.27425712,-6.5469522,-10.696265,-103.17226,-39.950226
-0.3932547,-0.3022241,-6.959335,-4.9729037,-105.166794,-41.990936
-0.39552942,-0.4842259,-6.9898953,-0.58445835,-109.16605,-41.253853
-0.25786477,-0.6924327,-6.7183003,3.5845275,-113.62998,-37.46518
-0.07390723,-0.7684061,-6.2799406,7.2298965,-117.95804,-32.381226
0.10382667,-0.6707753,-5.6949987,10.108782,-121.20634,-27.786943
0.2672447,-0.5039342,-5.0373225,12.548502,-123.6135,-24.657791
0.45116073,-0.3354852,-4.3246694,14.099343,-124.36908,-22.374897
0.6637729,-0.17261392,-3.5641377,14.504233,-124.22365,-19.69003
0.8798396,-0.030269323,-2.8525696,13.669282,-123.087074,-17.000845
1.0904313,0.055709485,-2.2210126,12.331534,-120.99005,-14.826442
1.2873572,0.08726,-1.6773671,11.248308,-117.88633,-13.433083
1.455383,0.08844678,-1.2197553,10.046653,-113.78093,-12.08935
1.5639559,0.084349155,-0.85894525,8.845173,-109.67051,-10.820047
1.6371799,0.07170989,-0.5577526,7.6087728,-105.34642,-9.682294
1.6624352,0.035831906,-0.3327563,6.2557597,-101.18806,-8.506634
1.6353545,-0.013139074,-0.17216119,5.4709716,-97.371605,-7.5587897
1.5832127,-0.056925528,-0.056998692,4.885102,-93.90385,-6.903343
1.5206689,-0.09496802,0.019441755,4.511249,-90.66829,-6.380385
1.46447,-0.110894814,0.09201228,4.1681166,-87.52995,-5.6949797
1.4131728,-0.11016884,0.16892321,3.747778,-84.58758,-5.0187635
1.3750212,-0.105422534,0.25885987,3.6164901,-81.3257,-4.254628
1.3287778,-0.08883513,0.33016837,3.4355128,-77.91332,-3.706197
1.2618325,-0.07641506,0.36982968,3.484209,-74.6827,-3.3221967
1.1871687,-0.058312036,0.39249814,3.658535,-71.686584,-3.227056
1.1164505,-0.042192698,0.4056973,3.7585495,-68.98322,-3.28786
1.0616504,-0.02889024,0.41807592,3.739028,-66.58703,-3.2959268
1.0378927,-0.019162279,0.43803474,3.7383642,-64.11245,-3.1720579
1.0494121,-0.011750261,0.4616737,3.7899024,-61.339874,-3.0330615
1.0614018,-0.0020752545,0.47213215,3.6992996,-58.386715,-3.0509083
1.0570909,-0.0010477778,0.46200004,3.4837859,-55.57858,-3.173617
1.0366601,-0.013473177,0.43885428,3.4195995,-53.031437,-3.19969
1.0061024,-0.036785305,0.40683344,3.5528157,-50.819794,-2.9789264
0.9876034,-0.06690002,0.37877557,3.947083,-48.641422,-2.6353889
0.96534485,-0.08424413,0.35531464,4.524918,-46.5248,-2.4251223
0.935141,-0.08397644,0.34111285,4.9441223,-44.627354,-2.3264887
0.90654147,-0.073190406,0.35017702,5.051255,-42.979908,-2.1990025
0.89225686,-0.0641321,0.39448634,5.003165,-41.112206,-1.770219
0.91003966,-0.061831612,0.47747448,4.9331746,-38.866814,-1.1374817
0.9619202,-0.06898514,0.5843863,5.033376,-36.180305,-0.25273392
1.0473127,-0.070255406,0.7065494,5.116319,-33.11099,0.7571902
1.0106558,-0.0677964,0.68181956,4.937243,-31.952074,0.73068786
0.9755356,-0.06544048,0.65812635,4.765674,-30.841743,0.7052965
0.9418641,-0.06318174,0.6354105,4.6011825,-29.77721,0.68095255
0.90956014,-0.06101474,0.6136173,4.443372,-28.755917,0.6575973
0.8785493,-0.058934484,0.59269637,4.2918777,-27.775501,0.63517696
0.84876245,-0.05693634,0.5726013,4.1463637,-26.833786,0.61364156
0.820136,-0.05501603,0.553289,4.0065184,-25.928755,0.5929451
0.79261076,-0.053169593,0.53471965,3.8720524,-25.05854,0.57304484
0.7661319,-0.05139335,0.5168562,3.742698,-24.221405,0.553901
0.74064827,-0.049683865,0.49966416,3.6182058,-23.415737,0.5354768
0.7161124,-0.048037957,0.48311144,3.4983432,-22.640028,0.5177377
0.69247967,-0.046452638,0.4671681,3.3828928,-21.892876,0.50065166
0.6697086,-0.04492512,0.45180607,3.2716522,-21.172966,0.48418856
0.64776033,-0.043452796,0.43699908,3.1644309,-20.479067,0.4683203
0.62659836,-0.042033214,0.42272255,3.0610504,-19.810026,0.4530205
0.6061883,-0.040664073,0.40895328,2.9613435,-19.164757,0.43826437
0.5864979,-0.03934321,0.39566955,2.8651521,-18.542242,0.42402852
0.5674968,-0.03806859,0.38285083,2.7723284,-17.941519,0.41029105
0.5491563,-0.036838282,0.3704778,2.6827316,-17.361681,0.3970312
0.5314494,-0.035650473,0.35853213,2.59623,-16.801874,0.38422936
0.5143504,-0.034503445,0.34699664,2.5126982,-16.261286,0.37186706
0.49783507,-0.03339557,0.3358549,2.4320178,-15.73915,0.35992673
0.48188046,-0.03232531,0.3250914,2.3540764,-15.234742,0.3483918
0.46646473,-0.031291198,0.31469148,2.2787676,-14.747371,0.33724648
0.45156717,-0.030291844,0.30464113,2.2059903,-14.2763815,0.3264758
0.4371681,-0.029325932,0.29492706,2.1356483,-13.821153,0.3160655
0.42324877,-0.028392201,0.28553665,2.0676496,-13.38109,0.30600205
0.40979132,-0.027489454,0.27645785,2.0019073,-12.95563,0.29627252
0.3967787,-0.026616547,0.26767915,1.9383384,-12.544234,0.2868646
0.3841947,-0.025772393,0.25918958,1.8768632,-12.146389,0.2777666
0.37202382,-0.024955949,0.2509787,1.817406,-11.761603,0.2689672
0.36025116,-0.02416622,0.24303652,1.7598945,-11.389409,0.2604558
0.3488626,-0.023402257,0.23535344,1.7042592,-11.029357,0.25222203
0.3378445,-0.022663146,0.22792031,1.6504337,-10.681018,0.24425612
0.3271839,-0.021948017,0.22072834,1.5983547,-10.343981,0.23654869
0.31686834,-0.021256033,0.21376914,1.5479612,-10.017853,0.2290907
0.30688584,-0.020586392,0.20703465,1.499195,-9.702254,0.22187352
0.29722497,-0.019938326,0.20051712,1.4519998,-9.396824,0.21488887
0.2878747,-0.019311093,0.19420914,1.4063219,-9.101213,0.20812877
0.27882445,-0.01870399,0.18810357,1.3621098,-8.815088,0.20158559
0.2700641,-0.018116329,0.18219355,1.3193138,-8.538127,0.19525199
0.2615838,-0.017547458,0.1764725,1.277886,-8.270021,0.18912087
0.25337425,-0.016996747,0.17093407,1.2377807,-8.010475,0.18318549
0.24542633,-0.016463589,0.16557217,1.1989536,-7.7592,0.17743929
0.23773138,-0.0159474,0.16038091,1.1613624,-7.5159225,0.17187595
0.230281,-0.015447617,0.15535466,1.1249659,-7.2803774,0.16648945
0.22306713,-0.014963699,0.15048796,1.0897248,-7.0523095,0.16127394
0.21608198,-0.014495123,0.14577556,1.055601,-6.831473,0.15622379
0.20931806,-0.014041388,0.1412124,1.022558,-6.61763,0.15133357
0.20276812,-0.013602008,0.13679361,0.99056023,-6.4105525,0.14659807
0.19642518,-0.013176515,0.13251449,0.95957386,-6.2100196,0.14201225
0.19028255,-0.012764457,0.12837048,0.92956597,-6.015819,0.13757122
0.18433371,-0.012365399,0.1243572,0.90050477,-5.8277454,0.13327031
0.17857239,-0.011978921,0.120470434,0.87235963,-5.6456003,0.12910496
0.17299254,-0.0116046155,0.1167061,0.84510106,-5.4691925,0.12507083
0.16758834,-0.011242093,0.11306025,0.81870043,-5.298337,0.121163666
0.16235411,-0.010890972,0.10952908,0.7931303,-5.132856,0.117379405
0.15728441,-0.010550889,0.10610891,0.76836383,-4.9725766,0.11371409
0.15237398,-0.01022149,0.10279618,0.74437547,-4.8173323,0.110163935
0.14761773,-0.009902433,0.09958747,0.7211403,-4.6669626,0.106725246
0.14301074,-0.009593388,0.09647945,0.69863427,-4.5213118,0.10339446
0.13854824,-0.009294037,0.09346891,0.67683417,-4.380229,0.100168146
0.13422565,-0.00900407,0.09055276,0.6557175,-4.24357,0.097042985
0.13003853,-0.008723191,0.087727994,0.6352626,-4.1111927,0.094015755
0.12598255,-0.00845111,0.08499171,0.6154484,-3.9829624,0.091083355
0.12205358,-0.008187548,0.082341105,0.59625465,-3.858747,0.08824277
0.11824758,-0.007932236,0.07977346,0.57766163,-3.73842,0.0854911
0.114560686,-0.007684913,0.07728617,0.5596504,-3.621858,0.08282553
0.11098911,-0.007445326,0.07487667,0.5422026,-3.508942,0.080243334
0.107529216,-0.007213231,0.072542526,0.5253004,-3.3995566,0.07774189
0.10417749,-0.006988392,0.07028135,0.5089266,-3.2935913,0.07531865
0.10093052,-0.00677058,0.06809083,0.49306452,-3.1909375,0.072971135
0.097784996,-0.0065595736,0.065968774,0.47769806,-3.0914912,0.07069698
0.09473774,-0.0063551585,0.063912995,0.46281165,-2.9951518,0.06849386
0.091785654,-0.0061571277,0.06192143,0.44839013,-2.901821,0.06635955
0.08892575,-0.005965281,0.05999205,0.43441895,-2.8114045,0.06429188
0.086155124,-0.005779423,0.0581229,0.42088392,-2.7238107,0.062288765
0.08347098,-0.0055993665,0.056312095,0.4077714,-2.6389508,0.060348175
0.080870606,-0.005424929,0.054557804,0.39506808,-2.5567396,0.058468144
0.07835137,-0.005255935,0.05285825,0.38276115,-2.4770935,0.05664678
0.07591073,-0.005092213,0.05121172,0.37083817,-2.3999321,0.054882236
0.07354623,-0.004933598,0.04961655,0.3592871,-2.325178,0.053172737
0.07125547,-0.0047799307,0.048071135,0.34809634,-2.2527552,0.05151656
0.069036156,-0.004631055,0.04657392,0.33725455,-2.1825912,0.049912028
0.066886045,-0.004486822,0.045123383,0.32675087,-2.114615,0.04835753
0.06480297,-0.0043470864,0.043718077,0.31657466,-2.0487583,0.0468515
0.062784836,-0.0042117066,0.042356584,0.3067157,-1.9849545,0.045392424
0.060829613,-0.0040805475,0.041037533,0.29716408,-1.9231398,0.043978833
0.058935337,-0.0039534764,0.039759595,0.28791016,-1.8632519,0.0426093
0.0571001,-0.0038303656,0.038521487,0.2789447,-1.8052305,0.041282453
0.05532206,-0.0037110916,0.037321962,0.27025864,-1.7490174,0.039996956
0.05359942,-0.0035955347,0.03615982,0.26184323,-1.6945559,0.03875152
0.051930465,-0.0034835783,0.035033893,0.25369006,-1.6417916,0.03754489
0.05031351,-0.0033751104,0.033943046,0.24579094,-1.5906712,0.036375858
0.048746936,-0.003270022,0.032886185,0.23813792,-1.5411437,0.03524325
0.047229163,-0.0031682076,0.03186225,0.23072334,-1.493159,0.034145925
0.045758676,-0.003069565,0.030870214,0.22353972,-1.4466693,0.033082787
0.044333998,-0.0029739952,0.02990908,0.2165799,-1.4016278,0.032052767
0.042953696,-0.0028814024,0.028977886,0.20983686,-1.3579893,0.03105483
0.041616388,-0.0027916937,0.028075699,0.20330386,-1.3157101,0.030087978
0.040320735,-0.0027047792,0.02720161,0.19697435,-1.2747477,0.02915124
0.039065436,-0.0026205715,0.026354745,0.19084197,-1.2350612,0.02824368
0.03784923,-0.0025389865,0.025534255,0.18490058,-1.1966106,0.027364383
0.0366709,-0.0024599426,0.02473932,0.17914423,-1.1593575,0.026512472
0.03552927,-0.00238336,0.02396914,0.17356715,-1.1232647,0.02568709
0.03442319,-0.0023091624,0.023222946,0.16816375,-1.0882957,0.024887413
0.033351555,-0.0022372755,0.022499986,0.16292861,-1.0544158,0.024112638
0.03231329,-0.002167627,0.021799542,0.15785648,-1.0215908,0.023361988
0.031307355,-0.0021001473,0.021120908,0.1529423,-0.989788,0.022634715
0.030332744,-0.0020347687,0.020463403,0.14818114,-0.9589755,0.021930085
0.02938848,-0.001971426,0.019826373,0.14356823,-0.9291224,0.021247398
0.028473618,-0.0019100555,0.019209178,0.13909896,-0.9001988,0.020585965
0.027587239,-0.0018505959,0.018611202,0.13476884,-0.8721758,0.01994513
0.026728459,-0.0017929876,0.018031841,0.13057354,-0.8450253,0.019324245
0.025896417,-0.001737173,0.017470522,0.12650886,-0.81872016,0.018722693
0.02509028,-0.001683096,0.016926676,0.12257073,-0.793234,0.018139869
0.024309242,-0.0016307028,0.016399764,0.118755214,-0.76854134,0.017575191
0.023552522,-0.0015799407,0.015889257,0.11505848,-0.74461746,0.017028093
0.022819359,-0.0015307589,0.015394643,0.111476846,-0.72143835,0.01649803
0.022109022,-0.0014831084,0.014915427,0.10800672,-0.6989809,0.015984466
0.0214208,-0.0014369413,0.014451131,0.10464463,-0.67722267,0.015486893
0.020754004,-0.0013922115,0.01400129,0.101387195,-0.65614176,0.01500481
0.020107966,-0.0013488743,0.013565453,0.09823118,-0.63571715,0.014537735
0.019482039,-0.0013068862,0.013143184,0.09517342,-0.61592835,0.014085201
0.018875599,-0.0012662052,0.012734061,0.092210844,-0.5967557,0.013646754
0.018288039,-0.0012267907,0.012337674,0.08934049,-0.5781798,0.013221957
0.017718768,-0.0011886032,0.011953627,0.086559504,-0.5601822,0.012810384
0.01716722,-0.0011516045,0.011581535,0.08386509,-0.54274493,0.012411623
0.016632842,-0.0011157575,0.011221027,0.08125455,-0.5258504,0.012025276
0.016115097,-0.0010810264,0.010871742,0.07872528,-0.5094819,0.011650956
0.015613472,-0.0010473765,0.010533329,0.07627474,-0.49362287,0.011288289
0.015127461,-0.0010147742,0.010205451,0.07390048,-0.47825757,0.010936911
0.01465658,-0.0009831868,0.00988778,0.07160014,-0.46337056,0.010596471
0.014200357,-0.0009525825,0.009579998,0.0693714,-0.44894698,0.010266629
0.013758335,-0.000922931,0.009281796,0.067212045,-0.43497238,0.009947055
0.013330073,-0.00089420256,0.008992878,0.06511991,-0.4214328,0.009637428
