ax,ay,az,gx,gy,gz
-0.36545786,0.16545604,-2.3882036,17.0347,-3.329121,-30.906647
-0.8731535,-0.04107145,-2.9922667,23.720629,-8.634999,-37.11899
-1.1707398,-0.10212672,-3.2701032,19.270107,-15.864545,-34.512337
-1.229802,-0.13220704,-3.4957905,12.640201,-21.812502,-28.319601
-1.1949177,-0.30165362,-3.7860718,8.941823,-25.396698,-21.937164
-1.1800371,-0.40696254,-4.1486483,5.9469814,-26.769321,-16.185701
-1.319619,-0.4212406,-4.6820703,5.255042,-28.837536,-12.490393
-1.5043955,-0.39595157,-5.2356186,4.0884824,-33.075417,-11.749167
-1.6004746,-0.605855,-5.700877,4.6649446,-37.803864,-11.999632
-1.5997132,-0.9078141,-6.061919,6.8757453,-42.962196,-11.635279
-1.5179375,-1.1636856,-6.30211,9.513594,-48.638817,-9.405694
-1.3904362,-1.2551211,-6.343368,11.475681,-55.15451,-5.624371
-1.2114699,-1.1452835,-6.1244845,13.002235,-61.492588,-2.996086
-0.96174175,-0.9170402,-5.609372,14.848713,-65.55925,-2.601646
-0.74628156,-0.7530956,-5.049088,16.19809,-67.81539,-2.7543015
-0.5990187,-0.6803034,-4.516033,16.796694,-69.881134,-1.6962112
-0.45506874,-0.565265,-3.9425883,15.678312,-73.02479,1.6248603
-0.2713138,-0.36900142,-3.3214157,13.157286,-77.11828,6.0435014
-0.01683717,-0.14439721,-2.640435,10.372399,-80.11205,8.7412195
0.27960205,-0.037042253,-1.9736532,8.397765,-80.76391,9.360156
0.5667289,-0.04021034,-1.3903797,7.297127,-79.12328,9.01791
0.79009664,-0.07486491,-0.93036765,6.66188,-76.420395,8.911012
0.94994646,-0.06366881,-0.57326335,5.861156,-73.72802,9.4445305
1.0748206,0.021512363,-0.27852044,4.9180317,-71.113266,9.840955
1.1959876,0.11165804,-0.022722052,4.1673403,-68.20644,9.744817
1.3061948,0.19220586,0.18415633,3.566588,-64.75167,9.188069
1.3822819,0.2660861,0.32972202,3.0899491,-60.813747,8.395093
1.4021143,0.35901424,0.40194127,2.6612413,-56.897064,7.2307563
1.3831613,0.4721425,0.4311842,2.0524797,-53.253555,5.9337254
1.3569034,0.60246307,0.44126323,1.1261191,-49.754128,4.495797
1.3179361,0.741598,0.42655003,0.13157645,-46.290634,2.6236029
1.2596312,0.8878103,0.38779163,-0.7628746,-43.063557,0.27923554
1.1929314,1.0434183,0.3458583,-2.0025198,-40.367943,-2.1355407
1.1263015,1.2255677,0.31713817,-3.9342153,-38.012474,-4.321748
1.0639594,1.4097021,0.29142392,-6.495425,-35.83703,-6.5550513
1.010558,1.571263,0.26083702,-9.209112,-33.62004,-9.257069
0.9522527,1.6971637,0.21023686,-11.61253,-31.353495,-12.845235
0.88949645,1.7733954,0.14408045,-13.806217,-29.27394,-17.084538
0.8058892,1.7626643,0.05849307,-16.194294,-27.797462,-20.964123
0.72636276,1.6806961,-0.030270018,-18.894043,-27.158203,-24.125519
0.6832649,1.5197006,-0.107993774,-21.728003,-27.191433,-26.597694
0.70528024,1.2820299,-0.16298431,-24.374998,-27.404886,-28.754738
0.7954146,0.963163,-0.19257072,-26.258144,-26.732061,-30.57762
0.91285056,0.576805,-0.23335847,-27.506289,-25.49858,-31.684174
1.0132035,0.19519664,-0.28248724,-28.528166,-24.148926,-31.647625
1.0919049,-0.13350952,-0.3180542,-29.638699,-22.913116,-30.482126
1.0542167,-0.12890132,-0.30707625,-28.61569,-22.122248,-29.430008
1.0180594,-0.12448028,-0.2965442,-27.634233,-21.363503,-28.420622
0.9833493,-0.120236196,-0.28643373,-26.692062,-20.635128,-27.451637
0.9500093,-0.11615965,-0.2767223,-25.78708,-19.935503,-26.520903
0.9179681,-0.112241894,-0.26738924,-24.91735,-19.263132,-25.626425
0.8871594,-0.10847486,-0.25841516,-24.081081,-18.616629,-24.766357
0.85752195,-0.10485102,-0.24978225,-23.2766,-17.9947,-23.938982
0.82899845,-0.10136339,-0.24147382,-22.502357,-17.396147,-23.142708
0.80153567,-0.098005466,-0.23347436,-21.756908,-16.819853,-22.376045
0.7750839,-0.09477115,-0.22576939,-21.038898,-16.264774,-21.637604
0.7495966,-0.091654755,-0.21834533,-20.34707,-15.729936,-20.926088
0.7250301,-0.08865097,-0.21118954,-19.680239,-15.21442,-20.24028
0.7013438,-0.08575478,-0.20429008,-19.037294,-14.717373,-19.57904
0.67849904,-0.08296151,-0.19763577,-18.417196,-14.237987,-18.941296
0.6564598,-0.08026673,-0.19121611,-17.818964,-13.775504,-18.326038
0.63519216,-0.07766629,-0.18502118,-17.241674,-13.329212,-17.73232
0.6146639,-0.07515625,-0.17904162,-16.684454,-12.898436,-17.159245
0.59484476,-0.072732925,-0.17326863,-16.146482,-12.48254,-16.605963
0.575706,-0.070392795,-0.16769384,-15.626981,-12.080923,-16.071678
0.55722064,-0.06813254,-0.16230933,-15.125213,-11.693016,-15.555632
0.53936285,-0.06594903,-0.15710765,-14.64048,-11.318278,-15.057104
0.5221082,-0.06383927,-0.15208165,-14.172119,-10.956198,-14.575416
0.50543356,-0.061800428,-0.1472246,-13.719502,-10.606288,-14.109919
0.48931685,-0.059829805,-0.14253007,-13.28203,-10.268086,-13.659997
0.4737371,-0.057924837,-0.13799194,-12.859134,-9.941153,-13.225066
0.45867434,-0.05608308,-0.1336044,-12.45027,-9.625068,-12.804567
0.4441095,-0.054302208,-0.1293619,-12.054921,-9.319431,-12.397968
0.4300244,-0.05257999,-0.12525913,-11.672594,-9.023862,-12.004762
0.41640165,-0.05091431,-0.12129105,-11.302818,-8.737995,-11.624462
0.40322465,-0.049303133,-0.11745281,-10.945142,-8.461482,-11.256608
0.39047757,-0.047744516,-0.11373979,-10.599134,-8.19399,-10.900754
0.37814516,-0.04623661,-0.11014756,-10.264383,-7.9352,-10.556477
0.36621287,-0.044777624,-0.10667188,-9.940493,-7.6848073,-10.22337
0.3546668,-0.04336586,-0.10330869,-9.627086,-7.4425178,-9.901044
0.34349352,-0.04199968,-0.1000541,-9.323798,-7.208052,-9.589126
0.33268023,-0.040677514,-0.09690436,-9.030282,-6.98114,-9.287256
0.3222146,-0.039397858,-0.09385589,-8.746202,-6.7615232,-8.995093
0.31208476,-0.038159262,-0.090905234,-8.471238,-6.5489535,-8.712304
0.30227938,-0.03696034,-0.088049084,-8.20508,-6.343192,-8.438573
0.29278752,-0.03579975,-0.08528426,-7.947433,-6.14401,-8.1735935
0.28359866,-0.034676205,-0.082607694,-7.69801,-5.9511857,-7.9170723
0.27470264,-0.033588473,-0.080016434,-7.456537,-5.7645073,-7.6687274
0.2660898,-0.03253536,-0.077507645,-7.2227488,-5.5837703,-7.4282866
0.25775066,-0.03151572,-0.07507859,-6.996392,-5.408778,-7.195488
0.24967627,-0.030528447,-0.07272665,-6.77722,-5.2393403,-6.9700794
0.24185789,-0.029572474,-0.070449285,-6.564997,-5.075275,-6.7518177
0.2342871,-0.028646778,-0.06824403,-6.3594956,-4.9164057,-6.540468
0.22695583,-0.02775037,-0.066108555,-6.1604958,-4.7625628,-6.335805
0.21985628,-0.026882293,-0.06404057,-5.9677854,-4.6135817,-6.1376104
0.21298091,-0.026041625,-0.062037885,-5.78116,-4.469305,-5.9456744
0.20632245,-0.025227481,-0.060098384,-5.6004224,-4.3295803,-5.7597938
0.19987386,-0.024439,-0.058220018,-5.425382,-4.19426,-5.579772
0.19362842,-0.023675356,-0.05640082,-5.255855,-4.0632024,-5.4054213
0.18757954,-0.022935748,-0.05463888,-5.0916643,-3.9362695,-5.236558
0.18172094,-0.022219403,-0.052932363,-4.932638,-3.8133295,-5.0730066
0.17604649,-0.021525577,-0.051279493,-4.778611,-3.6942537,-4.914596
0.17055032,-0.020853547,-0.04967854,-4.6294227,-3.578919,-4.7611623
0.1652267,-0.020202618,-0.04812786,-4.484918,-3.4672055,-4.6125455
0.16007015,-0.019572116,-0.04662584,-4.344949,-3.3589976,-4.468593
0.15507534,-0.018961389,-0.045170933,-4.209369,-3.2541838,-4.3291554
0.15023711,-0.018369809,-0.043761637,-4.0780406,-3.152656,-4.1940894
0.1455505,-0.017796768,-0.042396504,-3.9508271,-3.0543098,-4.063256
0.14101072,-0.017241677,-0.041074134,-3.8275988,-2.9590442,-3.9365208
0.13661306,-0.016703967,-0.03979317,-3.7082288,-2.8667614,-3.8137538
0.13235305,-0.016183088,-0.038552303,-3.592595,-2.7773674,-3.6948297
0.12822635,-0.015678508,-0.03735026,-3.4805799,-2.6907704,-3.5796268
0.12422874,-0.01518971,-0.036185816,-3.3720684,-2.6068823,-3.4680274
0.12035612,-0.014716198,-0.035057787,-3.2669501,-2.5256174,-3.3599176
0.116604574,-0.014257488,-0.033965025,-3.165118,-2.4468927,-3.2551877
0.11297028,-0.013813115,-0.032906413,-3.0664685,-2.3706288,-3.153731
0.109449536,-0.013382627,-0.031880878,-2.9709015,-2.2967477,-3.0554445
0.10603878,-0.012965586,-0.030887378,-2.8783197,-2.2251744,-2.9602282
0.10273454,-0.01256157,-0.029924909,-2.7886295,-2.1558366,-2.8679855
0.09953349,-0.0121701695,-0.028992493,-2.7017398,-2.0886638,-2.7786233
0.096432365,-0.011790989,-0.028089184,-2.6175628,-2.0235882,-2.692051
0.09342804,-0.011423644,-0.027214073,-2.5360134,-1.9605439,-2.6081808
0.09051747,-0.011067762,-0.026366271,-2.4570088,-1.899467,-2.526928
0.08769772,-0.0107229855,-0.025544925,-2.3804693,-1.8402958,-2.4482105
0.084965944,-0.010388966,-0.024749203,-2.306318,-1.7829708,-2.371949
0.08231938,-0.010065365,-0.023978302,-2.2344797,-1.7274339,-2.2980664
0.079755366,-0.009751857,-0.023231447,-2.164882,-1.6736293,-2.226488
0.07727131,-0.009448127,-0.022507882,-2.0974548,-1.6215025,-2.1571422
0.07486472,-0.009153867,-0.021806879,-2.03213,-1.5710013,-2.0899584
0.07253316,-0.008868783,-0.021127734,-1.9688421,-1.5220746,-2.0248694
0.070274286,-0.008592586,-0.020469762,-1.9075273,-1.4746733,-1.9618099
0.068085834,-0.008324998,-0.0198323,-1.8481238,-1.4287496,-1.900716
0.06596559,-0.008065753,-0.019214708,-1.7905719,-1.3842573,-1.8415263
0.06391144,-0.007814586,-0.018616365,-1.7348138,-1.3411517,-1.7841815
0.061921295,-0.0075712474,-0.01803667,-1.6807934,-1.2993895,-1.7286237
0.05999317,-0.007335492,-0.017475039,-1.6284564,-1.2589288,-1.6747973
0.058125127,-0.0071070823,-0.016930908,-1.5777501,-1.2197287,-1.6226482
0.05631529,-0.00688579,-0.016403731,-1.5286238,-1.1817502,-1.5721239
0.054561842,-0.0066713914,-0.01589298,-1.4810282,-1.1449548,-1.5231738
0.05286302,-0.006463673,-0.015398141,-1.4349153,-1.1093059,-1.4757488
0.05121712,-0.006262426,-0.014918718,-1.390239,-1.0747675,-1.4298011
0.049622495,-0.0060674474,-0.014454229,-1.3469545,-1.041305,-1.3852847
0.04807754,-0.0058785425,-0.014004208,-1.3050181,-1.0088848,-1.3421551
0.04658071,-0.005695522,-0.013568206,-1.2643881,-0.9774745,-1.3003688
0.0451305,-0.0055182013,-0.013145783,-1.2250235,-0.9470425,-1.259884
0.043725457,-0.005346404,-0.012736517,-1.186885,-0.9175584,-1.2206602
0.042364173,-0.005179957,-0.012339997,-1.1499343,-0.8889925,-1.1826581
0.041045286,-0.005018694,-0.011955827,-1.1141344,-0.86131626,-1.1458393
0.039767474,-0.004862453,-0.011583621,-1.0794494,-0.8345019,-1.1101673
0.038529452,-0.0047110775,-0.011223005,-1.0458446,-0.80852264,-1.0756061
0.037329983,-0.004564416,-0.0108736195,-1.0132861,-0.7833523,-1.0421212
0.036167867,-0.0044223214,-0.0105351135,-0.9817416,-0.75896585,-1.0096791
0.035041936,-0.0042846515,-0.010207148,-0.9511793,-0.73533875,-0.97824705
0.033951066,-0.0041512684,-0.009889395,-0.9215687,-0.7124473,-0.9477938
0.03289416,-0.0040220385,-0.009581536,-0.8928801,-0.6902687,-0.91828877
0.031870168,-0.0038968327,-0.009283263,-0.8650847,-0.6687806,-0.88970244
0.030878056,-0.0037755251,-0.008994277,-0.8381548,-0.6479616,-0.8620062
0.029916834,-0.0036579946,-0.0087142885,-0.8120634,-0.6277908,-0.8351723
0.02898554,-0.0035441231,-0.0084430175,-0.7867843,-0.60824805,-0.8091738
0.02808324,-0.0034337973,-0.008180193,-0.76229227,-0.58931375,-0.78398484
0.027209034,-0.0033269061,-0.00792555,-0.7385628,-0.5709689,-0.75958014
0.026362047,-0.003223343,-0.0076788366,-0.7155721,-0.55319524,-0.73593515
0.025541427,-0.0031230042,-0.0074398033,-0.6932972,-0.5359749,-0.71302634
0.024746355,-0.003025789,-0.0072082123,-0.67171574,-0.51929075,-0.69083077
0.023976035,-0.0029316007,-0.0069838306,-0.6508062,-0.50312597,-0.6693262
0.0232297,-0.0028403443,-0.0067664348,-0.6305476,-0.48746443,-0.64849114
0.022506597,-0.0027519292,-0.006555807,-0.6109197,-0.47229046,-0.62830466
0.021806005,-0.0026662664,-0.006351736,-0.59190285,-0.45758888,-0.60874665
0.021127224,-0.0025832704,-0.006154018,-0.573478,-0.44334498,-0.58979744
0.020469574,-0.0025028582,-0.005962455,-0.5556267,-0.4295445,-0.5714382
0.019832399,-0.0024249493,-0.005776856,-0.53833115,-0.41617364,-0.5536505
0.019215057,-0.0023494656,-0.0055970345,-0.521574,-0.403219,-0.5364165
0.018616933,-0.002276332,-0.005422811,-0.50533855,-0.39066768,-0.519719
0.01803743,-0.0022054748,-0.005254011,-0.4896085,-0.37850708,-0.5035413
0.017475966,-0.0021368233,-0.005090466,-0.47436813,-0.36672503,-0.4878672
0.01693198,-0.002070309,-0.0049320115,-0.45960215,-0.35530972,-0.47268105
0.016404929,-0.0020058653,-0.00477849,-0.44529584,-0.34424978,-0.45796764
0.015894283,-0.0019434276,-0.004629747,-0.43143487,-0.33353415,-0.44371223
0.015399534,-0.0018829335,-0.0044856346,-0.41800538,-0.32315207,-0.4299006
0.014920186,-0.0018243226,-0.0043460084,-0.40499395,-0.31309316,-0.41651887
