ax,ay,az,gx,gy,gz
-0.38727623,0.80909824,-0.84818953,21.584742,-31.350285,-22.527477
-0.3876211,1.0711082,-0.8819284,14.877163,-26.853254,-15.138201
-0.46788868,0.9815563,-1.6019652,17.051693,-26.676401,-12.889224
-0.5783242,0.85730267,-2.3390894,17.688513,-27.990185,-11.571614
-0.68697685,0.60311043,-3.0803576,16.197554,-29.897919,-9.228265
-0.81473887,0.31960794,-3.8154044,12.527227,-32.667076,-4.8223834
-0.9996079,0.099150285,-4.553532,7.36789,-38.083706,0.5787562
-1.1326115,-0.12618716,-5.2086864,3.3050067,-44.06656,3.4973722
-1.2150629,-0.48109263,-5.714073,2.247197,-49.425808,4.1471486
-1.2467382,-0.87277555,-6.0966916,4.29396,-54.575386,4.340178
-1.2434047,-1.1591516,-6.3434334,8.003801,-60.75148,5.5408006
-1.2418191,-1.2518393,-6.280504,10.095963,-69.12621,8.460377
-1.1173352,-1.0556048,-5.6343226,9.609515,-77.113655,11.56928
-0.82865435,-0.750763,-4.676817,7.8891788,-82.963,13.326267
-0.43618,-0.44636703,-3.6364822,6.153462,-85.80536,13.480151
-0.049760964,-0.2407627,-2.6563168,4.5903425,-86.12451,12.439532
0.26342684,-0.15456113,-1.8181003,3.2157502,-84.92126,11.555459
0.520009,-0.1164302,-1.1417531,1.5618263,-83.731445,11.358031
0.7733052,-0.104672596,-0.60491306,-0.28012633,-82.331635,11.492432
1.0342007,-0.13113356,-0.20409349,-1.9839997,-80.24809,11.692346
1.2812628,-0.18577476,0.07248495,-3.0941622,-77.087135,11.536335
1.4670832,-0.24863061,0.2544536,-3.180662,-72.92836,10.969319
1.543138,-0.2811024,0.35897437,-2.9625993,-68.91509,10.593026
1.558192,-0.28421673,0.42613918,-2.6605291,-65.25272,10.31472
1.5374291,-0.26416343,0.4601536,-1.9849638,-61.839832,9.802855
1.4956434,-0.21532902,0.47357622,-1.2736529,-58.60282,9.06875
1.4509025,-0.12138761,0.48782387,-0.8975119,-55.505142,8.316898
1.3973565,0.033647973,0.49605998,-0.7640317,-52.41559,7.354715
1.3274915,0.2116893,0.489727,-0.93878365,-49.406647,6.0996294
1.2415853,0.39621925,0.46420497,-1.4967747,-46.66976,4.6804442
1.1562877,0.5948361,0.43822932,-2.5748143,-44.284477,3.1747036
1.0847038,0.8091522,0.42194435,-4.397205,-42.08025,1.3145324
1.042814,1.0333819,0.41502303,-6.6394744,-39.861214,-0.9291675
1.0147262,1.2294819,0.40678662,-9.069084,-37.44395,-3.5861914
0.9749307,1.3885709,0.37759086,-11.589716,-34.892365,-6.4809184
0.9102676,1.5049322,0.30738592,-14.194747,-32.62039,-9.662801
0.84108037,1.5712751,0.22499423,-17.122925,-31.02185,-12.852406
0.780685,1.56906,0.15380172,-20.137127,-29.826006,-15.937259
0.7345047,1.5070127,0.09224445,-23.10098,-28.865915,-19.002176
0.7065866,1.3535824,0.032340817,-25.775803,-28.069298,-22.029995
0.7163409,1.098746,-0.025998825,-27.945145,-27.335869,-24.752625
0.7720005,0.77268726,-0.079123884,-29.377327,-26.545778,-26.612408
0.85617083,0.41187194,-0.12890336,-29.973513,-25.640892,-27.638973
0.9392266,0.06721383,-0.16907978,-29.893677,-24.62673,-27.912708
1.0096756,-0.22956654,-0.19700775,-29.375044,-23.544722,-27.461275
1.0650434,-0.4686957,-0.21375692,-28.848444,-22.382936,-26.46881
1.0282824,-0.4525182,-0.20637889,-27.85271,-21.610369,-25.555212
0.9930146,-0.4369978,-0.19930054,-26.897423,-20.86918,-24.678724
0.95915836,-0.42209864,-0.19250552,-25.980373,-20.157658,-23.837318
0.92663854,-0.4077876,-0.18597871,-25.09952,-19.474222,-23.029125
0.89538556,-0.39403403,-0.17970616,-24.252981,-18.81741,-22.252415
0.8653348,-0.38080955,-0.1736749,-23.439009,-18.185863,-21.505585
0.83642644,-0.36808777,-0.1678729,-22.655977,-17.578325,-20.787144
0.80860466,-0.35584417,-0.16228901,-21.902378,-16.993624,-20.095707
0.7818175,-0.3440559,-0.15691274,-21.176804,-16.430664,-19.429985
0.75601643,-0.33270156,-0.15173441,-20.47794,-15.88843,-18.788767
0.7311561,-0.32176125,-0.14674488,-19.804558,-15.365966,-18.17093
0.70719403,-0.3112162,-0.14193563,-19.155506,-14.862379,-17.575417
0.6840903,-0.30104893,-0.13729866,-18.529705,-14.376832,-17.001238
0.6618076,-0.29124293,-0.13282646,-17.92614,-13.908538,-16.447458
0.6403106,-0.2817827,-0.12851195,-17.343859,-13.456758,-15.913208
0.6195661,-0.2726536,-0.124348484,-16.78196,-13.020791,-15.397659
0.5995428,-0.26384196,-0.12032977,-16.239597,-12.599983,-14.900035
0.5802112,-0.25533465,-0.11644986,-15.71597,-12.19371,-14.4196
0.56154335,-0.24711944,-0.112703174,-15.2103195,-11.801387,-13.955659
0.5435127,-0.23918466,-0.109084375,-14.7219305,-11.422455,-13.507556
0.5260942,-0.23151927,-0.10558844,-14.250121,-11.056388,-13.074666
0.50926405,-0.2241128,-0.10221058,-13.794249,-10.702685,-12.656397
0.4929996,-0.21695526,-0.09894627,-13.3537,-10.360872,-12.252188
0.47727937,-0.21003723,-0.09579118,-12.927892,-10.030497,-11.861504
0.46208292,-0.2033497,-0.092741214,-12.516271,-9.711127,-11.483836
0.4473907,-0.19688407,-0.089792445,-12.118308,-9.402356,-11.1187
0.43318418,-0.19063218,-0.08694116,-11.733501,-9.103792,-10.765635
0.41944554,-0.1845862,-0.08418379,-11.361368,-8.815062,-10.424198
0.40615794,-0.17873868,-0.08151693,-11.0014515,-8.5358095,-10.09397
0.39330512,-0.17308253,-0.07893734,-10.653312,-8.265695,-9.774548
0.3808716,-0.16761088,-0.0764419,-10.31653,-8.004392,-9.465546
0.36884257,-0.16231725,-0.07402764,-9.990705,-7.7515903,-9.166596
0.35720384,-0.15719537,-0.07169172,-9.67545,-7.506991,-8.877347
0.3459418,-0.15223926,-0.0694314,-9.370399,-7.270308,-8.597459
0.3350434,-0.14744319,-0.06724406,-9.075198,-7.0412674,-8.326609
0.32449612,-0.14280163,-0.065127194,-8.789508,-6.819606,-8.064484
0.31428793,-0.13830929,-0.06307839,-8.513002,-6.6050706,-7.8107867
0.3044073,-0.1339611,-0.06109532,-8.24537,-6.3974195,-7.5652304
0.29484314,-0.12975219,-0.059175767,-7.9863086,-6.1964192,-7.3275385
0.28558478,-0.12567784,-0.057317592,-7.735531,-6.001846,-7.097447
0.27662197,-0.12173355,-0.05551873,-7.4927583,-5.813483,-6.8746996
0.2679448,-0.11791498,-0.053777203,-7.2577233,-5.631124,-6.6590524
0.25954384,-0.114217944,-0.052091107,-7.030169,-5.4545693,-6.4502683
0.25140986,-0.11063842,-0.0504586,-6.8098474,-5.283626,-6.2481203
0.2435341,-0.10717251,-0.048877914,-6.5965195,-5.118109,-6.052389
0.23590805,-0.1038165,-0.047347344,-6.389955,-4.95784,-5.862864
0.22852351,-0.100566775,-0.04586525,-6.189933,-4.8026466,-5.6793413
0.2213726,-0.09741986,-0.044430044,-5.9962387,-4.6523633,-5.5016246
0.21444769,-0.09437241,-0.043040197,-5.8086667,-4.5068297,-5.3295245
0.20774145,-0.09142118,-0.04169424,-5.627017,-4.3658915,-5.162859
0.2012468,-0.088563055,-0.04039074,-5.4510984,-4.2293997,-5.0014515
0.19495687,-0.08579504,-0.039128337,-5.2807255,-4.0972104,-4.845132
0.18886505,-0.0831142,-0.037905697,-5.115719,-3.969185,-4.693736
0.18296498,-0.08051775,-0.03672154,-4.955906,-3.8451893,-4.547106
0.1772505,-0.07800297,-0.035574626,-4.80112,-3.725094,-4.4050875
0.17171565,-0.07556723,-0.034463767,-4.6511993,-3.6087737,-4.267534
0.16635469,-0.07320802,-0.033387806,-4.5059886,-3.4961076,-4.134301
0.16116203,-0.07092288,-0.03234563,-4.3653374,-3.3869789,-4.005252
0.15613234,-0.068709455,-0.031336155,-4.2290998,-3.2812748,-3.8802521
0.1512604,-0.06656545,-0.030358346,-4.097135,-3.1788862,-3.759173
0.1465412,-0.064488664,-0.029411191,-3.969308,-3.0797076,-3.64189
0.14196989,-0.062476955,-0.028493717,-3.8454864,-2.983637,-3.5282822
0.13754177,-0.060528267,-0.027604982,-3.7255437,-2.8905756,-3.4182332
0.13325231,-0.05864059,-0.026744075,-3.6093564,-2.8004284,-3.31163
0.1290971,-0.056812007,-0.025910117,-3.4968061,-2.7131028,-3.2083635
0.12507191,-0.055040635,-0.02510225,-3.3877773,-2.6285095,-3.1083283
0.121172644,-0.053324673,-0.024319656,-3.282159,-2.5465624,-3.0114222
0.1173953,-0.05166237,-0.023561534,-3.1798434,-2.4671779,-2.9175465
0.11373604,-0.050052036,-0.022827111,-3.0807266,-2.390275,-2.8266053
0.11019115,-0.048492026,-0.022115642,-2.9847074,-2.3157756,-2.7385066
0.10675702,-0.046980765,-0.021426404,-2.8916883,-2.243604,-2.6531606
0.10343017,-0.04551671,-0.020758698,-2.8015752,-2.173687,-2.5704803
0.10020722,-0.04409838,-0.020111844,-2.7142763,-2.1059535,-2.4903827
0.09708491,-0.04272434,-0.019485187,-2.6297035,-2.040335,-2.412786
0.09406007,-0.041393194,-0.018878095,-2.547771,-1.9767652,-2.337612
0.09112965,-0.0401036,-0.018289953,-2.4683957,-1.9151795,-2.264784
0.08829069,-0.03885425,-0.017720165,-2.3914976,-1.8555158,-2.1942291
0.08554031,-0.037643883,-0.017168157,-2.316999,-1.7977139,-2.1258757
0.082875736,-0.03647128,-0.01663337,-2.2448246,-1.7417152,-2.059655
0.08029428,-0.035335254,-0.016115265,-2.1749017,-1.6874634,-1.9954997
0.077793345,-0.03423466,-0.015613321,-2.1071599,-1.6349037,-1.9333457
0.07537039,-0.033168394,-0.01512703,-2.0415304,-1.5839832,-1.8731298
0.07302301,-0.03213537,-0.014655903,-1.9779475,-1.5346504,-1.8147917
0.070748806,-0.03113456,-0.014199465,-1.916347,-1.4868559,-1.7582725
0.068545505,-0.03016495,-0.013757257,-1.856667,-1.4405513,-1.7035153
0.066410884,-0.029225564,-0.0133288335,-1.7988474,-1.3956902,-1.6504651
0.064342804,-0.028315458,-0.0129137635,-1.74283,-1.3522274,-1.5990684
0.06233918,-0.02743372,-0.0125116315,-1.6885586,-1.3101193,-1.5492737
0.060397997,-0.02657946,-0.012122031,-1.6359785,-1.2693233,-1.5010308
0.058517307,-0.025751822,-0.011744572,-1.5850369,-1.2297988,-1.4542912
0.05669522,-0.024949972,-0.011378874,-1.5356827,-1.1915059,-1.4090081
0.054929905,-0.024173107,-0.011024571,-1.4878663,-1.1544061,-1.365136
0.05321959,-0.023420446,-0.010681307,-1.4415396,-1.1184621,-1.3226306
0.05156256,-0.022691233,-0.010348736,-1.3966563,-1.083638,-1.2814497
0.049957152,-0.02198474,-0.010026528,-1.3531711,-1.0498987,-1.2415515
0.048401754,-0.02130025,-0.009714355,-1.3110406,-1.0172105,-1.2028962
0.046894807,-0.020637086,-0.009411907,-1.2702225,-0.98554057,-1.1654451
0.0454348,-0.019994577,-0.009118879,-1.2306758,-0.95485705,-1.1291605
0.044020265,-0.019372081,-0.008834979,-1.1923608,-0.9251292,-1.0940061
0.042649787,-0.018768972,-0.00855992,-1.1552392,-0.89632726,-1.0599464
0.041321993,-0.018184647,-0.008293428,-1.1192737,-0.8684224,-1.0269477
0.04003555,-0.01761852,-0.008035236,-1.0844283,-0.8413865,-0.99497664
0.03878917,-0.017070023,-0.007785085,-1.0506681,-0.81519264,-0.9640012
0.037581608,-0.016538609,-0.007542724,-1.0179592,-0.7898145,-0.9339904
0.036411647,-0.016023742,-0.0073079094,-0.98626894,-0.7652266,-0.90491414
0.035278115,-0.015524908,-0.0070804073,-0.95556545,-0.74140435,-0.8767433
0.034179885,-0.0150416065,-0.00685999,-0.9258181,-0.71832395,-0.8494497
0.03311585,-0.014573355,-0.0066464352,-0.896997,-0.69596225,-0.823006
0.032084946,-0.014119684,-0.0064395303,-0.8690733,-0.6742968,-0.79738563
0.031086143,-0.013680138,-0.0062390678,-0.842019,-0.65330595,-0.77256304
0.030118437,-0.013254278,-0.006044847,-0.8158071,-0.63296866,-0.7485133
0.029180864,-0.012841677,-0.0058566732,-0.79041135,-0.61326456,-0.7252124
0.02827248,-0.012441924,-0.0056743585,-0.7658063,-0.594174,-0.7026369
0.027392378,-0.012054616,-0.0054977196,-0.7419673,-0.5756778,-0.6807644
0.026539678,-0.011679366,-0.0053265807,-0.7188706,-0.5577575,-0.6595728
0.025713526,-0.011315799,-0.00516077,-0.69649285,-0.5403951,-0.63904095
0.024913093,-0.010963552,-0.005000121,-0.67481184,-0.5235732,-0.6191484
0.02413758,-0.010622271,-0.0048444737,-0.65380585,-0.50727504,-0.5998751
0.023386212,-0.010291615,-0.004693672,-0.6334538,-0.49148428,-0.5812018
0.022658236,-0.009971253,-0.0045475652,-0.6137354,-0.47618514,-0.5631099
0.021952922,-0.009660864,-0.004406007,-0.5946308,-0.46136227,-0.5455812
0.021269565,-0.009360138,-0.004268856,-0.576121,-0.4470009,-0.52859825
0.020607483,-0.009068774,-0.004135974,-0.55818737,-0.43308657,-0.5121439
0.019966012,-0.008786481,-0.004007229,-0.5408121,-0.4196054,-0.49620187
0.01934451,-0.008512975,-0.0038824922,-0.5239777,-0.40654394,-0.4807561
0.018742356,-0.008247984,-0.0037616384,-0.50766736,-0.39388907,-0.46579117
0.018158946,-0.007991242,-0.0036445467,-0.49186477,-0.38162816,-0.4512921
0.017593699,-0.0077424925,-0.0035311,-0.4765541,-0.36974892,-0.4372444
0.017046047,-0.007501486,-0.003421185,-0.46172005,-0.35823947,-0.42363396
0.016515445,-0.0072679827,-0.0033146916,-0.4473478,-0.34708834,-0.41044724
0.016001359,-0.007041748,-0.0032115132,-0.43342295,-0.3362843,-0.39767098
0.015503275,-0.006822556,-0.0031115466,-0.41993156,-0.3258166,-0.38529247
0.015020697,-0.006610187,-0.003014692,-0.40686014,-0.31567475,-0.3732993
0.014553141,-0.0064044283,-0.0029208523,-0.39419562,-0.3058486,-0.36167943
