ax,ay,az,gx,gy,gz
0.048182257,4.1845837,-6.864608,131.11574,41.11583,129.34026
0.24868801,5.330209,-6.1748705,144.31258,36.647602,121.04866
0.56743044,6.5891957,-5.1688967,149.29463,34.60726,105.71745
1.1232833,8.081495,-3.9233408,148.03886,35.951927,86.127594
2.0111127,9.913203,-2.3637524,139.8802,43.61064,58.11489
2.8923278,11.688876,-0.95017856,125.02415,54.685947,32.235268
3.7006881,13.389632,0.13343228,103.53839,67.20442,6.5964184
4.466534,14.818246,0.7775402,77.963615,80.37325,-18.48512
5.1592383,16.017008,0.8892302,46.32787,93.33653,-46.4003
5.751897,16.602356,0.18538302,12.0868435,104.5456,-72.0966
6.154483,16.480692,-1.0357194,-21.44551,114.27005,-95.607704
6.2718678,15.465662,-2.6664507,-46.710052,122.01987,-117.64321
6.1200433,13.769689,-4.47545,-59.25906,124.16705,-138.24524
5.9055567,11.712486,-6.173117,-63.78205,116.1193,-150.24571
5.645006,9.426105,-7.682872,-61.991344,102.43032,-157.22447
5.4040365,7.1853247,-8.99356,-55.06764,83.55289,-158.93544
5.309933,5.166143,-10.003518,-44.38703,62.899998,-156.27324
5.3965654,3.551081,-10.674792,-30.938221,42.200283,-147.604
5.5442357,2.3406417,-11.116753,-16.425135,22.686832,-133.89049
5.6572456,1.480772,-11.426102,-0.75191534,3.4976995,-117.6672
5.895278,0.8830912,-11.518198,16.277414,-15.046837,-99.160194
6.3730555,0.66938514,-11.224413,32.755123,-30.378487,-78.411804
6.934654,1.0194185,-10.531923,46.2016,-41.221554,-58.957466
7.3945317,1.9401919,-9.430844,53.329437,-46.081333,-47.314022
7.587877,3.3469856,-7.9242125,53.194233,-47.249733,-41.06955
7.6431704,4.7253532,-6.455012,45.562046,-45.11424,-36.013775
7.574181,5.97448,-5.267376,33.740532,-40.491295,-34.012913
7.4356556,6.9410477,-4.441621,20.884794,-33.81365,-35.650444
7.228576,7.627958,-3.9839108,7.571427,-25.728632,-41.25924
6.99339,7.9569416,-3.9220011,-4.8576055,-17.757284,-49.012863
6.734075,7.992851,-4.090311,-15.134029,-11.172631,-57.58443
6.434356,7.779768,-4.400919,-22.53985,-6.6600637,-66.32508
6.0970078,7.3636823,-4.7745953,-26.78937,-4.688523,-75.288025
5.8065977,6.789732,-5.1302347,-27.797277,-6.156036,-83.30522
5.687933,6.0323014,-5.385722,-27.18235,-8.939118,-89.264465
5.5994415,5.2155013,-5.5691185,-25.682726,-12.169454,-91.907776
5.402862,4.4687552,-5.7316747,-23.744076,-16.43697,-91.30108
5.1641006,3.8169308,-5.8762026,-21.702543,-22.820734,-89.01581
4.987607,3.2106366,-5.9674335,-19.738997,-31.384987,-85.27076
4.8409195,2.6325455,-6.015721,-17.26079,-40.842865,-81.51671
4.7981997,2.0479856,-6.0198584,-13.3056555,-50.50822,-78.69793
4.988094,1.3890349,-5.904,-7.978854,-58.285988,-74.35115
5.287505,0.7501998,-5.6663175,-0.5848861,-63.076157,-66.20309
5.5085974,0.3853554,-5.370599,8.134948,-65.7166,-54.783543
5.682566,0.50032103,-4.9405913,14.372291,-67.24469,-44.42559
5.794059,0.89281005,-4.3919396,17.476385,-66.814705,-38.177505
5.8568416,1.2595487,-3.8604648,17.875963,-64.32946,-34.190582
5.850948,1.5401548,-3.4362533,16.197325,-61.256428,-29.997171
5.651463,1.4876442,-3.3190963,15.645087,-59.167927,-28.974436
5.459853,1.4372063,-3.206564,15.114648,-57.161865,-27.992071
5.2757072,1.3887331,-3.0984151,14.604872,-55.23395,-27.047976
5.0986447,1.3421248,-2.994427,14.114707,-53.380203,-26.140198
4.9283137,1.2972883,-2.8943915,13.643174,-51.59692,-25.266928
4.7643847,1.2541369,-2.7981164,13.189365,-49.88067,-24.426481
4.6065516,1.2125903,-2.7054212,12.752433,-48.228237,-23.617289
4.4545293,1.1725732,-2.6161387,12.331585,-46.63664,-22.837885
4.3080497,1.1340151,-2.5301113,11.926082,-45.103073,-22.0869
4.1668625,1.0968502,-2.4471924,11.53523,-43.624916,-21.363049
4.030733,1.0610166,-2.3672438,11.15838,-42.19971,-20.665129
3.8994408,1.0264564,-2.290136,10.79492,-40.82515,-19.992008
3.772778,0.99311465,-2.215747,10.444276,-39.499054,-19.34262
3.6505492,0.9609402,-2.1439624,10.105907,-38.219383,-18.71597
3.5325701,0.9298844,-2.0746734,9.779303,-36.9842,-18.111101
3.4186664,0.8999013,-2.007778,9.46398,-35.791687,-17.52713
3.3086731,0.8709476,-1.943179,9.159483,-34.640114,-16.963207
3.2024348,0.84298223,-1.8807853,8.86538,-33.52785,-16.418533
3.099803,0.81596637,-1.8205099,8.581263,-32.45335,-15.892352
3.000638,0.78986293,-1.7622703,8.306742,-31.415142,-15.383944
2.9048061,0.764637,-1.7059885,8.041448,-30.411833,-14.892625
2.812181,0.7402551,-1.6515899,7.785031,-29.442095,-14.417745
2.7226417,0.71668553,-1.5990036,7.5371575,-28.504663,-13.958688
2.6360736,0.6938981,-1.5481623,7.2975087,-27.598341,-13.514862
2.5523672,0.6718639,-1.4990016,7.065782,-26.721977,-13.085709
2.471418,0.6505555,-1.4514602,6.841688,-25.87448,-12.67069
2.3931258,0.62994653,-1.4054793,6.62495,-25.054802,-12.269295
2.3173957,0.61001194,-1.3610032,6.415304,-24.261946,-11.881035
2.244136,0.5907277,-1.3179779,6.212498,-23.494955,-11.505441
2.1732597,0.57207084,-1.2763524,6.0162897,-22.752916,-11.142066
2.1046832,0.5540193,-1.2360774,5.826447,-22.034954,-10.790481
2.038326,0.53655195,-1.1971059,5.642749,-21.340229,-10.450275
1.9741114,0.5196487,-1.1593928,5.464982,-20.667936,-10.121054
1.9119657,0.50328994,-1.1228948,5.2929425,-20.017302,-9.80244
1.851818,0.48745716,-1.0875701,5.1264343,-19.387587,-9.494069
1.7936003,0.4721324,-1.0533789,4.9652686,-18.778076,-9.195593
1.7372472,0.4572985,-1.0202829,4.809265,-18.18809,-8.906677
1.682696,0.4429389,-0.98824495,4.6582494,-17.616964,-8.626999
1.629886,0.42903763,-0.9572298,4.5120544,-17.064072,-8.356248
1.5787594,0.41557947,-0.9272031,4.370519,-16.528803,-8.094128
1.5292599,0.40254965,-0.89813215,4.2334886,-16.010569,-7.8403487
1.4813337,0.38993394,-0.86998516,4.1008134,-15.508805,-7.5946364
1.4349289,0.37771872,-0.84273165,3.9723496,-15.02297,-7.356724
1.3899953,0.3658908,-0.8163423,3.847959,-14.552539,-7.1263547
1.3464849,0.35443747,-0.79078865,3.7275078,-14.097007,-6.903281
1.304351,0.34334648,-0.7660434,3.6108673,-13.655887,-6.687265
1.2635486,0.33260605,-0.74208033,3.4979134,-13.228707,-6.4780765
1.2240348,0.32220474,-0.7188739,3.3885262,-12.815018,-6.275493
1.1857675,0.31213158,-0.69639957,3.2825902,-12.414379,-6.079301
1.1487066,0.30237597,-0.67463374,3.1799932,-12.02637,-5.8892937
1.112813,0.29292762,-0.6535535,3.0806282,-11.650582,-5.705271
1.0780492,0.2837767,-0.63313675,2.9843905,-11.286623,-5.5270405
1.0443789,0.27491358,-0.6133622,2.89118,-10.934112,-5.3544164
1.0117669,0.2663291,-0.59420925,2.8008997,-10.592682,-5.1872187
0.9801795,0.2580143,-0.575658,2.7134554,-10.261977,-5.0252733
0.9495839,0.24996056,-0.55768925,2.6287568,-9.941657,-4.868413
0.91994834,0.24215955,-0.54028434,2.546716,-9.631388,-4.716475
0.8912424,0.23460323,-0.5234254,2.4672487,-9.330852,-4.5693026
0.86343634,0.22728379,-0.5070949,2.3902726,-9.039737,-4.426744
0.8365017,0.22019374,-0.49127626,2.3157086,-8.757745,-4.288653
0.81041074,0.21332578,-0.47595307,2.2434804,-8.484586,-4.1548877
0.78513676,0.20667286,-0.4611097,2.173514,-8.21998,-4.0253105
0.76065385,0.2002282,-0.44673094,2.1057372,-7.9636564,-3.8997896
0.73693705,0.19398518,-0.43280208,2.0400813,-7.7153535,-3.7781959
0.7139621,0.18793744,-0.41930893,1.9764792,-7.4748178,-3.6604059
0.6917056,0.18207882,-0.40623772,1.914866,-7.241803,-3.5462992
0.67014486,0.17640336,-0.39357513,1.8551788,-7.0160737,-3.4357598
0.64925796,0.17090526,-0.3813083,1.7973572,-6.7973986,-3.328675
0.62902373,0.16557898,-0.36942473,1.7413422,-6.5855565,-3.224936
0.60942155,0.16041906,-0.35791242,1.687077,-6.3803315,-3.124438
0.59043163,0.1554203,-0.34675965,1.6345066,-6.1815166,-3.0270786
0.5720346,0.15057763,-0.3359551,1.5835778,-5.9889097,-2.9327593
0.554212,0.14588615,-0.3254879,1.5342389,-5.8023157,-2.8413844
0.53694564,0.1413411,-0.3153474,1.4864401,-5.621546,-2.7528617
0.52021813,0.13693789,-0.30552337,1.440133,-5.4464173,-2.6671016
0.5040126,0.13267209,-0.29600587,1.3952707,-5.276754,-2.5840178
0.48831266,0.12853935,-0.28678533,1.3518082,-5.1123834,-2.5035257
0.47310245,0.12453555,-0.2778524,1.3097013,-4.9531403,-2.4255447
0.45836666,0.120656624,-0.2691981,1.2689079,-4.798864,-2.3499959
0.4440904,0.11689866,-0.26081365,1.2293866,-4.6493993,-2.276803
0.43025932,0.113257885,-0.2526907,1.1910977,-4.504595,-2.2058926
0.41685948,0.10973062,-0.24482098,1.1540025,-4.3643055,-2.1371932
0.4038774,0.106313325,-0.23719662,1.1180639,-4.2283897,-2.0706356
0.39130002,0.103002556,-0.22980994,1.0832456,-4.0967107,-2.0061524
0.37911466,0.099794984,-0.2226535,1.0495126,-3.9691362,-1.9436795
0.36730906,0.096687384,-0.2157201,1.0168309,-3.845538,-1.8831536
0.3558714,0.09367663,-0.20900278,0.9851678,-3.7257915,-1.824514
0.3447902,0.0907597,-0.20249479,0.9544913,-3.6097767,-1.7677017
0.33405426,0.08793366,-0.1961896,0.9247708,-3.497377,-1.7126598
0.32365283,0.08519568,-0.19008085,0.89597625,-3.3884795,-1.6593329
0.31357548,0.082543,-0.18416244,0.8680789,-3.2829747,-1.6076673
0.3038121,0.07997297,-0.17842841,0.8410506,-3.180757,-1.5576115
0.29435286,0.077483,-0.17287302,0.8148644,-3.0817237,-1.509115
0.2851883,0.07507059,-0.16749068,0.7894939,-2.9857752,-1.4621292
0.2763092,0.072733335,-0.162276,0.7649137,-2.8928158,-1.4166071
0.26770666,0.07046887,-0.15722375,0.74109906,-2.8027518,-1.3725029
0.2593721,0.068274945,-0.15232885,0.7180262,-2.715493,-1.3297724
0.2512971,0.066149354,-0.14758642,0.69567204,-2.630952,-1.2883728
0.24347357,0.06408996,-0.14299169,0.67401403,-2.5490437,-1.2482625
0.23589373,0.0620947,-0.13854004,0.6530305,-2.4696865,-1.2094014
0.22854993,0.06016158,-0.13422705,0.6327005,-2.3928006,-1.1717505
0.22143482,0.05828866,-0.13004835,0.61300355,-2.3183093,-1.1352723
0.21454129,0.056474064,-0.1259998,0.59392005,-2.2461374,-1.0999298
0.20786242,0.054715972,-0.1220773,0.57543075,-2.176213,-1.065688
0.20139152,0.053012628,-0.11827695,0.55751723,-2.1084661,-1.0325124
0.19512212,0.05136232,-0.114594944,0.54016143,-2.0428286,-1.0003698
0.18904793,0.049763404,-0.111027576,0.5233461,-1.9792349,-0.9692281
0.18316287,0.048214268,-0.10757129,0.5070543,-1.9176214,-0.93905604
0.17746104,0.046713367,-0.10422262,0.49126986,-1.8579262,-0.9098234
0.17193675,0.0452592,-0.10097821,0.47597682,-1.8000897,-0.88150096
0.16658446,0.043850306,-0.09783482,0.46115994,-1.744054,-0.85406035
0.16139881,0.042485278,-0.09478929,0.44680437,-1.6897628,-0.8274741
0.1563746,0.041162748,-0.09183858,0.43289575,-1.6371621,-0.80171555
0.15150683,0.039881397,-0.08897974,0.41942015,-1.5861989,-0.77675897
0.1467906,0.038639937,-0.08620991,0.40636408,-1.5368224,-0.7525794
0.1422212,0.037437122,-0.083526306,0.39371452,-1.4889832,-0.72915256
0.13779405,0.03627176,-0.080926254,0.38145873,-1.4426332,-0.7064551
0.13350473,0.035142675,-0.07840714,0.3695845,-1.3977262,-0.6844642
0.12934895,0.034048744,-0.075966455,0.35807994,-1.3542173,-0.663158
0.12532255,0.032988865,-0.07360175,0.34693354,-1.3120629,-0.64251506
0.121421486,0.03196198,-0.07131067,0.33613414,-1.2712208,-0.6225147
0.117641866,0.030967066,-0.0690909,0.32567093,-1.2316501,-0.603137
0.11397991,0.030003123,-0.06694024,0.31553346,-1.1933113,-0.58436257
0.110431954,0.029069189,-0.06485653,0.30571157,-1.1561661,-0.5661726
0.10699445,0.028164327,-0.06283769,0.29619542,-1.120177,-0.5485489
0.10366395,0.027287634,-0.06088169,0.2869755,-1.0853084,-0.53147376
0.10043713,0.026438233,-0.05898658,0.2780426,-1.0515252,-0.5149302
0.09731076,0.025615273,-0.05715047,0.2693878,-1.0187938,-0.49890164
0.0942817,0.02481793,-0.05537151,0.26100242,-0.98708117,-0.48337203
0.09134695,0.02404541,-0.05364793,0.25287804,-0.95635575,-0.46832585
0.08850355,0.023296937,-0.051978007,0.24500659,-0.9265868,-0.45374805
0.08574866,0.022571763,-0.050360065,0.23738016,-0.89774454,-0.439624
