ax,ay,az,gx,gy,gz
3.510941,11.911017,-2.5100226,145.09859,24.525679,26.301147
4.6949897,13.989835,-1.3188444,136.42375,33.633022,4.812417
5.8590364,15.683924,-0.24016687,123.18534,46.374153,-20.47125
7.1376576,17.619637,0.50629246,96.43537,65.11439,-55.20523
8.543939,19.340628,0.46578664,54.683376,83.385216,-90.219635
9.500149,19.839642,-0.3209171,6.8370385,99.23133,-121.419174
10.057193,19.312315,-1.5617998,-36.77228,112.69204,-148.28214
10.425368,18.269125,-2.9999428,-71.55223,123.87992,-173.0145
10.773621,17.042664,-4.477217,-99.37509,132.79593,-198.68709
10.937671,15.367946,-6.1255627,-118.60539,137.27437,-224.2462
10.69276,13.297613,-7.7729383,-129.99026,134.85991,-247.23453
10.136835,10.921801,-9.293978,-135.6443,126.533035,-263.963
9.4680195,8.20642,-10.593156,-135.25578,112.51898,-270.92682
8.758278,5.2348485,-11.582907,-126.29764,92.13546,-263.4953
8.175307,2.5731916,-12.1970415,-112.91177,69.065735,-249.33336
7.856648,0.5808681,-12.514272,-98.46575,44.564365,-231.50998
7.771471,-0.9310305,-12.581715,-85.80196,19.327534,-210.40254
7.91922,-2.1767607,-12.411206,-73.20645,-4.049614,-186.54567
8.209677,-3.1770673,-12.071355,-56.684986,-22.23101,-160.8994
8.570129,-3.7509928,-11.5647955,-38.176773,-36.00314,-134.80005
9.047342,-3.86878,-10.860074,-18.84781,-45.186745,-108.27839
9.62081,-3.463911,-9.991305,0.5391119,-49.36343,-82.68896
10.063459,-2.1864846,-9.072552,17.511234,-51.228413,-64.522194
10.299727,-0.082311414,-8.009508,25.353226,-51.063847,-61.29112
10.321869,2.088937,-6.9291506,22.399355,-46.379803,-60.015182
10.005608,3.9491148,-6.3110085,8.405593,-40.78881,-58.12431
9.552517,5.262956,-6.080289,-8.39086,-36.088528,-59.38217
9.140813,6.0546837,-6.07152,-24.718412,-31.651093,-63.469982
8.752729,6.428621,-6.21602,-38.51499,-27.586073,-71.14259
8.296893,6.2921906,-6.492879,-48.061333,-24.587755,-81.03008
7.7834353,5.847511,-6.822671,-51.111237,-23.802,-92.747314
7.2979155,5.1989465,-7.1344438,-49.24266,-26.658049,-104.24433
6.9644666,4.4602075,-7.327686,-46.802937,-32.716454,-112.05611
6.7884684,3.6903183,-7.393976,-45.46855,-40.556824,-114.46855
6.6967216,2.888981,-7.3772006,-44.458893,-48.9608,-114.024216
6.608085,2.123489,-7.3208017,-42.78609,-57.796463,-111.56404
6.5040326,1.4316239,-7.2386594,-40.52836,-66.67044,-107.53142
6.3627295,0.8091034,-7.1410575,-37.576744,-75.77308,-101.72678
6.196375,0.27914888,-7.039507,-33.24927,-85.723145,-93.43863
6.074085,-0.053348877,-6.932753,-28.683554,-95.83657,-83.85999
5.854169,-0.051417347,-6.6817484,-27.645046,-92.366745,-80.823784
5.644174,-0.049572952,-6.442067,-26.653389,-89.05345,-77.92455
5.4434676,-0.04781014,-6.2129874,-25.705597,-85.88672,-75.153564
5.251474,-0.04612386,-5.993853,-24.79895,-82.85746,-72.50286
5.0676675,-0.04450948,-5.7840624,-23.930964,-79.95737,-69.965195
4.8915668,-0.042962782,-5.583067,-23.099365,-77.178856,-67.53391
4.7227297,-0.041479878,-5.390362,-22.302069,-74.51495,-65.20291
4.56075,-0.04005721,-5.205484,-21.537155,-71.95925,-62.966595
4.4052544,-0.038691483,-5.0280066,-20.802858,-69.505844,-60.819786
4.255896,-0.037379667,-4.8575344,-20.097548,-67.149284,-58.75772
4.112356,-0.03611895,-4.6937027,-19.419712,-64.88452,-56.77598
3.9743383,-0.034906734,-4.536174,-18.767952,-62.706882,-54.87048
3.8415668,-0.0337406,-4.384633,-18.140968,-60.612022,-53.03741
3.7137861,-0.032618295,-4.238788,-17.53755,-58.5959,-51.273247
3.5907571,-0.03153773,-4.098367,-16.956573,-56.65476,-49.574684
3.4722571,-0.03049694,-3.9631155,-16.396982,-54.785072,-47.93865
3.3580778,-0.0294941,-3.8327951,-15.857796,-52.98356,-46.362267
3.248024,-0.028527495,-3.7071834,-15.33809,-51.247135,-44.842842
3.1419125,-0.027595514,-3.5860715,-14.837002,-49.572914,-43.37785
3.0395718,-0.026696652,-3.469263,-14.353719,-47.958187,-41.964912
2.9408395,-0.025829483,-3.3565736,-13.887478,-46.400394,-40.601795
2.8455634,-0.02499267,-3.2478287,-13.437557,-44.897137,-39.286396
2.7536,-0.024184953,-3.142865,-13.00328,-43.446144,-38.01673
2.6648133,-0.023405137,-3.0415266,-12.584003,-42.04527,-36.790924
2.5790749,-0.022652093,-2.9436677,-12.179122,-40.692493,-35.607204
2.496263,-0.021924755,-2.8491492,-11.788062,-39.385895,-34.463886
2.4162629,-0.02122211,-2.7578397,-11.410278,-38.123653,-33.35939
2.3389647,-0.020543199,-2.6696143,-11.045255,-36.90405,-32.292194
2.2642648,-0.019887106,-2.5843544,-10.6925,-35.72544,-31.260876
2.1920645,-0.019252969,-2.5019474,-10.35155,-34.586266,-30.264063
2.1222696,-0.01863996,-2.422286,-10.021958,-33.485046,-29.300463
2.0547907,-0.01804729,-2.3452678,-9.703304,-32.420372,-28.368837
1.9895425,-0.017474214,-2.2707958,-9.395184,-31.390886,-27.468006
1.9264433,-0.016920011,-2.1987765,-9.097212,-30.395313,-26.596848
1.8654156,-0.016384002,-2.1291215,-8.809021,-29.432419,-25.754286
1.8063847,-0.015865533,-2.0617456,-8.530261,-28.501034,-24.939295
1.7492796,-0.015363977,-1.996568,-8.260594,-27.600033,-24.150892
1.6940323,-0.014878739,-1.9335105,-7.999701,-26.728346,-23.388136
1.6405776,-0.014409244,-1.8724991,-7.7472725,-25.88494,-22.650131
1.5888529,-0.013954944,-1.8134624,-7.503014,-25.06883,-21.93601
1.5387983,-0.013515313,-1.7563318,-7.266642,-24.279072,-21.244947
1.4903564,-0.013089847,-1.7010418,-7.0378857,-23.51476,-20.576149
1.443472,-0.012678059,-1.6475295,-6.816484,-22.775019,-19.928852
1.3980919,-0.012279484,-1.5957342,-6.6021867,-22.059013,-19.302326
1.3541653,-0.011893676,-1.545598,-6.3947525,-21.365942,-18.695868
1.3116432,-0.011520202,-1.4970647,-6.193951,-20.695032,-18.108799
1.2704785,-0.011158652,-1.4500806,-5.9995594,-20.045536,-17.54047
1.2306257,-0.010808624,-1.4045942,-5.8113637,-19.416742,-16.990257
1.1920415,-0.0104697365,-1.3605553,-5.6291575,-18.807962,-16.457554
1.1546835,-0.01014162,-1.3179163,-5.452743,-18.21853,-15.941783
1.1185114,-0.00982392,-1.2766306,-5.281928,-17.64781,-15.442385
1.0834862,-0.009516293,-1.2366542,-5.1165295,-17.095184,-14.958819
1.0495703,-0.009218409,-1.1979437,-4.9563684,-16.56006,-14.49057
1.0167273,-0.008929947,-1.1604578,-4.801275,-16.041866,-14.037134
0.98492247,-0.008650604,-1.1241568,-4.651083,-15.54005,-13.598029
0.9541218,-0.0083800815,-1.089002,-4.505634,-15.054079,-13.17279
0.9242929,-0.008118093,-1.0549563,-4.3647733,-14.583441,-12.760966
0.8954043,-0.0078643635,-1.0219839,-4.228353,-14.127638,-12.362124
0.8674256,-0.007618626,-0.99004996,-4.0962296,-13.686192,-11.975845
0.8403276,-0.0073806234,-0.95912117,-3.9682653,-13.258641,-11.601725
0.81408197,-0.007150107,-0.9291653,-3.8443258,-12.844539,-11.239372
0.7886613,-0.0069268364,-0.900151,-3.7242823,-12.443453,-10.88841
0.7640393,-0.0067105806,-0.87204826,-3.60801,-12.054968,-10.548473
0.7401903,-0.006501114,-0.8448279,-3.4953885,-11.67868,-10.21921
0.7170897,-0.006298221,-0.8184617,-3.386301,-11.3142,-9.900279
0.6947137,-0.006101692,-0.7929225,-3.2806354,-10.961153,-9.5913515
0.67303926,-0.0059113246,-0.76818395,-3.1782823,-10.619175,-9.2921095
0.652044,-0.0057269223,-0.7442207,-3.0791366,-10.287912,-9.002245
0.63170636,-0.0055482965,-0.72100806,-2.9830966,-9.967027,-8.721459
0.6120056,-0.0053752637,-0.6985222,-2.8900638,-9.656189,-8.449467
0.59292144,-0.005207647,-0.6767402,-2.799943,-9.35508,-8.185987
0.5744344,-0.005045275,-0.65563977,-2.7126422,-9.063394,-7.9307523
0.5565257,-0.0048879823,-0.63519937,-2.628072,-8.78083,-7.683501
0.539177,-0.004735608,-0.61539817,-2.5461466,-8.507104,-7.443981
0.52237064,-0.004587997,-0.59621596,-2.4667823,-8.241934,-7.2119493
0.5060895,-0.004445,-0.57763326,-2.3898983,-7.9850516,-6.9871697
0.49031717,-0.0043064705,-0.5596312,-2.3154166,-7.736196,-6.769413
0.4750375,-0.004172269,-0.5421915,-2.2432616,-7.4951143,-6.558459
0.46023503,-0.0040422585,-0.5252965,-2.1733603,-7.261562,-6.354093
0.44589478,-0.0039163074,-0.508929,-2.1056416,-7.035302,-6.156109
0.43200222,-0.0037942887,-0.49307254,-2.040037,-6.816106,-5.9643054
0.41854328,-0.0036760785,-0.477711,-1.97648,-6.6037517,-5.778489
0.40550438,-0.0035615575,-0.46282881,-1.9149066,-6.398025,-5.5984716
0.39287233,-0.0034506097,-0.44841105,-1.8552547,-6.198717,-5.4240713
0.3806344,-0.0033431237,-0.4344431,-1.7974635,-6.0056276,-5.2551117
0.3687782,-0.0032389904,-0.42091084,-1.7414752,-5.8185616,-5.091423
0.35729182,-0.003138105,-0.40780064,-1.6872333,-5.6373296,-4.93284
0.34616363,-0.0030403659,-0.39509934,-1.6346829,-5.46175,-4.779202
0.33538246,-0.0029456746,-0.38279408,-1.5837711,-5.291645,-4.630355
0.32493743,-0.0028539356,-0.37087247,-1.5344467,-5.1268444,-4.486149
0.31481805,-0.0027650567,-0.35932255,-1.4866601,-4.967181,-4.3464384
0.3050141,-0.0026789482,-0.34813267,-1.440363,-4.8124948,-4.2110834
0.29551575,-0.0025955238,-0.33729157,-1.3955091,-4.6626306,-4.0799475
0.28631344,-0.0025146997,-0.32678837,-1.3520532,-4.517437,-3.9528983
0.2773979,-0.0024363943,-0.31661248,-1.3099515,-4.376768,-3.829809
0.2687602,-0.0023605293,-0.3067537,-1.2691619,-4.2404833,-3.710555
0.26039165,-0.002287028,-0.29720214,-1.2296432,-4.1084447,-3.5950174
0.25228387,-0.0022158169,-0.2879482,-1.191356,-3.9805205,-3.4830797
0.24442868,-0.0021468247,-0.27898255,-1.1542616,-3.8565817,-3.3746295
0.23681822,-0.0020799818,-0.27029622,-1.1183228,-3.7365043,-3.269558
0.22944485,-0.0020152212,-0.26188052,-1.0835036,-3.6201677,-3.16776
0.22230117,-0.001952478,-0.25372696,-1.0497692,-3.507455,-3.0691328
0.21538001,-0.0018916893,-0.24582738,-1.0170854,-3.3982534,-2.973578
0.20867443,-0.0018327939,-0.23817386,-0.98541987,-3.2924533,-2.8809993
0.20217772,-0.0017757331,-0.23075873,-0.9547405,-3.1899483,-2.7913046
0.19588335,-0.0017204494,-0.22357455,-0.9250167,-3.090636,-2.7044032
0.189785,-0.0016668875,-0.21661411,-0.8962186,-2.994417,-2.6202083
0.18387659,-0.0016149938,-0.20987046,-0.8683174,-2.9011943,-2.5386357
0.17815219,-0.0015647161,-0.2033368,-0.8412851,-2.810875,-2.4596033
0.17260604,-0.0015160041,-0.19700663,-0.81509465,-2.7233682,-2.383032
0.1672326,-0.0014688091,-0.19087358,-0.78971976,-2.6385863,-2.3088455
0.1620265,-0.0014230837,-0.1849315,-0.76513505,-2.5564446,-2.236969
0.1569825,-0.0013787821,-0.17917445,-0.7413159,-2.476861,-2.1673307
0.15209557,-0.0013358601,-0.17359668,-0.7182384,-2.3997552,-2.0998607
0.1473608,-0.0012942745,-0.16819258,-0.6958795,-2.3250504,-2.0344915
0.14277346,-0.0012539837,-0.16295674,-0.67421675,-2.2526715,-1.9711579
0.13832895,-0.0012149474,-0.15788394,-0.6532285,-2.1825464,-1.9097961
0.13402283,-0.0011771267,-0.15296908,-0.6328938,-2.1146045,-1.850345
0.12985078,-0.0011404833,-0.14820723,-0.6131922,-2.048778,-1.7927448
0.12580861,-0.0011049809,-0.14359365,-0.59410393,-1.9850011,-1.736938
0.1218923,-0.0010705838,-0.13912371,-0.57561004,-1.9232098,-1.6828686
0.11809792,-0.0010372577,-0.13479292,-0.5576919,-1.8633423,-1.6304827
0.11442167,-0.0010049691,-0.13059698,-0.5403316,-1.8053386,-1.5797276
0.11085988,-0.0009736857,-0.12653168,-0.52351177,-1.7491407,-1.5305529
0.10740896,-0.0009433763,-0.12259292,-0.5072156,-1.6946925,-1.4829088
0.10406549,-0.0009140104,-0.11877679,-0.49142677,-1.6419393,-1.4367481
0.1008261,-0.0008855588,-0.11507946,-0.47612944,-1.5908284,-1.3920246
0.097687565,-0.00085799285,-0.11149724,-0.46130836,-1.5413088,-1.3486933
0.09464673,-0.00083128514,-0.108026534,-0.44694868,-1.4933306,-1.306711
0.091700554,-0.0008054088,-0.10466388,-0.43303603,-1.4468461,-1.2660356
0.0888461,-0.0007803381,-0.1014059,-0.4195565,-1.4018087,-1.2266264
0.08608051,-0.0007560478,-0.098249346,-0.40649658,-1.3581734,-1.1884441
0.08340101,-0.0007325136,-0.095191054,-0.3938432,-1.3158963,-1.1514504
0.08080492,-0.0007097121,-0.09222797,-0.38158375,-1.2749354,-1.1156083
0.07828965,-0.00068762037,-0.08935712,-0.36970592,-1.2352495,-1.080882
0.07585268,-0.00066621637,-0.08657565,-0.35819784,-1.1967992,-1.0472367
0.073491566,-0.00064547866,-0.08388076,-0.347048,-1.1595457,-1.0146387
0.071203955,-0.0006253865,-0.081269756,-0.33624527,-1.1234518,-0.9830555
0.068987556,-0.0006059198,-0.07874003,-0.32577878,-1.0884817,-0.9524554
0.06684015,-0.00058705907,-0.07628906,-0.31563812,-1.0546,-0.92280793
