ax,ay,az,gx,gy,gz
-0.104546405,-2.9191175,-11.819199,95.1045,120.8511,50.6041
-0.020427875,-1.9570746,-12.031132,100.130035,102.878235,57.900665
-0.046142876,-0.24847232,-11.956438,87.79187,81.111,59.702747
0.2931955,1.8964028,-11.275031,75.51896,60.298187,48.598335
1.1492757,3.941222,-10.0805235,68.4222,54.410286,25.858932
2.1405146,6.4376,-8.82652,59.31112,54.64805,-5.449926
2.8703485,8.927534,-8.00662,43.101425,52.554234,-46.268932
3.4477384,10.381167,-7.535673,19.346037,47.38432,-82.42484
3.9192793,10.901115,-7.371681,-6.008448,42.42082,-110.514305
4.3282614,10.773358,-7.5079145,-28.32101,38.1491,-133.5032
4.6953683,10.04699,-7.945757,-46.646896,35.399147,-152.87497
4.857735,8.8252535,-8.631988,-59.917683,33.50101,-169.20375
4.668163,7.011468,-9.554624,-68.442764,30.458132,-180.02095
4.107881,4.8792844,-10.624143,-70.64963,22.741743,-184.22061
3.507618,2.770149,-11.603046,-69.41334,5.6867294,-180.41803
3.3405304,0.66155833,-12.167802,-66.30085,-14.509374,-171.90068
3.4904857,-1.3362113,-12.411587,-60.156654,-34.86869,-159.6554
3.873245,-3.0369093,-12.4023905,-51.608715,-53.64362,-143.77188
4.371751,-4.339119,-12.207909,-40.322826,-70.32347,-124.45994
4.8915815,-5.1925864,-11.874145,-26.976692,-84.960655,-100.771355
5.4093933,-5.458919,-11.429964,-12.900212,-98.47639,-76.06512
5.9821835,-5.2454295,-10.863901,0.66365683,-111.00836,-52.090397
6.6766534,-4.193642,-9.977722,12.769527,-120.48991,-35.123524
7.524159,-2.680384,-8.606781,20.009665,-124.53834,-26.194645
8.277494,-1.0807137,-7.0389805,20.38031,-119.25625,-19.713085
8.539882,0.70713055,-5.8312316,16.26804,-111.58082,-17.254108
8.617108,2.3675451,-4.944277,8.761115,-102.266655,-19.720104
8.606852,3.8063378,-4.3969693,-1.6177393,-91.91734,-25.792135
8.486581,4.8505797,-4.2344046,-13.630898,-81.540436,-35.239746
8.235863,5.323622,-4.391556,-23.69682,-71.72878,-46.897488
7.834931,5.3047113,-4.8236146,-30.728416,-64.109566,-58.946434
7.3858886,5.0014267,-5.347747,-35.03115,-59.57385,-70.39079
6.9583526,4.4339566,-5.889997,-37.56189,-59.031452,-80.151
6.670569,3.6375585,-6.319543,-39.16746,-62.051773,-87.21895
6.5789347,2.6981528,-6.561931,-40.059372,-66.52536,-90.25768
6.5496306,1.5922393,-6.686362,-39.28697,-70.97974,-91.09528
6.487767,0.41478243,-6.790019,-36.192005,-76.17401,-89.49895
6.4162846,-0.71054024,-6.8127403,-31.808027,-81.778275,-84.05575
6.312139,-1.6366869,-6.7517767,-25.882599,-87.88639,-74.609474
6.279042,-2.2572923,-6.570492,-18.698322,-93.17813,-61.22003
6.4482656,-2.5418217,-6.2142825,-10.547731,-95.7534,-46.297073
6.7049494,-2.6449575,-5.8205876,-1.7095459,-95.13856,-30.512556
6.929014,-2.5568416,-5.4653945,6.9612255,-92.06147,-15.146279
6.986892,-2.1213632,-5.1602206,13.824032,-89.229904,-2.9722216
6.94549,-1.3277743,-4.778633,16.397194,-86.66007,0.03930126
6.9587126,-0.6883491,-4.3560176,16.506094,-82.46725,1.3189908
6.915405,-0.18478374,-4.038677,14.55228,-77.53308,3.597148
6.7854023,0.2538439,-3.8271391,11.317127,-72.9668,5.596467
6.605609,0.6104765,-3.6847563,8.402905,-68.891266,6.260916
6.381649,0.58977854,-3.5598264,8.118009,-66.55554,6.048643
6.1664133,0.5698869,-3.439763,7.84421,-64.31081,5.844639
5.9594574,0.5507605,-3.3243184,7.5809445,-62.152416,5.6484823
5.760369,0.53236115,-3.2132623,7.327687,-60.07608,5.459782
5.5687633,0.5146534,-3.1063807,7.083948,-58.07779,5.2781754
5.3842835,0.49760413,-3.0034735,6.8492737,-56.15381,5.1033216
5.2065945,0.48118252,-2.9043548,6.623238,-54.300655,4.934905
5.0353847,0.46535963,-2.8088498,6.405444,-52.515068,4.772629
4.8703604,0.45010847,-2.716796,6.1955194,-50.794,4.616216
4.7112484,0.43540365,-2.6280394,5.993115,-49.134586,4.465407
4.55779,0.42122132,-2.5424368,5.797902,-47.534134,4.319956
4.4097424,0.4075391,-2.4598527,5.609573,-45.990116,4.179634
4.266877,0.39433584,-2.3801596,5.427837,-44.50015,4.0442243
4.1289797,0.3815916,-2.303237,5.252419,-43.061985,3.913522
3.9958453,0.3692876,-2.2289717,5.0830603,-41.6735,3.787335
3.867282,0.35740605,-2.1572561,4.9195166,-40.332684,3.6654801
3.7431068,0.34593007,-2.0879886,4.761555,-39.03764,3.5477848
3.6231477,0.3348437,-2.0210729,4.608957,-37.78656,3.4340854
3.5072405,0.3241318,-1.9564171,4.461513,-36.57774,3.3242264
3.3952293,0.31377992,-1.8939347,4.319025,-35.40955,3.21806
3.2869658,0.30377448,-1.8335431,4.1813045,-34.28045,3.115446
3.1823096,0.29410237,-1.7751634,4.048173,-33.18897,3.016251
3.0811262,0.2847512,-1.718721,3.9194586,-32.133705,2.9203475
2.9832876,0.27570915,-1.6641444,3.7949994,-31.113325,2.827614
2.8886714,0.2669649,-1.6113653,3.6746395,-30.126553,2.7379353
2.797161,0.25850773,-1.560319,3.5582306,-29.172173,2.6512
2.7086453,0.2503273,-1.5109428,3.4456308,-28.249023,2.5673032
2.623017,0.24241371,-1.4631776,3.3367045,-27.35599,2.4861434
2.5401747,0.2347576,-1.4169662,3.2313218,-26.49201,2.4076238
2.46002,0.22734988,-1.3722541,3.1293583,-25.656061,2.331652
2.3824599,0.22018193,-1.3289893,3.0306947,-24.847168,2.258139
2.3074038,0.2132454,-1.2871214,2.935217,-24.064394,2.1869993
2.234766,0.20653236,-1.2466023,2.8428154,-23.306837,2.118152
2.1644633,0.20003515,-1.207386,2.7533844,-22.573639,2.0515177
2.0964167,0.19374642,-1.1694281,2.6668231,-21.863964,1.9870219
2.0305495,0.1876591,-1.1326859,2.5830343,-21.177021,1.9245918
1.9667883,0.18176644,-1.0971184,2.5019245,-20.512043,1.8641577
1.9050623,0.17606185,-1.0626863,2.423404,-19.868292,1.8056527
1.8453039,0.1705391,-1.0293517,2.347386,-19.245058,1.7490126
1.7874473,0.16519211,-0.997078,2.2737875,-18.641659,1.6941751
1.7314297,0.16001508,-0.96583015,2.202528,-18.05744,1.6410805
1.6771902,0.15500239,-0.9355742,2.1335309,-17.491764,1.5896714
1.6246705,0.15014863,-0.9062775,2.0667212,-16.944025,1.5398922
1.573814,0.14544858,-0.87790865,2.0020275,-16.413633,1.4916896
1.5245667,0.14089723,-0.8504373,1.9393804,-15.900022,1.445012
1.4768757,0.13648973,-0.8238342,1.8787134,-15.402642,1.3998096
1.4306905,0.13222142,-0.79807115,1.819962,-14.920969,1.3560345
1.3859626,0.12808774,-0.7731209,1.7630641,-14.454492,1.3136406
1.3426446,0.12408438,-0.7489571,1.7079599,-14.002719,1.272583
1.300691,0.12020712,-0.72555447,1.6545913,-13.565176,1.2328186
1.2600579,0.116451904,-0.7028885,1.6029027,-13.141406,1.1943059
1.220703,0.1128148,-0.6809354,1.5528398,-12.730965,1.1570045
1.1825851,0.10929203,-0.65967244,1.5043505,-12.333426,1.1208757
1.1456648,0.105879925,-0.6390774,1.4573846,-11.948376,1.085882
1.1099037,0.10257496,-0.61912906,1.4118934,-11.575416,1.0519868
1.0752647,0.0993737,-0.59980667,1.3678296,-11.214159,1.0191555
1.0417123,0.096272856,-0.5810904,1.325148,-10.864233,0.98735386
1.0092117,0.09326922,-0.5629608,1.2838045,-10.525278,0.9565492
0.9777296,0.09035971,-0.5453994,1.2437565,-10.196945,0.92670995
0.9472337,0.08754134,-0.5283881,1.2049631,-9.878897,0.89780533
0.91769266,0.084811226,-0.5119095,1.1673844,-9.570807,0.8698058
0.8890763,0.08216656,-0.49594662,1.1309818,-9.272361,0.84268266
0.8613553,0.07960465,-0.48048323,1.0957184,-8.9832535,0.8164083
0.83450145,0.07712287,-0.46550354,1.061558,-8.703189,0.79095566
0.80848736,0.0747187,-0.45099232,1.0284657,-8.431883,0.766299
0.7832865,0.07238969,-0.4369347,0.9964081,-8.169058,0.7424132
0.7588732,0.07013347,-0.42331645,0.96535236,-7.914447,0.71927387
0.7352228,0.067947745,-0.4101237,0.935267,-7.6677914,0.6968576
0.7123112,0.0658303,-0.3973431,0.9061214,-7.428841,0.6751415
0.69011515,0.06377899,-0.38496163,0.87788606,-7.197354,0.6541037
0.6686121,0.061791725,-0.3729668,0.8505324,-6.973095,0.6337228
0.6477805,0.059866507,-0.36134642,0.8240327,-6.755837,0.61397815
0.627599,0.05800138,-0.35008875,0.79836017,-6.5453606,0.59484977
0.6080474,0.056194462,-0.33918244,0.7734888,-6.3414526,0.5763184
0.58910584,0.054443922,-0.3286164,0.7493935,-6.143907,0.5583652
0.57075524,0.052748,-0.31838003,0.72605,-5.952525,0.54097223
0.5529771,0.051104978,-0.30846298,0.70343465,-5.7671127,0.52412176
0.5357534,0.049513202,-0.29885522,0.68152463,-5.587484,0.5077968
0.51906693,0.04797107,-0.28954712,0.66029793,-5.4134564,0.49198106
0.5029007,0.046477024,-0.28052923,0.63973314,-5.244856,0.47665843
0.48723856,0.045029562,-0.27179253,0.6198095,-5.081512,0.46181357
0.47206467,0.043627225,-0.26332822,0.6005071,-4.9232607,0.4474315
0.4573638,0.0422686,-0.25512776,0.5818063,-4.7699423,0.43349776
0.4431212,0.04095233,-0.24718289,0.56368846,-4.6214027,0.41999832
0.42932245,0.039677076,-0.23948565,0.54613525,-4.477493,0.40691963
0.41595376,0.038441572,-0.2320283,0.52912915,-4.338068,0.39424855
0.40300167,0.037244566,-0.22480333,0.51265293,-4.202988,0.3819723
0.3904532,0.03608486,-0.21780351,0.49669018,-4.0721173,0.37007862
0.37829566,0.03496129,-0.21102177,0.48122478,-3.9453242,0.35855553
0.36651695,0.033872724,-0.20445134,0.4662412,-3.8224814,0.34739143
0.3551052,0.03281807,-0.1980856,0.45172447,-3.7034657,0.33657515
0.34404892,0.031796277,-0.19191818,0.43765995,-3.5881577,0.32609582
0.3333371,0.030806312,-0.18594287,0.42403358,-3.4764416,0.31594294
0.32295892,0.029847182,-0.1801537,0.41083166,-3.3682055,0.30610633
0.312904,0.02891793,-0.17454484,0.39804095,-3.263341,0.2965761
0.30316228,0.02801762,-0.1691107,0.3856486,-3.1617424,0.28734273
0.29372397,0.02714535,-0.16384579,0.37364227,-3.0633082,0.27839693
0.2845796,0.026300248,-0.15874486,0.36200985,-2.9679399,0.26972973
0.27572003,0.025481466,-0.1538028,0.35073972,-2.8755414,0.26133248
0.26713637,0.02468818,-0.14901464,0.33982056,-2.7860208,0.25319672
0.25882003,0.023919601,-0.14437559,0.32924142,-2.6992877,0.24531433
0.25076264,0.023174955,-0.139881,0.31899175,-2.6152556,0.2376774
0.24295616,0.022453498,-0.13552637,0.30906123,-2.5338402,0.23027828
0.23539278,0.021754505,-0.13130735,0.29943994,-2.45496,0.22310956
0.2280649,0.021077277,-0.12721969,0.29011825,-2.3785362,0.21616407
0.22096519,0.020421138,-0.12325932,0.2810868,-2.3044918,0.20943482
0.21408655,0.019785428,-0.11942226,0.27233657,-2.232753,0.20291513
0.20742208,0.019169511,-0.11570467,0.2638588,-2.1632478,0.19659843
0.2009651,0.018572772,-0.11210283,0.25564498,-2.0959067,0.19047838
0.19470918,0.017994612,-0.108613126,0.24768691,-2.0306625,0.1845489
0.18864803,0.017434454,-0.10523208,0.23997658,-1.9674494,0.17880404
0.18277559,0.016891735,-0.1019563,0.23250633,-1.9062045,0.17323802
0.17708597,0.016365912,-0.09878251,0.22526865,-1.8468664,0.16784531
0.17157349,0.015856462,-0.09570753,0.21825631,-1.7893755,0.16262047
0.16623263,0.01536287,-0.09272827,0.21146227,-1.7336746,0.1575583
0.16105805,0.014884645,-0.089841776,0.20487975,-1.6797078,0.15265375
0.15604456,0.014421309,-0.08704514,0.19850215,-1.627421,0.14790188
0.15118715,0.013972398,-0.084335566,0.19232312,-1.5767621,0.14329793
0.14648095,0.013537461,-0.081710346,0.18633643,-1.5276803,0.13883731
0.14192127,0.013116065,-0.07916685,0.18053612,-1.4801264,0.13451557
0.13750353,0.012707788,-0.07670254,0.17491637,-1.434053,0.13032836
0.13322333,0.0123122195,-0.074314944,0.16947158,-1.3894137,0.12627149
0.12907636,0.011928965,-0.07200167,0.16419628,-1.3461641,0.122340925
0.12505849,0.011557642,-0.06976042,0.15908521,-1.304261,0.11853272
0.1211657,0.011197879,-0.06758893,0.15413325,-1.2636622,0.114843056
0.11739409,0.010849315,-0.065485045,0.14933543,-1.2243273,0.11126825
0.113739885,0.0105116,-0.06344665,0.14468697,-1.1862168,0.10780474
0.11019944,0.0101844,-0.061471708,0.14018321,-1.1492928,0.104449034
0.106769204,0.009867385,-0.059558246,0.13581964,-1.1135181,0.101197794
0.103445746,0.009560238,-0.057704344,0.13159192,-1.0788572,0.098047756
0.10022574,0.009262652,-0.05590816,0.1274958,-1.0452751,0.09499578
