ax,ay,az,gx,gy,gz
1.0963736,0.06545514,-2.0836554,14.426496,22.916573,-23.748398
1.37207,-0.6837678,-2.7165678,0.31140164,12.317291,-15.864585
1.4466987,-1.755461,-3.793173,-7.600153,1.1766986,-9.238525
1.626706,-2.9588225,-5.042384,-1.9443249,-11.931452,-6.946997
1.9033897,-4.185915,-6.5211306,7.7603264,-24.847528,-4.986152
2.2060063,-5.077754,-7.6631546,17.940384,-36.179527,0.5054898
2.553689,-5.6950846,-8.528916,23.934446,-47.732796,10.329479
2.8690233,-6.2704973,-9.193195,29.53242,-58.97663,21.602636
3.0053926,-6.7291365,-9.689081,35.96984,-71.25756,33.82409
2.9493237,-6.861147,-9.816411,40.966812,-83.223625,47.104027
2.8652525,-6.5952053,-9.454651,43.111977,-94.68645,60.83713
2.892972,-6.0006447,-8.578245,42.899784,-105.04891,72.785446
3.0699816,-5.1129904,-7.239607,42.078415,-112.358406,81.53645
3.3093908,-3.8885505,-5.511681,41.14635,-113.95811,85.85785
3.4509654,-2.3711135,-3.548008,38.919292,-111.38177,86.972435
3.5098386,-0.8929788,-1.6786567,35.72767,-104.47355,84.853455
3.5087678,0.38291195,-0.11368084,32.350044,-95.05625,80.19182
3.4811192,1.4116546,1.0923576,29.461897,-83.80249,73.40913
3.4409776,2.1640143,1.9294183,26.669424,-70.629,64.029816
3.3592517,2.4712286,2.3164403,24.064795,-58.135715,53.93742
3.3322635,2.5343547,2.4907324,21.830402,-46.41567,44.286182
3.3145537,2.4587262,2.5159152,20.1654,-35.274467,35.187626
3.2506745,2.3335488,2.398666,19.235138,-25.340042,26.695652
3.1943958,2.175751,2.1812537,17.898975,-17.28363,19.447803
3.2153678,1.9071484,1.8874192,16.958328,-10.293084,13.303322
3.2613163,1.5996429,1.5361971,16.471476,-4.2746367,8.196606
3.285977,1.322697,1.1360772,16.774126,0.7355158,3.6777008
3.265605,1.100061,0.6811826,17.43525,4.3019314,-0.26555622
3.2205772,0.9331858,0.1824087,17.499231,5.6148663,-3.466041
3.2310617,0.7780775,-0.3417005,17.42528,5.9703584,-6.104351
3.2436907,0.6390444,-0.90681946,17.719769,5.356574,-8.126544
3.2213242,0.5382557,-1.507764,17.840666,3.452342,-9.96396
3.1692045,0.48493794,-2.1040814,17.576103,0.1386972,-11.697657
3.0875113,0.4609432,-2.6622791,16.941256,-4.508513,-13.033278
3.0109086,0.4826154,-3.100795,15.003371,-10.100408,-13.653038
2.9175527,0.4500291,-3.4820936,12.901757,-16.48024,-14.331836
2.8488464,0.36802912,-3.7811515,10.966358,-23.331825,-15.050202
2.8028104,0.2618182,-3.9644156,9.16971,-30.219774,-15.363667
2.7471654,0.20210801,-4.012255,7.231729,-36.972378,-15.26505
2.7315824,0.18824564,-3.8305507,4.4163594,-43.77319,-14.952374
2.7778683,0.11575303,-3.4462078,1.5494385,-49.81663,-14.62756
2.856036,-0.01645878,-2.9204025,-0.7984448,-54.247543,-14.251719
2.9248075,-0.16799882,-2.3069086,-2.5649745,-57.24967,-13.905553
2.9679854,-0.30096838,-1.6478132,-3.497067,-58.364826,-13.602385
2.9969318,-0.45070347,-0.97394687,-4.442825,-58.216885,-12.844286
3.0308151,-0.6347493,-0.33517596,-5.3892097,-56.660473,-11.744685
3.066097,-0.85282975,0.21995032,-5.54449,-53.784172,-10.161655
3.0764859,-1.0416795,0.6655496,-4.6698093,-49.890095,-8.385451
3.0549557,-1.2030933,1.0006446,-3.0809839,-45.117626,-6.457671
3.0037954,-1.3757998,1.1784519,-1.447261,-40.20867,-4.059683
2.9465332,-1.5448476,1.2694329,0.1454516,-35.297417,-1.2713577
2.897918,-1.6756095,1.3127466,1.8838024,-30.314955,1.5776801
2.8487453,-1.755666,1.3018309,3.908818,-25.295563,4.3510537
2.7794676,-1.7762003,1.2139565,5.95112,-20.820116,7.1724267
2.707532,-1.7319351,1.062929,7.8062644,-17.006489,10.066809
2.654349,-1.6324711,0.8980564,9.550808,-13.526608,12.70158
2.6144173,-1.4757336,0.7481395,11.356174,-10.051184,14.947261
2.5704553,-1.2442021,0.5868597,13.112302,-6.7953587,16.589697
2.504448,-0.94935316,0.39571494,14.56027,-4.294234,17.367731
2.4375288,-0.5745915,0.18582508,15.227158,-2.5519722,17.694674
2.3892756,-0.14340249,-0.02039927,15.244043,-1.3667594,17.314186
2.3563507,0.34879398,-0.20965277,14.953856,-0.46627757,15.810027
2.3154569,0.8948811,-0.3779448,14.369968,0.16028416,12.878766
2.254211,1.4351958,-0.53964967,13.233566,0.17478475,8.141761
2.1826162,1.8917104,-0.71195424,11.36049,-0.3787347,2.8113256
2.1229699,2.2120078,-0.8705425,8.485233,-1.5051943,-2.546825
2.0699635,2.3240795,-1.0062805,5.574594,-2.8477113,-8.319671
2.0184276,2.1516147,-1.1198068,3.19766,-4.4260497,-14.227514
2.0299113,1.7040598,-1.1719024,0.9123445,-6.329502,-18.43972
2.1774228,1.0169593,-1.1156251,-0.9929078,-8.01745,-20.876173
2.3581002,0.32288542,-0.994646,-2.0981648,-8.829063,-21.688433
2.465248,-0.26478925,-0.86763376,-2.1440089,-8.930648,-21.392782
2.484515,-0.6560078,-0.75393355,-1.641784,-8.559834,-20.294825
2.4420002,-0.85026443,-0.65885293,-1.4077629,-8.036694,-18.472305
2.362961,-0.8669826,-0.58523554,-1.1117934,-7.285182,-16.752125
2.2650213,-0.7880608,-0.52975464,-1.0766108,-6.3207035,-15.238894
2.1604452,-0.6495312,-0.4891082,-1.7661318,-5.2950644,-13.788529
2.0922122,-0.6290171,-0.47366077,-1.7103523,-5.127831,-13.353048
2.026193,-0.60916865,-0.45871451,-1.6563826,-4.9660234,-12.931697
1.9623104,-0.5899626,-0.444252,-1.6041596,-4.809453,-12.523982
1.9004906,-0.5713766,-0.4302565,-1.5536228,-4.657938,-12.129432
1.8406625,-0.5533895,-0.41671187,-1.5047143,-4.511305,-11.747593
1.7827579,-0.53598064,-0.4036027,-1.457378,-4.3693852,-11.37803
1.7267113,-0.5191304,-0.39091417,-1.4115608,-4.2320204,-11.020326
1.6724598,-0.5028199,-0.37863207,-1.3672111,-4.0990543,-10.674079
1.619943,-0.48703086,-0.36674264,-1.3242793,-3.9703403,-10.338902
1.5691025,-0.47174585,-0.35523278,-1.282718,-3.8457346,-10.014425
1.5198826,-0.45694798,-0.34408972,-1.2424814,-3.7251005,-9.700291
1.472229,-0.4426211,-0.33330134,-1.2035253,-3.608306,-9.396153
1.4260901,-0.4287496,-0.32285586,-1.1658075,-3.4952235,-9.101683
1.3814158,-0.41531843,-0.31274194,-1.1292869,-3.385731,-8.81656
1.338158,-0.40231308,-0.3029487,-1.0939243,-3.2797098,-8.540477
1.2962703,-0.38971964,-0.2934656,-1.0596817,-3.1770463,-8.273138
1.2557076,-0.3775246,-0.28428257,-1.0265223,-3.0776308,-8.0142565
1.216427,-0.36571503,-0.27538973,-0.994411,-2.9813573,-7.7635574
1.1783867,-0.35427833,-0.2667777,-0.96331364,-2.888124,-7.5207744
1.1415466,-0.34320244,-0.25843737,-0.9331973,-2.797832,-7.2856507
1.1058677,-0.33247572,-0.25035995,-0.90403044,-2.7103863,-7.057939
1.0713127,-0.32208687,-0.24253698,-0.8757822,-2.6256948,-6.8374
1.0378454,-0.312025,-0.23496021,-0.8484231,-2.5436692,-6.623802
1.0054307,-0.30227965,-0.2276218,-0.8219246,-2.4642236,-6.4169235
0.97403497,-0.2928406,-0.22051404,-0.7962591,-2.3872755,-6.2165475
0.9436255,-0.2836981,-0.21362957,-0.77139986,-2.3127446,-6.0224667
0.9141709,-0.27484268,-0.20696127,-0.7473211,-2.2405539,-5.8344793
0.8856406,-0.26626512,-0.20050223,-0.723998,-2.1706285,-5.6523914
0.85800517,-0.2579566,-0.19424579,-0.7014065,-2.1028965,-5.4760146
0.8312361,-0.24990857,-0.18818547,-0.67952317,-2.037288,-5.3051677
0.8053059,-0.24211274,-0.18231508,-0.6583256,-1.9737352,-5.139674
0.78018796,-0.23456112,-0.17662857,-0.6377921,-1.9121733,-4.9793653
0.7558566,-0.22724594,-0.17112012,-0.6179015,-1.8525391,-4.8240757
0.7322867,-0.22015974,-0.16578409,-0.59863347,-1.7947714,-4.6736465
0.70945436,-0.21329527,-0.16061503,-0.5799684,-1.7388114,-4.5279245
0.6873362,-0.20664552,-0.15560764,-0.56188715,-1.6846017,-4.3867607
0.6659097,-0.2002037,-0.15075685,-0.5443713,-1.6320871,-4.250011
0.64515305,-0.19396327,-0.1460577,-0.52740306,-1.5812144,-4.1175365
0.6250451,-0.18791789,-0.14150542,-0.5109651,-1.5319315,-3.9892025
0.6055655,-0.18206139,-0.13709538,-0.49504077,-1.4841886,-3.8648782
0.5866943,-0.17638785,-0.1328231,-0.4796139,-1.4379371,-3.7444377
0.56841254,-0.1708915,-0.12868424,-0.4646688,-1.3931301,-3.6277587
0.5507017,-0.16556676,-0.124674626,-0.45019042,-1.3497221,-3.514723
0.53354365,-0.16040826,-0.12079019,-0.43616402,-1.3076694,-3.4052162
0.5169212,-0.15541078,-0.117027,-0.42257544,-1.2669293,-3.2991276
0.5008176,-0.15056926,-0.11338125,-0.40941092,-1.2274606,-3.1963496
0.48521638,-0.1458788,-0.10984927,-0.3966572,-1.1892234,-3.0967786
0.47010195,-0.1413347,-0.10642747,-0.38430133,-1.1521792,-3.0003142
0.45545897,-0.13693234,-0.103112414,-0.37233093,-1.1162906,-2.9068592
0.4412727,-0.13266729,-0.09990076,-0.3607339,-1.0815213,-2.8163188
0.4275289,-0.12853524,-0.096789256,-0.3494985,-1.0478363,-2.728602
0.4142136,-0.124532044,-0.09377478,-0.33861348,-1.0152018,-2.6436203
0.40131348,-0.12065367,-0.090854295,-0.3280678,-0.9835847,-2.5612884
0.38881555,-0.1168962,-0.088024855,-0.31785095,-0.9529533,-2.4815233
0.3767072,-0.11325586,-0.08528362,-0.30795255,-0.9232768,-2.4042447
0.3649763,-0.10972899,-0.082627825,-0.29836267,-0.8945253,-2.3293748
0.35361096,-0.10631205,-0.08005481,-0.2890717,-0.8666699,-2.2568383
0.34259987,-0.103001595,-0.07756198,-0.2800703,-0.83968264,-2.1865625
0.3319319,-0.0997943,-0.07514683,-0.27134937,-0.81353635,-2.1184766
0.32159632,-0.096686944,-0.07280694,-0.26290023,-0.7882048,-2.0525124
0.3115828,-0.09367641,-0.07053996,-0.2547143,-0.7636625,-1.9886035
0.30188128,-0.09075967,-0.0683436,-0.24678345,-0.7398849,-1.9266858
0.292482,-0.08793381,-0.06621568,-0.23909968,-0.7168481,-1.8666971
0.28337553,-0.08519597,-0.064154044,-0.23165527,-0.6945289,-1.8085772
0.27455273,-0.08254343,-0.06215663,-0.22444277,-0.67290497,-1.7522677
0.26600477,-0.07997351,-0.060221434,-0.21745494,-0.65195465,-1.6977124
0.25772303,-0.07748364,-0.058346517,-0.21068476,-0.6316569,-1.6448563
0.24969928,-0.07507132,-0.056530003,-0.20412545,-0.61199135,-1.5936465
0.24192543,-0.07273413,-0.05477006,-0.19777045,-0.5929383,-1.5440317
0.23439369,-0.07046974,-0.05306493,-0.19161335,-0.5744787,-1.4959621
0.22709651,-0.06827586,-0.051412906,-0.18564802,-0.5565939,-1.4493897
0.22002658,-0.066150315,-0.049812328,-0.17986846,-0.5392661,-1.4042675
0.21317683,-0.06409095,-0.048261598,-0.17426889,-0.522478,-1.3605506
0.20654038,-0.062095728,-0.046759155,-0.16884369,-0.5062126,-1.318195
0.20011058,-0.06016263,-0.045303497,-0.16358742,-0.49045372,-1.2771584
0.193881,-0.058289725,-0.04389317,-0.15849483,-0.47518557,-1.2373996
0.18784541,-0.05647514,-0.042526755,-0.15356082,-0.46039283,-1.1988788
0.18199773,-0.05471706,-0.04120289,-0.14878045,-0.44606072,-1.1615574
0.17633215,-0.053013716,-0.039920244,-0.14414892,-0.43217486,-1.1253982
0.17084296,-0.051363412,-0.038677536,-0.13966158,-0.41872135,-1.0903648
0.16552469,-0.049764488,-0.03747352,-0.13531397,-0.4056867,-1.0564221
0.160372,-0.04821535,-0.03630699,-0.13110173,-0.3930579,-1.0235363
0.15537974,-0.04671444,-0.03517678,-0.12702063,-0.3808223,-0.9916744
0.1505429,-0.04526026,-0.034081757,-0.12306659,-0.36896765,-0.96080446
0.14585666,-0.043851357,-0.033020828,-0.11923565,-0.35748208,-0.9308956
0.14131631,-0.042486314,-0.03199293,-0.11552399,-0.34635407,-0.90191793
0.13691732,-0.041163772,-0.03099703,-0.111927874,-0.3355725,-0.8738424
0.13265528,-0.039882403,-0.030032137,-0.10844372,-0.32512662,-0.84664094
0.12852593,-0.038640924,-0.029097283,-0.105068035,-0.31500593,-0.8202863
0.12452513,-0.037438095,-0.028191533,-0.10179744,-0.3052003,-0.7947521
0.120648876,-0.036272712,-0.02731398,-0.09862866,-0.29569995,-0.7700129
0.1168933,-0.03514361,-0.026463745,-0.09555853,-0.28649536,-0.7460438
0.11325464,-0.034049656,-0.02563998,-0.09258398,-0.2775773,-0.7228209
0.109729245,-0.03298976,-0.024841858,-0.089702025,-0.2689369,-0.7003209
0.1063136,-0.031962857,-0.024068583,-0.086909786,-0.26056546,-0.6785214
0.10300429,-0.030967923,-0.02331938,-0.08420447,-0.2524546,-0.6574005
0.099797994,-0.03000396,-0.0225935,-0.08158338,-0.24459626,-0.6369371
0.09669151,-0.029070005,-0.021890216,-0.07904387,-0.23698254,-0.61711067
0.09368173,-0.028165124,-0.021208825,-0.07658342,-0.22960582,-0.59790146
0.09076565,-0.02728841,-0.020548645,-0.074199565,-0.22245875,-0.5792903
0.087940335,-0.02643899,-0.019909017,-0.071889915,-0.21553415,-0.5612584
0.08520297,-0.02561601,-0.019289298,-0.06965216,-0.20882513,-0.5437878
0.08255082,-0.02481865,-0.018688872,-0.067484066,-0.20232493,-0.5268611
