ax,ay,az,gx,gy,gz
-0.06545514,-1.5836507,-6.43824,10.931008,-44.278587,24.025673
0.12296618,-2.545804,-7.493024,-2.1289554,-62.353558,15.573781
1.0326892,-3.7225144,-8.100891,-22.644835,-70.13295,29.53559
1.4322913,-5.3765535,-9.559482,-25.095154,-79.23173,39.637676
1.4839284,-6.778119,-10.911735,-8.943897,-91.24882,39.50002
1.5756217,-7.5181704,-11.861029,12.262956,-102.37953,39.266014
1.6506076,-7.576807,-12.464904,26.088665,-113.953636,44.34182
1.8394067,-7.3606863,-12.544965,31.531036,-126.808525,56.318535
2.0996253,-6.76127,-11.928091,35.54113,-137.3372,66.47598
2.3522007,-5.932627,-10.846013,39.22007,-145.12091,73.47002
2.614379,-4.8057103,-9.272831,42.211308,-149.6374,77.87232
2.8970146,-3.4080725,-7.2961473,42.097816,-150.31755,80.076355
3.1888192,-2.0361788,-5.218623,38.55664,-146.09586,80.17437
3.4530897,-0.81743026,-3.20707,34.32871,-138.39503,78.29767
3.6017551,0.21799946,-1.4573635,30.840353,-127.890594,74.4323
3.6421783,1.1224701,-0.01058747,27.703314,-115.578384,68.98739
3.5904117,1.8552183,1.0905561,24.67681,-102.32325,62.202763
3.4620218,2.3447015,1.8363236,21.906122,-89.232765,54.10834
3.378208,2.5409207,2.2613509,18.988874,-76.956276,46.147858
3.346454,2.5369086,2.539091,16.441624,-65.458374,38.4252
3.3322434,2.463834,2.7232895,14.311863,-54.299232,30.906286
3.304104,2.3449006,2.8062017,12.656956,-43.5661,23.727816
3.2417042,2.2056985,2.7510312,12.646609,-33.32555,16.682364
3.2098916,1.9915987,2.5803425,13.827011,-23.333017,10.142672
3.177297,1.7988162,2.3111432,15.256984,-14.661871,4.0660005
3.1260567,1.6420525,1.9553651,15.927454,-8.11506,-1.7439364
3.1085386,1.4610411,1.546052,15.309211,-3.4514174,-6.436352
3.1456966,1.2358818,1.081346,13.464644,-0.697147,-8.844162
3.1295607,0.9664791,0.4759389,12.787566,0.72857577,-10.815706
3.069396,0.7410884,-0.23038828,12.940785,0.23674573,-12.641515
3.0056834,0.58474344,-1.0006896,13.587819,-1.5197331,-14.506698
2.9571948,0.44995093,-1.7765619,14.313924,-4.4132266,-16.183832
2.918327,0.30383745,-2.5153208,14.095254,-9.270926,-16.520533
2.882338,0.16025466,-3.1557066,13.186305,-14.990381,-15.713237
2.7926934,0.040127587,-3.6958375,13.103225,-21.203917,-14.939476
2.66391,-0.0055800797,-4.099239,13.17179,-27.602615,-14.3601465
2.5079718,0.0342688,-4.319923,12.248857,-34.520603,-13.283755
2.3732858,0.06071778,-4.35072,9.651543,-42.158268,-11.587546
2.375936,-0.027997244,-4.0753527,6.908609,-49.232056,-10.006802
2.4965687,-0.1433257,-3.556801,4.7500377,-54.749897,-8.799518
2.664144,-0.23896924,-2.881609,2.690876,-58.369526,-7.647833
2.8222585,-0.3285762,-2.1295865,0.33271784,-60.214462,-6.3269596
2.9507627,-0.43687123,-1.3630006,-1.821314,-60.00489,-4.877859
3.0293183,-0.5942877,-0.6354422,-3.2467573,-58.398678,-3.472302
3.0849237,-0.75654197,0.028260957,-4.2803082,-55.613384,-1.91944
3.1401787,-0.9186662,0.60812354,-4.780592,-51.623493,-0.30866253
3.1817644,-1.1026478,1.0514077,-4.3627906,-46.664776,1.593811
3.1829386,-1.2909893,1.3378493,-2.6242745,-41.03452,4.1600504
3.1127744,-1.4021373,1.4385693,-0.75350636,-35.918877,6.5965357
3.0326996,-1.4688228,1.4871352,1.2627789,-31.02795,8.918198
2.956722,-1.4893351,1.5005541,3.1840613,-26.033176,11.242068
2.87964,-1.4830477,1.4529113,5.176857,-21.132212,13.460164
2.8075929,-1.4573226,1.345076,7.067407,-16.664263,15.699943
2.7337964,-1.3556944,1.1612304,8.89907,-12.851518,17.835243
2.6430664,-1.1322916,0.95632833,10.547367,-9.787127,19.054033
2.5500004,-0.84840405,0.7463296,12.066508,-7.3773937,19.57133
2.4803207,-0.47371832,0.54303414,13.361667,-5.39067,19.20273
2.4236457,-0.008582356,0.33581024,13.693895,-3.6077714,17.565243
2.323362,0.5091505,0.09752499,13.505755,-2.3334062,14.891725
2.1850135,1.0126886,-0.1528467,13.097659,-2.2235901,10.995114
2.08513,1.4833995,-0.3656431,11.952539,-2.5895164,6.5340586
2.028754,1.8478589,-0.54665977,9.852902,-3.193746,1.8198581
2.0137665,2.0536656,-0.6890647,6.516472,-4.0196133,-2.9454548
2.0252206,1.9153824,-0.76528716,3.480308,-4.8503895,-7.585529
2.0370536,1.5373867,-0.82071424,1.2769387,-5.6232033,-11.679432
2.0536845,1.0404539,-0.86150193,-0.29268008,-6.7321806,-14.863387
2.142147,0.5272546,-0.83434117,-1.947906,-7.913048,-16.423311
2.2651148,0.050072007,-0.7387738,-3.3558552,-8.206626,-16.30404
2.3518524,-0.34627026,-0.6019304,-3.66779,-7.40262,-15.847657
2.3794074,-0.6127722,-0.4841743,-3.743496,-5.6874366,-14.966698
2.344339,-0.7608663,-0.41071442,-3.9896653,-3.5085952,-13.553467
2.2606738,-0.8229356,-0.38137615,-3.996703,-1.1031747,-11.744663
2.1660883,-0.81563413,-0.3640899,-3.8213336,1.3913467,-9.48787
2.0723348,-0.74774307,-0.34905395,-3.0419805,3.9391923,-7.487362
2.0066853,-0.7240553,-0.33799627,-2.9456136,3.8144026,-7.2501698
1.943184,-0.70114267,-0.32730043,-2.8524,3.6936963,-7.020739
1.8817544,-0.67897755,-0.3169535,-2.7622275,3.576928,-6.7987933
1.8223232,-0.65753347,-0.3069432,-2.6749883,3.4639583,-6.584068
1.7648202,-0.63678515,-0.2972577,-2.5905797,3.3546538,-6.376309
1.7091783,-0.6167084,-0.28788564,-2.5089033,3.2488873,-6.175275
1.6553332,-0.59727985,-0.27881622,-2.4298637,3.1465356,-5.9807315
1.6032227,-0.57847726,-0.270039,-2.3533707,3.0474815,-5.792456
1.5527875,-0.5602792,-0.26154396,-2.2793372,2.9516122,-5.610234
1.5039709,-0.54266506,-0.2533215,-2.207679,2.858819,-5.4338584
1.4567176,-0.5256151,-0.2453624,-2.138316,2.768998,-5.263132
1.4109753,-0.5091103,-0.23765779,-2.0711708,2.6820488,-5.0978646
1.3666931,-0.49313232,-0.2301991,-2.006169,2.597875,-4.937873
1.3238224,-0.4776636,-0.22297816,-1.943239,2.5163841,-4.7829804
1.282316,-0.46268722,-0.21598703,-1.8823118,2.437487,-4.6330175
1.2421288,-0.44818687,-0.20921811,-1.8233211,2.3610973,-4.487821
1.2032175,-0.4341468,-0.20266406,-1.766203,2.2871327,-4.347234
1.1655397,-0.42055187,-0.19631782,-1.710896,2.2155132,-4.2111044
1.1290554,-0.4073875,-0.19017257,-1.6573405,2.1461618,-4.0792856
1.0937252,-0.3946396,-0.18422171,-1.6054794,2.0790045,-3.9516375
1.0595117,-0.38229463,-0.17845896,-1.5552572,2.01397,-3.8280237
1.0263784,-0.37033945,-0.17287816,-1.506621,1.9509888,-3.7083132
0.99429053,-0.35876146,-0.16747344,-1.4595193,1.8899946,-3.5923796
0.96321416,-0.34754843,-0.16223909,-1.4139022,1.8309232,-3.4801002
0.9331167,-0.3366886,-0.15716961,-1.369722,1.7737124,-3.3713577
0.9039665,-0.3261706,-0.1522597,-1.3269325,1.7183024,-3.266038
0.8757332,-0.3159834,-0.14750423,-1.2854888,1.6646352,-3.1640308
0.8483874,-0.30611646,-0.14289823,-1.245348,1.612655,-3.0652304
0.8219007,-0.29655948,-0.13843694,-1.2064682,1.5623078,-2.9695337
0.7962457,-0.28730258,-0.13411573,-1.168809,1.5135415,-2.8768418
0.7713957,-0.27833617,-0.12993012,-1.1323318,1.4663055,-2.7870586
0.7473251,-0.269651,-0.12587579,-1.0969987,1.420551,-2.7000914
0.7240092,-0.26123813,-0.12194857,-1.0627732,1.376231,-2.615851
0.70142394,-0.25308886,-0.118144415,-1.0296203,1.3332999,-2.53425
0.6795461,-0.24519488,-0.114459425,-0.99750584,1.2917135,-2.4552054
0.6583534,-0.23754808,-0.11088982,-0.966397,1.2514293,-2.378636
0.63782394,-0.23014063,-0.10743195,-0.9362619,1.212406,-2.304463
0.6179369,-0.22296496,-0.10408227,-0.9070697,1.1746038,-2.232611
0.598672,-0.21601374,-0.10083738,-0.8787906,1.137984,-2.1630063
0.5800094,-0.2092799,-0.09769395,-0.8513959,1.1025094,-2.0955784
0.5619303,-0.20275655,-0.09464879,-0.82485753,1.0681437,-2.0302584
0.5444162,-0.1964371,-0.0916988,-0.7991486,1.0348521,-1.96698
0.52744937,-0.1903151,-0.08884099,-0.774243,1.0026008,-1.9056786
0.51101255,-0.18438435,-0.08607246,-0.7501154,0.97135687,-1.8462924
0.49508908,-0.17863882,-0.083390385,-0.7267413,0.9410888,-1.7887607
0.47966284,-0.17307268,-0.08079206,-0.70409715,0.9117658,-1.7330256
0.46471816,-0.16768032,-0.07827486,-0.68215984,0.8833583,-1.6790304
0.45024,-0.16245629,-0.07583623,-0.6609073,0.8558375,-1.6267205
0.43621364,-0.15739529,-0.07347369,-0.64031804,0.8291756,-1.5760432
0.42262498,-0.1524922,-0.07118488,-0.6203712,0.80334556,-1.5269473
0.40946025,-0.14774208,-0.06896748,-0.60104674,0.7783214,-1.479383
0.39670616,-0.14314014,-0.06681924,-0.58232504,0.75407785,-1.4333024
0.38434988,-0.13868172,-0.06473802,-0.5641872,0.73059046,-1.3886591
0.37237898,-0.13436235,-0.06272169,-0.5466151,0.70783556,-1.3454081
0.3607813,-0.13017768,-0.060768243,-0.52959096,0.68579024,-1.3035057
0.34954527,-0.12612347,-0.0588757,-0.5130976,0.6644322,-1.2629098
0.33865952,-0.12219566,-0.057042155,-0.49711838,0.6437401,-1.2235795
0.32811314,-0.118390284,-0.055265773,-0.4816373,0.623693,-1.1854752
0.31789544,-0.11470353,-0.053544756,-0.46663877,0.60427076,-1.1485587
0.30799624,-0.11113168,-0.05187738,-0.45210773,0.58545387,-1.1127928
0.29840553,-0.10767114,-0.050261967,-0.43802953,0.56722337,-1.0781415
0.2891137,-0.10431845,-0.048696898,-0.42439002,0.549561,-1.04457
0.2801114,-0.101070225,-0.047180593,-0.41117555,0.532449,-1.0120447
0.27138957,-0.09792321,-0.045711536,-0.3983728,0.51587015,-0.98053265
0.2629395,-0.09487424,-0.044288248,-0.38596895,0.4998079,-0.9500025
0.25475273,-0.091920264,-0.0429093,-0.37395152,0.48424602,-0.9204235
0.24682094,-0.08905832,-0.041573312,-0.3623085,0.46916896,-0.891766
0.23913626,-0.08628552,-0.040278945,-0.35102814,0.45456153,-0.86400115
0.23169096,-0.08359909,-0.039024893,-0.3400992,0.44040915,-0.8371012
0.22447756,-0.08099634,-0.037809905,-0.32951063,0.42669758,-0.81103915
0.21748884,-0.07847466,-0.036632758,-0.3192519,0.4134131,-0.7857889
0.21071778,-0.07603152,-0.035492275,-0.30931267,0.40054235,-0.761325
0.20415762,-0.073664464,-0.034387313,-0.299683,0.38807246,-0.73762304
0.19780175,-0.07137114,-0.03331676,-0.2903532,0.37599096,-0.7146593
0.19164383,-0.069149226,-0.03227955,-0.281314,0.36428568,-0.69241065
0.18567766,-0.0669965,-0.03127464,-0.27255628,0.3529449,-0.67085487
0.1798973,-0.06491082,-0.030301021,-0.26407126,0.3419573,-0.64997035
0.17429693,-0.06289009,-0.029357722,-0.2558505,0.33131185,-0.6297361
0.16887094,-0.060932275,-0.028443797,-0.24788569,0.3209979,-0.61013204
0.16361392,-0.059035428,-0.027558329,-0.2401689,0.3110051,-0.59113836
0.15852058,-0.05719764,-0.026700433,-0.23269239,0.30132344,-0.5727361
0.15358584,-0.05541708,-0.025869248,-0.22544868,0.29194325,-0.55490685
0.14880474,-0.053691957,-0.025063943,-0.2184305,0.28285512,-0.5376327
0.14417252,-0.05202055,-0.024283713,-0.21163085,0.27404994,-0.52089643
0.1396845,-0.05040118,-0.023527775,-0.2050429,0.26551893,-0.5046812
0.13533624,-0.048832227,-0.022795374,-0.19866008,0.25725353,-0.48897085
0.13112333,-0.047312126,-0.022085773,-0.19247596,0.24924545,-0.4737496
0.1270416,-0.045839347,-0.021398267,-0.18648438,0.2414867,-0.4590023
0.123086944,-0.044412423,-0.020732163,-0.18067934,0.2339695,-0.4447141
0.11925541,-0.04302992,-0.020086799,-0.17505503,0.22668633,-0.4308707
0.11554316,-0.04169046,-0.019461524,-0.16960582,0.21962991,-0.41745833
0.11194648,-0.0403927,-0.018855717,-0.16432625,0.21279317,-0.4044635
0.10846177,-0.03913534,-0.01826877,-0.15921104,0.20616926,-0.3918732
0.105085544,-0.037917126,-0.017700095,-0.15425508,0.19975157,-0.37967488
0.10181442,-0.03673684,-0.017149122,-0.1494534,0.19353367,-0.3678563
0.098645136,-0.03559329,-0.016615303,-0.1448012,0.18750934,-0.35640565
0.095574506,-0.034485344,-0.016098103,-0.14029384,0.18167256,-0.34531143
0.092599474,-0.033411887,-0.015597003,-0.13592678,0.17601746,-0.33456263
0.08971705,-0.032371845,-0.015111501,-0.13169567,0.17053843,-0.32414842
0.08692436,-0.03136418,-0.0146411145,-0.12759627,0.16522995,-0.3140584
0.08421861,-0.030387886,-0.01418537,-0.123624496,0.1600867,-0.30428246
0.081597075,-0.029441983,-0.013743812,-0.11977636,0.1551036,-0.29481086
0.07905716,-0.028525526,-0.013316001,-0.11604801,0.15027559,-0.28563413
0.0765963,-0.027637595,-0.012901506,-0.11243572,0.14559788,-0.27674302
0.07421205,-0.026777307,-0.0124999145,-0.10893588,0.14106578,-0.26812872
0.07190202,-0.025943797,-0.012110825,-0.105544984,0.13667476,-0.25978255
