ax,ay,az,gx,gy,gz
-0.40000364,5.0291367,0.71818835,18.976536,-1.2763753,12.373749
-0.41000772,5.432639,0.4946356,16.681616,-4.914022,3.3662603
-0.23258713,6.0771484,0.71515256,13.065837,-2.5371294,-9.536547
-0.0011001857,6.6453104,0.94768244,9.075268,1.311523,-19.812948
0.15676586,7.330105,1.1543264,-1.9280527,3.6660917,-28.62078
0.2607323,7.8861337,1.2792172,-17.174133,5.7158346,-35.792984
0.2890305,8.293886,1.2857517,-34.776524,7.487246,-43.612015
0.29782325,8.418184,1.1692909,-50.141224,9.161836,-50.349827
0.3547303,8.4680805,1.0448034,-64.18401,11.494117,-56.498608
0.41506514,8.411228,0.8442403,-75.77006,14.234117,-62.183636
0.46290928,8.225216,0.5454572,-85.2068,17.022476,-67.257195
0.46756938,7.896695,0.1241288,-92.98904,18.574226,-71.22755
0.41854206,7.4865084,-0.40257484,-99.58705,18.606916,-75.22516
0.34688172,6.972971,-0.9557446,-104.739006,17.255835,-79.51174
0.26382342,6.4187946,-1.4771385,-108.01381,15.095264,-84.41036
0.19492957,5.841807,-1.9206008,-109.10936,12.484792,-89.600136
0.16886559,5.2811565,-2.2685447,-109.09134,8.978343,-93.92323
0.15164521,4.70387,-2.5556335,-108.9049,4.853242,-96.95629
0.14533485,4.0663085,-2.8305001,-107.932495,-0.023068424,-98.858116
0.20372441,3.3421295,-3.074091,-106.32074,-5.0406504,-99.31885
0.29868874,2.585052,-3.275807,-103.66432,-9.692658,-98.734276
0.4155193,1.8318533,-3.41396,-99.06391,-13.478324,-97.65844
0.5826323,1.1691319,-3.420091,-92.590904,-16.051405,-95.88299
0.8149932,0.575961,-3.3140285,-85.95698,-17.657852,-92.607864
1.0586846,0.038307358,-3.1653864,-79.39115,-18.440722,-87.91903
1.2741743,-0.45325226,-3.043163,-72.52455,-18.614998,-82.5292
1.4682333,-0.9189115,-2.959135,-64.87555,-18.002178,-76.26826
1.6295339,-1.3768427,-2.9198794,-56.483093,-17.059652,-69.278595
1.7870817,-1.7756212,-2.8899553,-47.130085,-15.531199,-61.435253
1.9384648,-2.0638075,-2.872189,-37.189045,-13.587729,-53.20369
2.0732098,-2.238545,-2.8527162,-27.115116,-11.366783,-44.663162
2.1788707,-2.336909,-2.8501644,-16.847828,-9.222964,-35.469982
2.2469912,-2.3267074,-2.869968,-6.813254,-7.3638463,-26.111792
2.281943,-2.1356475,-2.8626401,2.2432382,-5.928867,-17.557486
2.2767801,-1.730494,-2.7724788,9.366609,-4.7244377,-11.303024
2.2311623,-1.2906097,-2.6393363,14.780813,-3.6642928,-6.5583615
2.1428032,-0.834033,-2.4937074,18.321636,-3.3064067,-2.1527243
2.0101418,-0.2805224,-2.3107476,20.355856,-3.3926823,1.451822
1.8655003,0.30968192,-2.1176746,21.029081,-3.8559806,3.784447
1.7281777,0.8860794,-1.9272156,20.639544,-4.397922,4.4428334
1.6094891,1.401826,-1.753674,19.580688,-4.7226534,3.7560546
1.5035086,1.872855,-1.6023817,17.16622,-4.8356957,1.8041296
1.3954239,2.2655127,-1.5098412,13.881863,-4.9589214,-0.5606448
1.2650142,2.5830696,-1.4797258,10.068429,-5.3437247,-3.505174
1.1240999,2.8249586,-1.499441,6.278723,-6.079559,-7.123144
0.99924,3.0004818,-1.5434538,2.8027344,-7.1366315,-11.416594
0.90593505,3.1301415,-1.5915879,-0.8922245,-8.594599,-16.167074
0.86042404,3.1760616,-1.6379384,-4.4999037,-10.242486,-20.65762
0.8426805,3.1875153,-1.6755807,-8.117185,-12.032493,-24.901836
0.8421828,3.158611,-1.7127204,-11.93103,-14.016738,-28.786047
0.8502374,3.0929234,-1.7404873,-15.839247,-16.082172,-32.346027
0.871172,3.0111358,-1.7588292,-19.64011,-18.303722,-35.822323
0.89849335,2.8860884,-1.7782446,-23.121134,-20.697756,-39.262314
0.94531083,2.692197,-1.8158566,-26.351534,-23.141872,-42.4512
0.99625087,2.4210408,-1.8925186,-28.911854,-25.612371,-45.297054
1.0649184,2.0796402,-1.998238,-30.405039,-27.897276,-47.639328
1.1460114,1.6835066,-2.1196353,-30.06555,-29.835936,-49.298084
1.240954,1.2654395,-2.203087,-28.616154,-31.240484,-50.290836
1.3178269,0.905015,-2.2567928,-26.63043,-32.477074,-50.713615
1.3892972,0.58205515,-2.2683954,-24.234165,-33.606113,-50.687996
1.4593519,0.3015688,-2.2416499,-21.781616,-34.50499,-50.246918
1.5176561,0.025004989,-2.2028165,-19.09461,-35.145004,-49.323006
1.5968144,-0.25231758,-2.1521797,-16.171602,-35.431374,-48.095886
1.728311,-0.5452108,-2.084333,-13.150784,-34.601856,-45.862194
1.8234403,-0.82203156,-2.057907,-9.638678,-32.952446,-43.011963
1.8635304,-1.0669909,-2.0671253,-5.1568046,-30.66755,-40.339397
1.8835435,-1.2947242,-2.0933366,0.8414231,-27.865574,-37.471985
1.9254019,-1.5036008,-2.131075,7.5293694,-25.187544,-33.947723
1.9902854,-1.6140523,-2.1397276,13.873608,-22.385105,-29.59262
2.0609376,-1.6292607,-2.11665,19.166748,-19.45068,-25.37352
2.1293952,-1.6377218,-2.0820196,24.870405,-16.145658,-21.01709
2.1867418,-1.5430433,-2.0159795,30.163567,-12.97749,-16.052235
2.2754714,-1.3559144,-1.8858514,34.341766,-9.972193,-10.222344
2.3570285,-1.0576336,-1.7170666,37.023438,-6.7948747,-3.9515007
2.3896885,-0.6421117,-1.5294298,37.826645,-3.5981183,1.6223732
2.399002,-0.20702265,-1.328851,37.174297,-0.086829655,6.1466303
2.3783903,0.18222752,-1.1631093,35.574615,3.9427648,9.8344755
2.30419,0.49113247,-1.0855699,33.38508,7.9164667,13.471734
2.2177553,0.7796017,-1.0457298,30.553988,11.784336,17.137362
2.1356003,1.0828538,-1.0198536,26.975489,15.650173,20.345642
2.0485685,1.3448106,-1.0290257,23.03762,19.333502,23.052315
1.9840789,1.3024755,-0.9966316,22.31239,18.724876,22.32662
1.9216626,1.2615016,-0.96527904,21.610474,18.135818,21.624256
1.8612491,1.2218423,-0.9349325,20.93108,17.565662,20.94443
1.8027706,1.1834532,-0.9055579,20.273447,17.013767,20.286377
1.7461618,1.1462916,-0.87712246,19.63684,16.479519,19.649366
1.6913601,1.1103163,-0.8495948,19.020557,15.962324,19.032688
1.6383051,1.0754876,-0.82294446,18.423916,15.461614,18.435665
1.5869386,1.0417675,-0.7971423,17.846262,14.97684,17.857645
1.5372049,1.009119,-0.7721603,17.28697,14.507473,17.297997
1.4890498,0.97750694,-0.7479713,16.745432,14.053006,16.756111
1.4424214,0.94689715,-0.72454923,16.221064,13.612949,16.23141
1.39727,0.91725683,-0.70186895,15.713302,13.186829,15.723324
1.3535469,0.8885542,-0.67990625,15.221604,12.774189,15.231313
1.3112056,0.8607588,-0.65863764,14.745447,12.374591,14.754852
1.2702014,0.83384097,-0.63804066,14.284326,11.987611,14.293436
1.2304909,0.80777246,-0.61809343,13.837751,11.61284,13.846578
1.1920321,0.78252566,-0.598775,13.405255,11.249883,13.413805
1.1547847,0.7580741,-0.58006513,12.986382,10.898358,12.994664
1.1187097,0.73439217,-0.5619441,12.580692,10.557898,12.5887165
1.0837694,0.71145517,-0.5443931,12.187764,10.228147,12.195538
1.0499275,0.68923914,-0.5273938,11.807187,9.908761,11.814718
1.0171487,0.6677211,-0.5109286,11.438566,9.599409,11.445862
0.9853991,0.6468786,-0.49498028,11.081519,9.29977,11.088587
0.9546458,0.6266902,-0.47953248,10.735677,9.009534,10.742524
0.92485714,0.60713506,-0.46456918,10.4006815,8.728401,10.407315
0.8960024,0.58819294,-0.450075,10.076189,8.456082,10.082616
0.8680518,0.5698444,-0.43603504,9.761865,8.192297,9.768091
0.84097683,0.5520707,-0.42243487,9.457387,7.936775,9.463419
0.8147496,0.53485346,-0.40926054,9.162443,7.689254,9.168287
0.7893433,0.5181751,-0.3964986,8.876731,7.44948,8.882393
0.76473194,0.5020187,-0.38413596,8.599958,7.217209,8.605444
0.74089044,0.48636758,-0.37216002,8.331844,6.992203,8.337158
0.7177945,0.47120595,-0.3605586,8.072113,6.7742333,8.077262
0.69542056,0.45651826,-0.34931985,7.8205028,6.563078,7.8254905
0.6737459,0.44228965,-0.33843234,7.5767555,6.358522,7.581588
0.65274847,0.4285056,-0.32788503,7.3406243,6.1603575,7.3453064
0.63240695,0.41515216,-0.31766722,7.11187,5.9683833,7.1164055
0.61270076,0.40221575,-0.3077685,6.8902593,5.782405,6.8946543
0.5936099,0.3896833,-0.29817888,6.675569,5.6022334,6.6798267
0.5751151,0.37754208,-0.28888863,6.467581,5.4276867,6.471706
0.5571975,0.36577985,-0.2798884,6.266085,5.258589,6.2700815
0.5398391,0.3543847,-0.271169,6.0708776,5.0947676,6.0747495
0.52302235,0.3433451,-0.26272172,5.881761,4.936058,5.8855124
0.5067302,0.33264995,-0.25453794,5.6985445,4.7823005,5.702179
0.49094635,0.3222884,-0.24660948,5.5210433,4.633339,5.5245647
0.47565475,0.31225002,-0.23892829,5.3490787,4.4890237,5.3524904
0.46084005,0.30252472,-0.23148665,5.1824765,4.349209,5.185782
0.4464873,0.29310265,-0.22427706,5.02107,4.213754,5.0242724
0.43258208,0.28397438,-0.21729226,4.8646955,4.0825224,4.8677983
0.41911036,0.2751307,-0.21052521,4.7131963,3.955382,4.7162023
0.40605858,0.26656267,-0.20396912,4.5664196,3.832205,4.569332
0.39341363,0.2582617,-0.19761738,4.424218,3.7128675,4.42704
0.3811628,0.2502195,-0.1914636,4.286449,3.5972493,4.2891827
0.36929375,0.24242789,-0.1855016,4.1529727,3.4852345,4.1556215
0.35779455,0.2348791,-0.17972541,4.0236564,3.3767102,4.0262227
0.3466537,0.22756554,-0.17412919,3.8983693,3.2715676,3.9008558
0.33585998,0.22047985,-0.16870734,3.7769861,3.169701,3.779395
0.32540256,0.21361493,-0.16345443,3.6593847,3.0710082,3.6617188
0.3152709,0.20696387,-0.15836516,3.5454473,2.9753902,3.5477085
0.3054549,0.20052002,-0.15343443,3.4350593,2.882751,3.4372501
0.29594466,0.1942769,-0.1486573,3.32811,2.7929976,3.3302326
0.28673068,0.18822825,-0.14402899,3.224492,2.70604,3.2265487
0.2778037,0.18236801,-0.13954483,3.1241016,2.621791,3.126094
0.26915476,0.1766903,-0.13520035,3.026838,2.5401661,3.0287688
0.2607752,0.17118943,-0.13099118,2.932604,2.4610834,2.9344745
0.2526566,0.16585986,-0.12691309,2.8413048,2.3844638,2.843117
0.24479087,0.1606963,-0.12296201,2.7528489,2.3102303,2.7546046
0.23717009,0.15569353,-0.11913398,2.6671476,2.2383087,2.6688488
0.22978663,0.15084656,-0.11542516,2.5841153,2.1686268,2.5857635
0.2226331,0.14615051,-0.11183184,2.5036688,2.1011147,2.5052655
0.21570233,0.14160071,-0.10835041,2.4257271,2.035705,2.4272742
0.20898736,0.13719259,-0.104977384,2.3502126,1.9723322,2.3517115
0.2024815,0.13292173,-0.101709396,2.2770495,1.9109327,2.2785017
0.1961782,0.12878385,-0.09854316,2.2061646,1.851445,2.2075715
0.19007118,0.124774806,-0.09547551,2.1374867,1.7938094,2.13885
0.1841543,0.120890595,-0.092503384,2.0709472,1.7379686,2.072268
0.17842165,0.117127314,-0.08962379,2.0064793,1.6838663,2.007759
0.17286749,0.11348121,-0.08683385,1.9440187,1.6314485,1.9452586
0.16748625,0.10994862,-0.08413078,1.883503,1.5806627,1.8847042
0.16227256,0.10652602,-0.08151186,1.8248712,1.531458,1.826035
0.15722117,0.10320997,-0.07897448,1.7680647,1.4837854,1.7691925
0.15232706,0.09999717,-0.0765161,1.713027,1.4375969,1.7141196
0.14758532,0.09688439,-0.07413425,1.6597027,1.3928463,1.6607612
0.1429912,0.09386852,-0.071826555,1.6080385,1.349489,1.6090641
0.1385401,0.09094653,-0.06959071,1.5579828,1.3074815,1.5589764
0.13422757,0.08811552,-0.06742446,1.5094854,1.2667818,1.5104481
0.1300493,0.085372634,-0.065325655,1.4624977,1.227349,1.4634304
0.1260011,0.08271514,-0.06329219,1.4169728,1.1891439,1.4178766
0.12207894,0.080140375,-0.061322026,1.3728652,1.1521282,1.3737408
0.11827887,0.07764577,-0.059413195,1.3301306,1.1162647,1.330979
0.11459709,0.07522882,-0.057563785,1.2887264,1.0815177,1.2895484
0.11102993,0.07288711,-0.055771947,1.2486112,1.0478524,1.2494075
0.107573815,0.070618294,-0.05403589,1.2097447,1.0152351,1.2105162
0.10422529,0.068420105,-0.052353878,1.1720881,0.98363316,1.1728357
0.100981005,0.06629035,-0.050724223,1.1356038,0.95301497,1.136328
0.09783771,0.06422689,-0.0491453,1.1002551,0.9233499,1.1009569
0.09479226,0.062227666,-0.047615528,1.0660069,0.8946083,1.0666867
0.091841616,0.060290676,-0.046133377,1.0328248,0.8667614,1.0334835
0.08898282,0.058413982,-0.044697363,1.0006756,0.83978134,1.0013138
