ax,ay,az,gx,gy,gz
-0.20454732,2.7191155,0.6609151,-15.591959,-2.8300257,-16.423786
-0.37819698,2.7138193,0.55803865,-20.900297,-5.6402154,-20.579632
-0.48477808,2.776895,0.52764857,-23.988697,-5.0009236,-22.706507
-0.5301218,2.9664018,0.46286058,-31.010834,-6.25705,-25.619837
-0.6445363,3.0618196,0.27051294,-35.658257,-8.683533,-29.50052
-0.8062967,3.3114083,0.14813101,-37.33264,-12.044379,-36.880787
-0.8756198,3.5231574,0.12898685,-40.16683,-15.369157,-44.448788
-0.81848973,3.6432738,0.17649014,-44.890873,-18.346533,-49.39401
-0.6963408,3.73071,0.26097882,-51.063145,-20.723593,-52.13696
-0.6278491,3.81519,0.31191626,-56.891453,-21.876707,-56.046555
-0.63579154,3.8078969,0.24625827,-60.893013,-22.534698,-61.43072
-0.6646708,3.7333834,0.090212636,-62.183067,-22.975311,-68.285095
-0.7249022,3.6171114,-0.118397415,-62.36993,-24.299234,-75.699036
-0.7096697,3.4099014,-0.3171609,-63.717648,-26.773024,-80.08292
-0.6913124,3.0612407,-0.62460214,-66.19461,-30.610489,-82.43417
-0.6425223,2.6080525,-0.93751407,-67.78081,-34.050453,-83.77508
-0.56422013,2.1346207,-1.2195929,-67.58086,-36.814,-85.197075
-0.43335488,1.6788156,-1.4118007,-65.884155,-38.653633,-86.349075
-0.29283327,1.2411183,-1.5624197,-63.808693,-40.655518,-86.449265
-0.18679285,0.74690104,-1.7379557,-61.32159,-43.283802,-85.26307
-0.06799617,0.24341054,-1.9251167,-58.39709,-46.45476,-82.54434
0.092201784,-0.23087408,-2.0762792,-54.584248,-49.09916,-79.35666
0.27987772,-0.6592026,-2.1837726,-49.462708,-50.079025,-76.63945
0.43161094,-1.036878,-2.2737088,-43.696255,-50.205456,-73.6061
0.507537,-1.3811218,-2.3423805,-38.476383,-50.712814,-69.40696
0.5810756,-1.7164432,-2.3928514,-32.912132,-51.34411,-64.14474
0.6809424,-2.032784,-2.4300954,-26.109608,-51.390213,-57.887146
0.79583377,-2.2743196,-2.4433799,-17.849113,-50.756443,-50.80931
0.9206401,-2.296742,-2.3509483,-9.823419,-49.374977,-44.355354
1.1017114,-2.2531137,-2.1477373,-2.8015487,-46.863533,-38.495834
1.2931017,-2.2620547,-1.9721903,3.5176032,-43.646152,-31.80555
1.4577663,-2.2607505,-1.8343279,9.319883,-40.270863,-24.059383
1.5974478,-2.205892,-1.7070891,15.124406,-37.066574,-15.04059
1.7208049,-1.9009861,-1.5104582,18.585741,-34.126873,-6.982668
1.8217839,-1.4573724,-1.2392156,19.923777,-30.765463,-2.1604786
1.8713259,-1.1991547,-1.0505732,21.517406,-26.788038,1.7008308
1.8579245,-0.95163935,-0.9241493,23.157482,-22.995438,5.46628
1.8037013,-0.67592585,-0.8331067,24.178417,-19.94176,9.052962
1.7397088,-0.3641146,-0.7351389,24.308922,-17.368877,12.024952
1.6351414,0.024510307,-0.6293491,23.955662,-14.894771,13.524698
1.5024787,0.3773883,-0.5587355,23.627542,-12.662773,13.863703
1.3466377,0.6977028,-0.517565,23.195995,-10.912417,13.175921
1.1801591,1.0024974,-0.49251074,22.447104,-9.725662,11.76761
1.0078927,1.2932141,-0.4827228,20.686646,-9.481673,9.738022
0.8557124,1.5546285,-0.48507756,18.398823,-9.752241,7.2352443
0.73468846,1.7748168,-0.49814084,15.820908,-10.1875105,3.9253771
0.636812,1.938843,-0.5196049,13.307182,-10.514221,-0.059020314
0.5499763,2.0642068,-0.5483943,10.893465,-10.823477,-4.226996
0.47152594,2.150936,-0.5903852,8.047796,-11.594812,-7.9472046
0.3815594,2.2076266,-0.6780831,4.9667974,-13.093093,-11.615769
0.28669938,2.226931,-0.7949791,1.8287836,-15.247319,-15.460485
0.20142901,2.2117636,-0.91442615,-1.1885136,-17.97625,-19.605919
0.16015682,2.1564157,-0.9889099,-3.8280635,-20.456657,-23.789501
0.15882109,2.0487306,-1.0491184,-5.8141766,-22.47435,-27.468672
0.15117453,1.9082451,-1.1432301,-7.59296,-24.835545,-30.899813
0.15961713,1.7459362,-1.2283661,-9.0887165,-27.264925,-33.983105
0.17449297,1.5532092,-1.3179611,-10.329248,-29.966982,-36.81347
0.18178517,1.3374914,-1.408055,-11.128899,-32.951473,-39.58158
0.22086492,1.0799415,-1.4741436,-11.277777,-35.631634,-41.83177
0.32682866,0.77059954,-1.5091872,-10.862708,-37.649956,-43.349934
0.44318578,0.44062504,-1.5583918,-9.4670515,-39.256107,-44.118694
0.5468195,0.13953446,-1.606036,-7.210626,-40.855473,-44.281143
0.63321185,-0.10018685,-1.6263629,-4.780181,-42.718796,-44.262394
0.7391584,-0.32424358,-1.6015557,-2.4376247,-44.45478,-43.87826
0.9270833,-0.58661705,-1.5013793,0.036597986,-45.058926,-42.313328
1.1131849,-0.83788294,-1.416599,2.8261523,-44.799744,-39.778816
1.2843795,-1.0746574,-1.3528043,6.127381,-43.954742,-36.232998
1.4296055,-1.2971323,-1.3229952,10.11374,-42.82586,-31.777964
1.5445598,-1.4658519,-1.303833,14.402747,-41.608227,-26.260216
1.6681993,-1.5038021,-1.2125143,17.933239,-40.098537,-20.73635
1.812841,-1.5092529,-1.0794395,21.081802,-37.550858,-15.252732
1.9312211,-1.4658439,-0.96143204,24.149195,-34.09023,-10.234407
1.9995174,-1.406532,-0.8875898,27.572578,-30.331158,-5.6978927
2.0341341,-1.3470488,-0.8398711,30.869661,-26.988222,-0.72619003
2.0698955,-1.2964875,-0.7984074,34.32148,-23.61966,5.1902194
2.1040437,-1.143564,-0.7424147,36.526577,-20.627869,11.542702
2.1446333,-0.92301464,-0.65647775,37.280148,-17.480936,17.803707
2.1545935,-0.69091165,-0.59872913,37.261253,-14.353476,23.566074
2.1293309,-0.4474381,-0.55402464,37.383583,-11.084832,27.79526
2.0839198,-0.21171844,-0.5163475,38.000355,-7.642952,31.013916
2.0446372,0.038253583,-0.47399575,38.245316,-4.2122135,33.792156
1.9802715,0.03704935,-0.4590742,37.04134,-4.079612,32.728367
1.917975,0.03588383,-0.44463238,35.876072,-3.951273,31.698778
1.8576773,0.034755707,-0.43065396,34.748196,-3.827052,30.702229
1.799311,0.03366372,-0.41712326,33.656445,-3.7068102,29.737597
1.742811,0.032606646,-0.4040252,32.599598,-3.5904129,28.803806
1.6881144,0.031583317,-0.39134523,31.576488,-3.477731,27.899826
1.6351612,0.030592602,-0.37906942,30.585989,-3.3686404,27.024656
1.5838933,0.02963342,-0.36718428,29.627014,-3.2630222,26.177341
1.5342549,0.028704723,-0.35567692,28.698519,-3.1607609,25.356958
1.4861922,0.027805509,-0.34453484,27.799498,-3.0617456,24.562616
1.4396535,0.026934804,-0.33374605,26.928982,-2.9658697,23.793459
1.3945886,0.026091674,-0.32329893,26.086035,-2.8730302,23.048662
1.3509494,0.02527522,-0.31318232,25.269756,-2.783128,22.327427
1.3086895,0.024484567,-0.30338547,24.479275,-2.696067,21.628988
1.267764,0.023718884,-0.29389796,23.713757,-2.6117554,20.952604
1.2281295,0.022977354,-0.28470975,22.97239,-2.5301034,20.297558
1.1897446,0.022259202,-0.2758112,22.25439,-2.4510255,19.663162
1.1525687,0.02156367,-0.26719293,21.559008,-2.3744385,19.048748
1.116563,0.02089003,-0.25884596,20.885513,-2.300262,18.453672
1.0816897,0.020237578,-0.2507615,20.233204,-2.2284186,17.877316
1.0479127,0.019605637,-0.24293119,19.601398,-2.1588337,17.319077
1.0151968,0.018993547,-0.23534685,18.989443,-2.091435,16.778374
0.9835081,0.018400677,-0.22800067,18.3967,-2.0261521,16.254648
0.95281386,0.017826412,-0.22088501,17.822557,-1.962918,15.747357
0.92308235,0.017270157,-0.21399254,17.266424,-1.9016674,15.255979
0.89428294,0.016731342,-0.20731615,16.727726,-1.8423369,14.7800045
0.86638606,0.016209414,-0.20084898,16.20591,-1.7848657,14.318947
0.839363,0.015703833,-0.19458438,15.7004385,-1.7291948,13.872331
0.8131861,0.015214083,-0.18851595,15.210794,-1.675267,13.439699
0.7878285,0.014739663,-0.18263747,14.736477,-1.6230272,13.02061
0.7632644,0.014280087,-0.17694291,14.277,-1.572422,12.614634
0.7394687,0.013834887,-0.1714265,13.831897,-1.5233997,12.221356
0.716417,0.013403609,-0.16608258,13.400712,-1.4759104,11.840377
0.6940861,0.012985813,-0.16090572,12.9830065,-1.4299058,11.471308
0.672453,0.012581076,-0.15589066,12.578356,-1.3853389,11.113773
0.6514959,0.012188984,-0.1510323,12.186349,-1.3421645,10.76741
0.6311934,0.01180914,-0.1463257,11.806588,-1.3003389,10.431868
0.611525,0.01144116,-0.1417661,11.438687,-1.2598195,10.106804
0.59247077,0.01108467,-0.13734888,11.082274,-1.2205653,9.791891
0.5740114,0.01073931,-0.13306956,10.736989,-1.1825367,9.486809
0.5561282,0.010404729,-0.1289238,10.40248,-1.1456951,9.19125
0.53880316,0.01008059,-0.124907434,10.078411,-1.1100031,8.904914
0.5220187,0.009766566,-0.12101639,9.764455,-1.075425,8.627513
0.5057578,0.009462338,-0.11724674,9.460293,-1.0419255,8.358767
0.4900042,0.0091676,-0.11359468,9.165619,-1.0094712,8.098404
0.47474197,0.008882055,-0.11005653,8.880136,-0.978029,7.846162
0.4599557,0.008605416,-0.106628716,8.603556,-0.9475674,7.6017857
0.44563052,0.008337403,-0.10330779,8.3356,-0.91805565,7.3650303
0.43175197,0.008077745,-0.100090414,8.075999,-0.8894641,7.1356564
0.41830608,0.007826184,-0.09697334,7.824492,-0.8617639,6.9134336
0.40527937,0.0075824633,-0.09395343,7.5808244,-0.83492714,6.698138
0.39265868,0.0073463405,-0.091027655,7.3447523,-0.80892694,6.4895535
0.38043132,0.0071175764,-0.08819307,7.116038,-0.78373706,6.2874694
0.36858508,0.0068959417,-0.08544682,6.894451,-0.75933224,6.091684
0.35710797,0.006681214,-0.08278615,6.67977,-0.7356879,5.901999
0.34598848,0.006473177,-0.08020839,6.471778,-0.71278036,5.718225
0.33521548,0.006271622,-0.07771095,6.2702665,-0.6905866,5.5401773
0.3247781,0.006076347,-0.07529132,6.0750337,-0.6690843,5.3676767
0.3146659,0.005887156,-0.07294707,5.8858833,-0.6482519,5.20055
0.30486873,0.0057038586,-0.07067585,5.7026253,-0.62806845,5.0386305
0.29537675,0.0055262707,-0.06847539,5.5250764,-0.6085138,4.8817544
0.28618044,0.005354215,-0.066343464,5.353058,-0.5895682,4.729765
0.2772706,0.0051875184,-0.06427795,5.186397,-0.57121277,4.58251
0.26863825,0.005026014,-0.062276762,5.0249276,-0.55342907,4.4398413
0.26027477,0.0048695398,-0.06033791,4.8684874,-0.5361992,4.3016167
0.25217175,0.004717939,-0.05845944,4.716919,-0.519506,4.1676965
0.24432112,0.0045710593,-0.05663947,4.570071,-0.5033327,4.037947
0.23671496,0.004428754,-0.054876182,4.427797,-0.487663,3.9122386
0.22934566,0.00429088,-0.0531678,4.2899528,-0.4724813,3.7904446
0.22220586,0.0041573,-0.051512625,4.156401,-0.4577724,3.6724436
0.21528839,0.0040278793,-0.04990899,4.0270085,-0.44352153,3.558117
0.20858632,0.0039024886,-0.04835529,3.9016452,-0.4297144,3.4473503
0.20209293,0.0037810025,-0.046849966,3.7801852,-0.4163372,3.3400328
0.19580173,0.0036632991,-0.04539152,3.6625073,-0.40337655,3.236057
0.18970643,0.0035492608,-0.043978482,3.5484936,-0.39081943,3.1353185
0.1838009,0.0034387729,-0.04260944,3.4380298,-0.37865332,3.0377166
0.17807926,0.0033317253,-0.041283026,3.331005,-0.366866,2.9431539
0.17253575,0.0032280106,-0.03999791,3.2273128,-0.35544565,2.851535
0.16716485,0.003127525,-0.0387528,3.126849,-0.3443809,2.762769
0.16196115,0.003030168,-0.037546463,3.029513,-0.33366063,2.6767664
0.15691946,0.002935842,-0.03637768,2.9352074,-0.3232741,2.5934415
0.15203474,0.0028444526,-0.035245284,2.8438377,-0.31321096,2.5127106
0.1473021,0.0027559085,-0.034148145,2.755313,-0.3034611,2.4344933
0.1427168,0.0026701211,-0.033085164,2.669544,-0.2940148,2.358711
0.13827425,0.0025870043,-0.032055274,2.586445,-0.28486258,2.2852879
0.13396999,0.0025064752,-0.031057443,2.5059333,-0.27599528,2.2141507
0.12979974,0.002428453,-0.03009068,2.427928,-0.26740402,2.145228
0.12575932,0.0023528596,-0.029154012,2.352351,-0.25908023,2.078451
0.12184467,0.0022796197,-0.028246503,2.279127,-0.25101554,2.0137527
0.118051894,0.0022086597,-0.027367247,2.2081823,-0.24320194,1.9510686
0.11437718,0.0021399087,-0.026515363,2.139446,-0.23563157,1.890336
0.110816866,0.002073298,-0.025689997,2.0728498,-0.22829688,1.8314939
0.10736738,0.0020087608,-0.024890324,2.0083265,-0.2211905,1.7744836
0.10402528,0.0019462326,-0.024115544,1.945812,-0.21430534,1.7192479
0.10078722,0.001885651,-0.023364885,1.8852434,-0.20763452,1.6657318
0.097649954,0.0018269552,-0.022637593,1.8265604,-0.20117137,1.6138816
0.094610356,0.0017700866,-0.021932939,1.769704,-0.1949094,1.5636455
0.09166537,0.0017149883,-0.021250222,1.7146175,-0.18884236,1.514973
0.08881206,0.0016616051,-0.020588757,1.661246,-0.18296418,1.4678159
