ax,ay,az,gx,gy,gz
3.336394,2.400931,7.6255236,52.324112,4.7718616,-15.48105
4.4802036,2.506263,8.613943,57.085392,18.987318,-25.960918
5.2822356,2.4386363,9.119393,53.29259,32.89143,-29.563599
5.8107176,2.290372,9.316367,46.252758,45.787792,-29.91671
6.106932,2.04248,9.29755,39.438976,57.551327,-28.72266
6.263497,1.8335522,9.114593,33.24552,68.723495,-28.171303
6.413147,1.6415052,8.705595,27.672945,79.32549,-27.852837
6.530877,1.4177568,8.108859,23.175253,90.081406,-28.156967
6.620831,1.1217685,7.324709,20.29534,101.26014,-28.847824
6.636129,0.8788308,6.447939,18.140844,112.15946,-28.477034
6.4879956,0.7236365,5.525172,15.725775,121.18511,-26.111197
6.1883554,0.5924565,4.5717864,13.250958,127.75023,-23.288456
5.7425213,0.4344921,3.5221045,11.635769,132.04103,-21.2845
5.267946,0.2883631,2.5036564,10.963882,134.48166,-20.158592
4.7754173,0.17868945,1.5560138,10.723811,135.21365,-19.397943
4.2683644,0.107195504,0.6826502,10.712785,133.46877,-18.729027
3.7767282,0.09459391,-0.10128879,10.866031,130.08572,-18.446278
3.3479118,0.12950025,-0.78107023,10.921475,125.48585,-18.445473
2.9869938,0.19620772,-1.3738538,10.531715,120.253456,-18.24268
2.661537,0.2821628,-1.9063978,9.617339,114.440445,-17.705086
2.3397975,0.36807612,-2.3938055,8.047778,107.36939,-16.917704
2.0219545,0.43190235,-2.8414571,6.337868,99.94775,-16.185488
1.7105365,0.47676903,-3.2609649,4.722448,92.20384,-15.69128
1.4116862,0.5144075,-3.6438184,3.1208825,84.12814,-15.500646
1.1334677,0.53992766,-3.9865487,1.5501398,75.66794,-15.416889
0.88197386,0.5739898,-4.264578,-0.079059854,66.63525,-15.865889
0.6780922,0.62892336,-4.4715867,-1.7684301,57.61621,-16.638288
0.53811824,0.6892533,-4.6277237,-3.5383418,48.675686,-17.426262
0.41749117,0.73437333,-4.753611,-5.4991984,39.656265,-17.984789
0.3029282,0.7296307,-4.8549175,-7.5622587,30.380993,-18.127321
0.20378387,0.67978245,-4.925161,-8.980584,20.735624,-18.746628
0.19431211,0.64821655,-4.8961024,-9.747631,11.373609,-20.21153
0.27694228,0.6431653,-4.776356,-10.659477,2.4155183,-21.662138
0.422701,0.6185705,-4.589093,-12.305375,-6.409996,-22.13132
0.6116457,0.5356353,-4.3549523,-14.624442,-14.99521,-21.771965
0.8301745,0.38329387,-4.0885906,-16.13116,-22.340246,-21.812384
1.1093347,0.22707643,-3.7480917,-16.299011,-28.305353,-23.06966
1.4587831,0.11058658,-3.3136818,-15.683053,-32.676273,-24.716597
1.8306916,0.030634392,-2.797785,-15.024575,-35.64589,-25.585058
2.176688,-0.024895605,-2.2433467,-14.760842,-37.549576,-25.548927
2.495997,-0.06262568,-1.6791053,-14.447415,-38.017586,-25.523296
2.8172224,-0.07756145,-1.1063485,-13.870056,-37.04356,-25.857891
3.1352978,-0.059477054,-0.5401867,-13.470183,-34.56295,-26.004047
3.4058115,-0.025635887,-0.023750471,-13.563396,-31.223442,-25.627216
3.6101885,0.015792472,0.42190763,-14.099142,-27.144068,-24.911825
3.7569308,0.058646314,0.78786206,-14.883894,-22.232481,-24.10129
3.8545098,0.10204508,1.0543301,-15.699475,-16.762995,-23.410545
3.929433,0.1423778,1.2517028,-16.622208,-10.831116,-22.823244
3.9822648,0.17131105,1.3742822,-17.743156,-4.6767693,-22.142918
4.0115833,0.1794715,1.418213,-18.935709,1.522292,-21.330093
4.013317,0.17115867,1.3879861,-19.892427,7.558084,-20.645697
3.9847791,0.14292789,1.2819649,-20.662823,13.4333725,-20.14124
3.9343083,0.10969017,1.124351,-21.399858,19.028227,-19.719164
3.8661427,0.07118227,0.91967404,-22.297989,24.240217,-19.13633
3.7664568,0.010652021,0.6541336,-23.037365,28.989489,-18.453857
3.6249318,-0.0628306,0.34087998,-23.316446,32.957626,-18.016066
3.4452925,-0.15171976,-0.0007736711,-23.129753,36.082638,-17.63238
3.2351434,-0.23536529,-0.33807936,-22.509731,38.350628,-17.33656
3.0262825,-0.27926117,-0.63233113,-21.557,39.947136,-17.264702
2.839631,-0.27032772,-0.87107897,-20.596361,41.09128,-17.338522
2.6682665,-0.2242572,-1.0617799,-20.22472,41.618168,-17.064775
2.4929872,-0.19139776,-1.2258158,-20.293217,41.60459,-16.337912
2.309582,-0.19649118,-1.3843101,-20.310017,41.037193,-15.569259
2.1411533,-0.21575718,-1.5178865,-19.891296,40.158768,-15.224692
2.0116148,-0.22390509,-1.6062407,-19.08635,39.21034,-15.182587
1.9102908,-0.20733985,-1.6439291,-18.38922,38.164955,-15.067456
1.8256106,-0.18858087,-1.6527447,-17.952461,36.930115,-14.57871
1.7490052,-0.18651488,-1.6634058,-17.608545,35.590527,-13.901443
1.6720685,-0.20074241,-1.6781477,-17.075434,34.29402,-13.31321
1.5938796,-0.21264443,-1.6823202,-16.330479,33.00002,-12.859485
1.5181366,-0.20374061,-1.6574113,-15.447101,31.725824,-12.62688
1.45222,-0.18174629,-1.6086556,-14.614402,30.480331,-12.396174
1.4045817,-0.14437965,-1.536902,-14.072821,29.299255,-11.992859
1.3682173,-0.12143736,-1.4710004,-13.748442,28.178392,-11.428615
1.3400478,-0.11454917,-1.4103035,-13.498512,27.219995,-10.830686
1.3114077,-0.117443115,-1.3509914,-13.283816,26.39919,-10.316054
1.2946084,-0.13519555,-1.3048052,-13.0220995,25.645658,-9.926266
1.2925678,-0.15919237,-1.2743338,-12.554922,24.924381,-9.512522
1.2913508,-0.18405142,-1.2534341,-11.946897,24.307379,-9.054425
1.2506367,-0.17824858,-1.2139155,-11.5702305,23.541008,-8.768954
1.2112372,-0.17263311,-1.1756728,-11.205728,22.799381,-8.492701
1.173107,-0.16719857,-1.1386621,-10.852967,22.08165,-8.2253475
1.1362028,-0.16193874,-1.1028415,-10.511548,21.386992,-7.96659
1.1004827,-0.15684769,-1.0681702,-10.181085,20.714624,-7.7161355
1.0659066,-0.1519197,-1.0346094,-9.861206,20.063793,-7.4737024
1.0324361,-0.14714926,-1.0021217,-9.551555,19.433771,-7.239021
1.0000341,-0.14253113,-0.97067094,-9.251787,18.823858,-7.011831
0.9686647,-0.13806017,-0.9402227,-8.961575,18.233387,-6.7918816
0.9382938,-0.13373151,-0.91074353,-8.680599,17.661709,-6.5789332
0.90888816,-0.12954044,-0.8822013,-8.408553,17.1082,-6.3727527
0.880416,-0.12548241,-0.85456514,-8.1451435,16.572262,-6.1731176
0.8528465,-0.12155303,-0.82780516,-7.8900857,16.053316,-5.9798117
0.8261502,-0.117748104,-0.8018927,-7.6431055,15.550805,-5.7926283
0.8002985,-0.11406355,-0.77680004,-7.4039392,15.064193,-5.6113663
0.77526385,-0.11049546,-0.7525005,-7.172332,14.592959,-5.4358335
0.75101966,-0.10704003,-0.72896814,-6.9480376,14.136606,-5.2658434
0.7275404,-0.10369361,-0.70617825,-6.7308197,13.694651,-5.1012163
0.7048012,-0.10045269,-0.68410677,-6.520449,13.266627,-4.9417787
0.68277836,-0.09731385,-0.6627305,-6.3167048,12.852085,-4.787363
0.6614486,-0.094273806,-0.6420271,-6.1193733,12.450591,-4.637808
0.6407898,-0.09132938,-0.6219749,-5.9282494,12.061727,-4.4929566
0.6207804,-0.088477515,-0.602553,-5.743133,11.685085,-4.352659
0.60139966,-0.08571525,-0.5837413,-5.563832,11.320276,-4.2167687
0.58262736,-0.0830397,-0.56552017,-5.3901606,10.966922,-4.085145
0.5644442,-0.08044812,-0.5478709,-5.2219396,10.624656,-3.957652
0.5468313,-0.07793783,-0.5307752,-5.058995,10.293125,-3.834158
0.5297706,-0.07550623,-0.51421547,-4.9011583,9.971988,-3.7145355
0.51324457,-0.073150836,-0.49817464,-4.748268,9.660914,-3.5986614
0.4972362,-0.07086922,-0.4826363,-4.600167,9.359585,-3.4864173
0.48172906,-0.068659045,-0.4675845,-4.456703,9.067691,-3.3776877
0.46670732,-0.06651805,-0.45300382,-4.31773,8.784934,-3.2723613
0.45215562,-0.06444405,-0.43887937,-4.183105,8.5110235,-3.1703308
0.4380591,-0.062434927,-0.42519677,-4.0526915,8.245682,-3.0714915
0.42440337,-0.06048863,-0.411942,-3.926356,7.988637,-2.9757433
0.41117457,-0.058603175,-0.39910161,-3.80397,7.7396283,-2.8829882
0.39835918,-0.05677665,-0.38666254,-3.685409,7.4984016,-2.793132
0.38594425,-0.055007193,-0.37461212,-3.5705526,7.264713,-2.7060835
0.37391713,-0.053293012,-0.36293814,-3.4592838,7.0383234,-2.6217544
0.36226565,-0.05163237,-0.35162875,-3.3514905,6.819005,-2.5400589
0.35097796,-0.05002358,-0.34067252,-3.247063,6.606535,-2.4609144
0.34004268,-0.048465017,-0.33005834,-3.1458955,6.4006977,-2.3842406
0.32944873,-0.0469551,-0.31977543,-3.047886,6.2012854,-2.3099601
0.3191854,-0.045492306,-0.30981347,-2.952935,6.0080967,-2.2379978
0.30924234,-0.044075154,-0.30016232,-2.860947,5.8209357,-2.168281
0.29960945,-0.042702217,-0.29081228,-2.7718287,5.639614,-2.1007392
0.29027706,-0.04137211,-0.28175393,-2.6854904,5.4639487,-2.0353043
0.28123575,-0.040083483,-0.2729781,-2.6018448,5.293762,-1.9719104
0.27247643,-0.03883505,-0.26447594,-2.520808,5.128883,-1.9104935
0.26399022,-0.03762554,-0.2562389,-2.4422982,4.9691453,-1.8509916
0.2557686,-0.036453746,-0.24825871,-2.3662362,4.8143883,-1.7933451
0.2478033,-0.035318483,-0.24052729,-2.2925453,4.6644554,-1.7374957
0.24008632,-0.034218606,-0.23303688,-2.2211518,4.519197,-1.6833873
0.23260985,-0.033153016,-0.22577994,-2.1519835,4.378466,-1.6309654
0.22536641,-0.032120634,-0.21874918,-2.0849712,4.242121,-1.5801773
0.21834873,-0.031120429,-0.21193755,-2.0200472,4.1100254,-1.5309721
0.21154971,-0.030151391,-0.20533818,-1.9571463,3.9820464,-1.4833002
0.20496257,-0.02921255,-0.19894443,-1.8962055,3.858055,-1.4371139
0.19858067,-0.028302962,-0.19274992,-1.8371636,3.7379272,-1.3923665
0.1923976,-0.027421713,-0.1867484,-1.7799611,3.621542,-1.3490134
0.18640716,-0.026567917,-0.18093386,-1.7245407,3.5087826,-1.307011
0.18060336,-0.025740722,-0.17530045,-1.6708468,3.3995361,-1.266317
0.17498033,-0.024939293,-0.16984254,-1.6188257,3.2936928,-1.2268907
0.16953246,-0.024162829,-0.16455464,-1.5684249,3.1911464,-1.1886925
0.1642543,-0.023410551,-0.15943144,-1.519594,3.0917943,-1.151684
0.15914051,-0.022681704,-0.15446782,-1.4722841,2.9955366,-1.1158284
0.15418601,-0.021975558,-0.1496588,-1.4264476,2.902277,-1.0810894
0.14938582,-0.021291403,-0.14499953,-1.3820387,2.8119218,-1.0474324
0.14473513,-0.020628557,-0.14048539,-1.339013,2.7243807,-1.0148236
0.14022925,-0.019986352,-0.13611183,-1.297327,2.6395657,-0.9832303
0.1358637,-0.019364147,-0.13187446,-1.2569393,2.5573921,-0.95262086
0.1316341,-0.018761318,-0.12776905,-1.2178093,2.4777775,-0.92296463
0.1275362,-0.018177262,-0.123791486,-1.1798978,2.400642,-0.89423186
0.12356593,-0.01761139,-0.11993777,-1.1431668,2.3259084,-0.86639386
0.11971927,-0.01706314,-0.11620405,-1.1075795,2.253502,-0.83942264
0.11599238,-0.016531961,-0.1125866,-1.0731003,2.1833498,-0.81329125
0.11238154,-0.016017321,-0.10908178,-1.0396947,2.1153822,-0.78797346
0.10888313,-0.015518705,-0.10568608,-1.0073292,2.0495307,-0.763444
0.105493635,-0.015035614,-0.10239612,-0.97597146,1.9857297,-0.7396783
0.10220968,-0.014567564,-0.099208586,-0.94559,1.923915,-0.7166526
0.09902797,-0.0141140865,-0.0961203,-0.9161545,1.864025,-0.6943437
0.09594531,-0.013674728,-0.09312816,-0.8876354,1.8059995,-0.6727294
0.09295864,-0.013249048,-0.090229176,-0.86000425,1.7497807,-0.651788
0.09006494,-0.01283662,-0.08742045,-0.8332333,1.695312,-0.63149863
0.08726134,-0.0124370335,-0.08469916,-0.80729586,1.6425391,-0.6118409
0.08454502,-0.0120498855,-0.0820626,-0.7821659,1.5914093,-0.59279513
0.08191326,-0.011674792,-0.07950812,-0.7578183,1.5418712,-0.57434237
0.079363436,-0.011311375,-0.07703316,-0.7342286,1.4938753,-0.556464
0.076892994,-0.010959271,-0.07463525,-0.7113734,1.4473735,-0.53914225
0.07449945,-0.010618129,-0.07231199,-0.6892296,1.4023194,-0.5223598
0.07218043,-0.010287607,-0.07006106,-0.6677752,1.358668,-0.5060997
0.06993359,-0.009967375,-0.0678802,-0.64698875,1.3163754,-0.49034584
0.06775671,-0.009657111,-0.06576723,-0.6268493,1.2753993,-0.4750824
0.06564759,-0.009356506,-0.06372004,-0.6073368,1.2356988,-0.4602941
0.063604124,-0.009065258,-0.061736576,-0.5884318,1.1972343,-0.44596618
0.061624274,-0.008783078,-0.059814855,-0.57011527,1.1599672,-0.43208426
0.059706055,-0.008509682,-0.057952963,-0.55236894,1.1238601,-0.4186345
0.057847552,-0.008244796,-0.056149025,-0.535175,1.0888771,-0.4056034
0.0560469,-0.007988155,-0.054401245,-0.5185163,1.054983,-0.39297798
0.054302298,-0.007739504,-0.05270787,-0.5023762,1.022144,-0.38074556
0.052612007,-0.007498593,-0.051067207,-0.48673853,0.99032724,-0.36889392
