ax,ay,az,gx,gy,gz
3.6627605,2.9363904,5.6509604,44.00131,-32.015743,-40.172184
4.258935,2.4516375,6.444773,40.281384,-28.015926,-35.74667
4.9592566,2.033578,7.1147695,38.46733,-17.640709,-34.530056
5.8561687,2.0535107,7.9209776,37.611893,-4.087984,-38.299347
7.2366986,2.7134047,8.875163,35.646133,20.719727,-41.761635
8.287278,3.2273493,9.413805,29.09056,44.613205,-40.385647
8.769514,3.547294,9.503037,19.68561,64.066185,-36.982365
8.838817,3.637862,9.210232,11.18312,78.894966,-33.9764
8.740803,3.5564816,8.658422,3.8188028,90.41867,-31.178988
8.549408,3.3755105,7.8460636,-2.9682014,100.31461,-27.99034
8.234472,3.169138,6.911999,-9.51163,108.64609,-24.588184
7.8061643,2.9175587,5.881952,-15.2073345,115.50267,-21.46546
7.2609396,2.6368513,4.8031564,-19.615097,120.83408,-19.318968
6.613815,2.318553,3.720517,-22.62837,123.786095,-18.482656
5.9027066,1.9824297,2.6310701,-24.38561,124.847084,-18.129631
5.2024307,1.6762725,1.600959,-24.697853,124.18357,-18.125374
4.527866,1.4379513,0.6740689,-24.089958,122.0196,-18.525215
3.91068,1.2543248,-0.15666589,-22.983997,118.69403,-18.786177
3.341957,1.1194971,-0.9049591,-21.808588,114.40919,-18.836525
2.788448,1.0172688,-1.58137,-20.557938,108.738335,-18.916159
2.2709033,0.9222511,-2.195271,-19.312206,102.16718,-18.919697
1.7919745,0.84034866,-2.7451305,-18.145296,95.018715,-18.75505
1.3529029,0.78130245,-3.223834,-17.175453,87.25874,-18.36169
0.94363886,0.7446353,-3.6462708,-16.26692,78.56434,-17.710688
0.5490973,0.73133796,-4.019257,-15.360201,69.2572,-17.166508
0.19715163,0.73732185,-4.345204,-14.682292,59.46971,-16.622143
-0.10948996,0.7431159,-4.6364756,-14.449894,49.173866,-15.936914
-0.3685073,0.7270501,-4.889773,-14.429086,38.510025,-15.079894
-0.5686034,0.7140857,-5.092571,-14.130994,27.292093,-14.548791
-0.65627825,0.731428,-5.211478,-13.802519,16.155916,-14.362384
-0.6675316,0.7619745,-5.2550683,-13.8426285,5.256963,-14.298382
-0.61681134,0.7545294,-5.238668,-13.947417,-5.3924694,-14.31509
-0.47490564,0.7243327,-5.161721,-13.714121,-15.623934,-14.611799
-0.19372045,0.6952392,-5.0111294,-13.197762,-25.14074,-15.1135025
0.24957216,0.6869969,-4.7261906,-12.969653,-33.28771,-15.346688
0.7476071,0.65811193,-4.3599863,-12.858608,-40.032536,-15.376045
1.2858341,0.6212687,-3.9268453,-12.356115,-45.148407,-15.92564
1.8650986,0.61860526,-3.4217377,-11.35833,-48.39489,-17.319498
2.4737937,0.6710569,-2.839064,-10.234893,-49.340168,-18.842484
3.1012328,0.8337358,-2.1517353,-9.668713,-48.511288,-19.988033
3.692173,1.0395021,-1.4548223,-9.904241,-46.032314,-20.680864
4.2096066,1.2466394,-0.8022268,-10.9239025,-42.19607,-20.893583
4.6296186,1.4206114,-0.23311783,-12.475776,-37.3271,-20.890718
4.967911,1.5510904,0.2368648,-14.397317,-31.080774,-20.993471
5.2083707,1.6291043,0.56755835,-16.486862,-24.07328,-21.102518
5.3820724,1.675596,0.7879576,-18.764515,-16.625671,-21.090338
5.5021853,1.6945592,0.9044504,-21.074615,-8.931212,-20.926962
5.5652184,1.6690911,0.9143127,-23.290886,-1.2331926,-20.521116
5.569132,1.5988194,0.82228136,-25.453838,6.121347,-19.798584
5.5112524,1.4858896,0.61352164,-27.54382,13.20833,-18.895552
5.397043,1.3481511,0.3287783,-29.41859,19.93897,-17.875349
5.2130227,1.1909761,-0.01532318,-30.82793,26.07883,-16.826801
4.9647064,1.0194646,-0.39782447,-31.718801,31.322592,-16.02203
4.684977,0.8610854,-0.782347,-32.07066,35.362293,-15.574346
4.3774204,0.7467922,-1.1482967,-32.17287,38.639103,-15.27072
4.051353,0.6461778,-1.5009397,-32.029617,41.054043,-14.9097595
3.7131035,0.56797546,-1.8298734,-31.680836,42.57611,-14.43753
3.366986,0.5110826,-2.1244729,-31.196655,43.19106,-13.974366
3.030621,0.4759275,-2.371635,-30.664022,42.697258,-13.4939165
2.725524,0.45433408,-2.5431428,-30.136375,41.582836,-12.974872
2.4615235,0.4369452,-2.6525059,-29.565876,40.12507,-12.458245
2.2352746,0.4207806,-2.7070146,-28.841341,38.488956,-12.068462
2.0482726,0.41306365,-2.7188103,-27.90727,36.77364,-11.974304
1.9032308,0.417479,-2.6889908,-26.92279,35.005398,-12.0762825
1.7988821,0.426215,-2.6157303,-26.133144,33.150566,-12.005876
1.7165262,0.41853404,-2.5288196,-25.486078,31.239513,-11.751672
1.65831,0.3936156,-2.4353414,-24.749483,29.530249,-11.511964
1.6220866,0.36861113,-2.3347833,-23.819113,28.12866,-11.461963
1.6080315,0.35821202,-2.2246072,-22.875174,27.119202,-11.419488
1.5950525,0.35916188,-2.1089659,-22.20025,26.246674,-11.133192
1.5764246,0.3500187,-1.9962542,-21.880127,25.463459,-10.487221
1.5578107,0.3239775,-1.8872826,-21.87726,24.90419,-9.701608
1.5376844,0.27936354,-1.7921063,-21.948128,24.605663,-9.046626
1.4889162,0.27050343,-1.7352688,-21.252033,23.825285,-8.759708
1.4417489,0.26193413,-1.6802973,-20.57879,23.070522,-8.482209
1.3961248,0.25364527,-1.6271244,-19.927578,22.34046,-8.213791
1.3519893,0.2456268,-1.5756863,-19.29761,21.634212,-7.954129
1.3092896,0.2378692,-1.5259217,-18.688135,20.950943,-7.702915
1.2679753,0.23036331,-1.4777716,-18.098436,20.28984,-7.4598517
1.2279981,0.22310033,-1.4311799,-17.527822,19.650135,-7.2246547
1.1893119,0.21607187,-1.3860927,-16.975634,19.031086,-6.997052
1.1518719,0.20926985,-1.3424579,-16.441235,18.43198,-6.7767825
1.1156356,0.20268653,-1.3002261,-15.924016,17.852137,-6.563595
1.0805621,0.19631444,-1.2593495,-15.423395,17.2909,-6.357248
1.046612,0.19014645,-1.219782,-14.938808,16.747637,-6.1575093
1.0137473,0.18417567,-1.1814797,-14.469715,16.221745,-5.9641576
0.9819318,0.17839548,-1.1444,-14.015596,15.712641,-5.776978
0.95113033,0.17279951,-1.1085021,-13.575952,15.219762,-5.595764
0.9213091,0.16738166,-1.0737468,-13.150299,14.742571,-5.420318
0.8924358,0.16213602,-1.0400962,-12.738175,14.280546,-5.250448
0.864479,0.15705688,-1.0075138,-12.339134,13.833188,-5.0859704
0.8374086,0.15213878,-0.9759643,-11.952745,13.400014,-4.9267077
0.81119555,0.14737643,-0.94541407,-11.578593,12.980559,-4.772489
0.7858118,0.14276476,-0.9158304,-11.216278,12.574374,-4.6231494
0.7612303,0.13829885,-0.8871817,-10.865415,12.181026,-4.4785295
0.73742497,0.13397394,-0.85943764,-10.52563,11.8001,-4.338476
0.7143707,0.1297855,-0.8325688,-10.196565,11.4311905,-4.2028418
0.6920432,0.12572907,-0.80654705,-9.877872,11.073911,-4.0714827
0.6704189,0.121800415,-0.7813449,-9.56922,10.727885,-3.944261
0.64947534,0.117995426,-0.756936,-9.270281,10.392751,-3.821044
0.6291905,0.114310116,-0.7332949,-8.980745,10.068157,-3.7017026
0.60954326,0.11074065,-0.71039695,-8.700312,9.753767,-3.5861127
0.5905133,0.10728332,-0.6882183,-8.428687,9.449254,-3.4741542
0.57208085,0.10393454,-0.666736,-8.165591,9.154303,-3.3657107
0.5542268,0.10069086,-0.6459279,-7.910752,8.868606,-3.2606704
0.53693277,0.09754891,-0.6257724,-7.6639056,8.591871,-3.1589248
0.5201809,0.09450547,-0.60624886,-7.424798,8.323812,-3.060369
0.503954,0.09155739,-0.5873371,-7.1931834,8.064153,-2.9649017
0.4882354,0.088701665,-0.5690177,-6.9688244,7.8126273,-2.8724248
0.473009,0.08593536,-0.551272,-6.75149,7.568978,-2.7828436
0.45825917,0.08325564,-0.5340817,-6.5409584,7.3329544,-2.6960661
0.44397086,0.08065977,-0.5174293,-6.3370147,7.1043167,-2.612004
0.4301295,0.0781451,-0.5012978,-6.13945,6.8828306,-2.5305715
0.416721,0.07570906,-0.4856707,-5.948064,6.6682706,-2.4516854
0.4037316,0.073349185,-0.47053212,-5.76266,6.4604177,-2.3752656
0.39114824,0.07106306,-0.45586672,-5.583051,6.2590613,-2.301234
0.37895802,0.068848364,-0.44165954,-5.4090543,6.063997,-2.2295156
0.3671486,0.06670285,-0.42789617,-5.240493,5.8750253,-2.1600375
0.35570803,0.06462435,-0.41456267,-5.077196,5.691956,-2.0927293
0.3446247,0.06261075,-0.4016455,-4.918998,5.5146027,-2.027523
0.33388737,0.060660012,-0.3891316,-4.7657385,5.3427863,-1.9643523
0.32348517,0.058770165,-0.3770083,-4.6172633,5.1763334,-1.9031533
0.31340763,0.056939293,-0.36526334,-4.4734216,5.0150747,-1.8438643
0.30364454,0.055165555,-0.35388488,-4.334068,4.858848,-1.7864254
0.29418603,0.05344715,-0.34286138,-4.199062,4.707495,-1.7307783
0.2850226,0.051782355,-0.33218175,-4.068268,4.560864,-1.6768671
0.27614495,0.05016948,-0.32183525,-3.9415526,4.418806,-1.6246375
0.26754415,0.048606906,-0.3118114,-3.8187895,4.281178,-1.5740367
0.25921157,0.047093056,-0.30210012,-3.6998541,4.147842,-1.5250138
0.25113878,0.04562641,-0.29269162,-3.5846274,4.0186634,-1.4775193
0.24331766,0.044205483,-0.28357646,-3.4729927,3.8935115,-1.4315056
0.23574035,0.042828854,-0.2747454,-3.3648381,3.7722614,-1.386926
0.22839923,0.041495133,-0.26618963,-3.2600546,3.6547904,-1.3437363
0.22128692,0.04020298,-0.25790054,-3.1585371,3.5409808,-1.3018925
0.21439625,0.0389511,-0.24986976,-3.0601833,3.4307182,-1.2613528
0.20772032,0.037738226,-0.24208924,-2.9648943,3.3238914,-1.2220764
0.20125242,0.03656315,-0.23455118,-2.8725748,3.2203934,-1.184024
0.19498603,0.035424687,-0.22724797,-2.7831316,3.1201203,-1.1471571
0.1889149,0.03432169,-0.22017232,-2.6964753,3.0229714,-1.1114389
0.18303289,0.033253063,-0.2133171,-2.6125185,2.928849,-1.0768335
0.17733413,0.032217722,-0.20667543,-2.5311773,2.837659,-1.043306
0.17181289,0.031214636,-0.20024067,-2.4523702,2.7493093,-1.0108231
0.16646364,0.030242795,-0.19400634,-2.3760176,2.6637118,-0.979352
0.16128102,0.029301224,-0.18796621,-2.3020434,2.5807807,-0.9488611
0.15625982,0.02838898,-0.1821142,-2.2303731,2.5004325,-0.91932
0.151395,0.027505152,-0.17644447,-2.1609354,2.422587,-0.8906989
0.1466817,0.026648847,-0.1709513,-2.09366,2.3471658,-0.8629692
0.14211518,0.025819212,-0.16562922,-2.0284798,2.2740934,-0.83610314
0.13769087,0.025015412,-0.16047288,-1.9653296,2.203297,-0.81007373
0.13340436,0.024236646,-0.15547714,-1.904146,2.1347048,-0.78485495
0.12925132,0.023482129,-0.15063694,-1.8448676,2.068249,-0.76042145
0.1252276,0.022751108,-0.14594747,-1.7874352,2.0038624,-0.7367488
0.12132918,0.022042852,-0.14140403,-1.7317911,1.9414808,-0.7138133
0.117552154,0.021356648,-0.13700207,-1.6778797,1.8810416,-0.69159204
0.11389273,0.02069181,-0.13273716,-1.625647,1.8224845,-0.6700626
0.11034725,0.020047676,-0.12860505,-1.5750406,1.7657505,-0.64920354
0.10691216,0.019423595,-0.1246016,-1.5260099,1.7107831,-0.628994
0.10358403,0.018818947,-0.1207228,-1.4785058,1.6575271,-0.6094137
0.100359514,0.018233124,-0.11696477,-1.4324808,1.6059293,-0.59044296
0.0972354,0.017665539,-0.11332374,-1.3878887,1.5559378,-0.5720629
0.094208546,0.017115626,-0.10979608,-1.344685,1.5075029,-0.55425507
0.09127593,0.016582835,-0.10637824,-1.3028263,1.4605758,-0.5370017
0.08843462,0.016066631,-0.10306681,-1.2622708,1.4151099,-0.5202855
0.085681766,0.015566498,-0.09985848,-1.222978,1.3710593,-0.50408965
0.083014615,0.015081935,-0.09675002,-1.1849085,1.3283802,-0.48839808
0.0804305,0.014612458,-0.09373834,-1.1480241,1.2870297,-0.473195
0.07792683,0.014157596,-0.090820424,-1.112288,1.2469666,-0.45846522
0.0755011,0.013716894,-0.08799334,-1.0776644,1.2081507,-0.444194
0.07315089,0.013289913,-0.08525427,-1.0441186,1.1705432,-0.43036705
0.07087384,0.012876224,-0.08260047,-1.0116173,1.1341065,-0.41697055
0.06866769,0.012475412,-0.08002928,-0.98012763,1.098804,-0.4039911
0.066530205,0.012087079,-0.07753814,-0.94961834,1.0646006,-0.3914157
0.06445926,0.011710834,-0.07512454,-0.9200587,1.0314618,-0.37923178
0.062452786,0.011346302,-0.072786085,-0.89141935,0.9993547,-0.3674271
0.060508776,0.0109931175,-0.070520416,-0.86367154,0.9682471,-0.35598996
0.058625277,0.010650927,-0.06832528,-0.83678746,0.93810785,-0.34490883
0.056800414,0.010319389,-0.06619848,-0.8107403,0.9089068,-0.33417264
0.055032358,0.0099981725,-0.06413788,-0.7855039,0.88061476,-0.32377067
0.05331934,0.009686954,-0.062141433,-0.76105314,0.8532034,-0.3136925
0.051659644,0.009385425,-0.06020713,-0.7373635,0.8266454,-0.30392805
