ax,ay,az,gx,gy,gz
2.7018425,-4.071855,6.4118767,96.269966,29.18572,49.272266
3.1221616,-2.8383512,6.621581,100.33282,39.504223,49.61329
3.3269966,-1.8671242,6.492127,94.41829,41.077644,40.503147
3.4567454,-1.4722191,6.219625,86.36527,45.081806,31.020979
3.3997736,-1.3526073,5.774178,76.97179,52.444386,29.524797
3.3779664,-1.2444419,5.4426723,69.79916,63.805206,34.880913
3.5405376,-0.9486479,5.1582637,63.54797,76.999596,40.90487
3.6999397,-0.6610434,4.777589,60.65502,89.68145,43.028008
3.7401948,-0.4360756,4.2920704,61.877983,100.026886,40.94904
3.690666,-0.23171556,3.7529643,61.481197,107.83731,39.674942
3.6254044,-0.053866137,3.2645783,60.02198,114.504974,39.885376
3.5797944,0.15280378,2.8274734,57.90072,120.530785,40.598003
3.574039,0.42097613,2.4128149,54.96176,126.026695,39.804596
3.5858977,0.632909,2.0103624,52.810486,130.3805,36.999596
3.6020234,0.8239334,1.6023558,50.155785,133.44339,33.84889
3.6261053,0.9570663,1.2188685,47.225098,135.5571,30.633076
3.6617677,1.0690293,0.8560167,44.00513,136.9349,27.28054
3.6898692,1.17343,0.50161755,40.313667,137.57346,23.733553
3.6854045,1.2706347,0.13810286,36.72432,136.67653,19.565073
3.641032,1.3553945,-0.2404128,33.395367,134.7347,14.97676
3.5737004,1.4286139,-0.6062714,30.272598,131.95844,10.233057
3.5027244,1.5009748,-0.93910825,27.060923,128.75934,5.6382685
3.408242,1.5486511,-1.2508246,23.870916,125.06884,1.1573501
3.2787285,1.5527135,-1.5464892,21.092113,120.32655,-3.3583682
3.1195343,1.5167633,-1.8030926,18.55413,114.9577,-7.6529613
2.963845,1.4569175,-2.0153792,16.081028,109.021416,-11.761574
2.8189547,1.3551149,-2.17782,13.933369,102.76312,-15.675892
2.6772268,1.2087597,-2.3009892,11.843176,96.24591,-19.148874
2.5407045,1.0066712,-2.389012,10.082027,89.79869,-21.735943
2.395492,0.73940575,-2.4644728,9.151634,83.24996,-23.835014
2.2318828,0.45490986,-2.521523,8.542602,76.45539,-25.322556
2.0645335,0.16516651,-2.5435145,7.8100924,69.39826,-25.948656
1.9194771,-0.1279515,-2.4985907,6.896617,62.502567,-25.38894
1.8236666,-0.41875696,-2.3767688,6.0500703,56.602898,-23.433702
1.7277566,-0.6825349,-2.2372818,5.777173,51.309086,-21.153624
1.60805,-0.91926473,-2.1125364,5.8200727,46.084026,-18.615314
1.5052469,-1.1201292,-1.9535489,6.2417135,41.099907,-15.307246
1.4430889,-1.2363498,-1.7491063,6.275321,36.824497,-11.190541
1.4095687,-1.2953517,-1.5391322,6.5734506,33.1789,-6.9539824
1.4010646,-1.2687922,-1.3185629,7.346324,30.329777,-3.0708108
1.4023296,-1.1661928,-1.101381,8.368651,28.243868,0.32415003
1.4084876,-0.9951169,-0.9036102,9.198182,26.65274,3.101819
1.4169334,-0.780722,-0.7290605,9.8260565,25.240488,5.3268805
1.4395442,-0.52346927,-0.56783724,9.998281,24.378214,6.688958
1.4780961,-0.22846502,-0.43791947,9.686797,24.076115,7.1234965
1.510862,0.04371239,-0.345696,9.0914345,24.204512,6.72323
1.5317143,0.29423916,-0.29562384,8.057148,24.546719,5.6990643
1.5371089,0.49946922,-0.29121232,6.6943526,24.881304,4.0863776
1.5289226,0.6609242,-0.32645866,5.284129,24.925718,1.6600721
1.5148886,0.77365935,-0.38726783,3.7164133,24.842154,-1.0284574
1.4939815,0.84712887,-0.45764765,1.8763059,24.632162,-3.6698956
1.4651861,0.8937083,-0.53478444,-0.024140043,24.147558,-6.3121176
1.4343117,0.91676897,-0.6105925,-1.860494,23.402025,-9.127135
1.3990096,0.91444826,-0.68035793,-3.6237662,22.310974,-12.165245
1.3571029,0.8706718,-0.73851824,-5.376061,21.027975,-15.070168
1.3159467,0.78999424,-0.78440607,-7.1927524,19.574661,-17.576056
1.2824403,0.68078893,-0.8177693,-8.501648,17.979633,-19.723663
1.2466707,0.5636001,-0.8508774,-9.84125,16.190214,-21.641642
1.2047012,0.41682905,-0.8801533,-10.586532,14.183744,-23.355331
1.1601512,0.23211423,-0.8893664,-10.786447,12.163066,-24.582664
1.1125274,0.05625142,-0.8875355,-10.969372,10.144258,-25.047043
1.0571104,-0.10972932,-0.883598,-11.195333,7.9410543,-24.901964
1.0034587,-0.2647038,-0.86586833,-11.3306055,5.6487556,-24.36348
0.9519827,-0.4129385,-0.82621264,-10.691706,3.6088219,-23.45983
0.8860903,-0.5340445,-0.7799392,-9.833209,1.6074904,-22.24944
0.82951117,-0.6373701,-0.71864486,-8.87465,-0.20010659,-20.623741
0.7834418,-0.7120301,-0.6465482,-7.8371387,-1.7604887,-18.601393
0.74183965,-0.75230557,-0.56799334,-6.953805,-3.1354046,-16.413017
0.70974797,-0.7621963,-0.47895277,-6.05922,-4.167792,-14.276773
0.68529874,-0.75482416,-0.38160363,-4.75472,-4.8133802,-12.231461
0.6675863,-0.7268426,-0.29052266,-3.0253198,-5.130429,-10.347582
0.6560895,-0.6825881,-0.21038109,-0.5479547,-5.1885376,-8.607708
0.6560866,-0.61791784,-0.13714378,2.0878341,-5.058677,-7.0416627
0.6633467,-0.5420255,-0.07589678,4.685204,-4.5517488,-5.8620825
0.64233255,-0.52485466,-0.073492445,4.5367813,-4.4075537,-5.6763773
0.622006,-0.5082457,-0.07116678,4.393215,-4.2680774,-5.4967494
0.6023426,-0.49217862,-0.06891699,4.254333,-4.133151,-5.322981
0.5833189,-0.4766342,-0.06674039,4.119969,-4.002614,-5.154866
0.56491244,-0.46159413,-0.06463442,3.9899645,-3.8763127,-4.9922056
0.5471017,-0.44704083,-0.062596604,3.8641675,-3.7540991,-4.83481
0.529866,-0.43295744,-0.06062459,3.7424324,-3.6358316,-4.682496
0.5131856,-0.4193278,-0.058716107,3.6246192,-3.5213742,-4.535089
0.49704155,-0.40613633,-0.05686898,3.5105941,-3.4105968,-4.3924217
0.48141548,-0.39336818,-0.055081125,3.4002275,-3.303374,-4.254332
0.4662899,-0.38100895,-0.053350534,3.293396,-3.1995854,-4.1206656
0.45164797,-0.3690449,-0.051675275,3.18998,-3.0991154,-3.9912727
0.4374734,-0.35746276,-0.050053496,3.0898654,-3.0018525,-3.8660102
0.4237506,-0.34624976,-0.0484834,2.9929416,-2.9076896,-3.7447402
0.41046458,-0.33539367,-0.046963282,2.8991027,-2.8165236,-3.6273298
0.39760086,-0.3248826,-0.04549148,2.8082464,-2.7282553,-3.5136511
0.38514546,-0.3147052,-0.044066396,2.7202742,-2.642789,-3.4035811
0.37308496,-0.3048505,-0.042686496,2.6350913,-2.5600324,-3.2970011
0.36140642,-0.29530787,-0.041350298,2.552606,-2.4798965,-3.1937964
0.35009736,-0.28606716,-0.04005637,2.4727304,-2.402296,-3.0938568
0.33914575,-0.2771185,-0.038803343,2.3953793,-2.3271484,-2.9970758
0.32853994,-0.2684524,-0.037589878,2.3204706,-2.2543736,-2.9033508
0.31826872,-0.26005974,-0.036414698,2.2479253,-2.1838944,-2.8125827
0.3083213,-0.2519316,-0.035276562,2.1776667,-2.1156373,-2.724676
0.2986872,-0.24405952,-0.03417428,2.1096213,-2.04953,-2.639538
0.28935632,-0.23643519,-0.03310669,2.0437176,-1.9855036,-2.55708
0.28031895,-0.2290507,-0.03207268,1.9798869,-1.923491,-2.4772155
0.27156568,-0.22189833,-0.031071171,1.9180627,-1.8634278,-2.3998618
0.2630874,-0.21497065,-0.030101128,1.8581806,-1.8052515,-2.3249378
0.25487527,-0.20826049,-0.02916154,1.8001788,-1.7489018,-2.2523665
0.2469209,-0.2017609,-0.028251441,1.7439971,-1.6943204,-2.1820726
0.239216,-0.19546516,-0.027369885,1.6895776,-1.641451,-2.1139834
0.23175266,-0.18936682,-0.026515968,1.6368642,-1.590239,-2.048029
0.2245232,-0.18345958,-0.025688808,1.5858027,-1.540632,-1.9841412
0.21752019,-0.17773737,-0.024887562,1.5363406,-1.4925789,-1.9222547
0.21073647,-0.17219433,-0.024111401,1.4884273,-1.4460304,-1.862306
0.20416509,-0.1668248,-0.023359537,1.4420137,-1.4009389,-1.8042338
0.19779931,-0.16162328,-0.022631198,1.3970524,-1.3572582,-1.7479787
0.19163267,-0.15658449,-0.021925641,1.3534975,-1.314944,-1.6934832
0.18565886,-0.15170324,-0.021242147,1.3113047,-1.273953,-1.6406919
0.1798718,-0.14697458,-0.020580022,1.2704308,-1.2342433,-1.5895509
0.17426561,-0.14239372,-0.01993859,1.2308344,-1.1957748,-1.5400082
0.16883458,-0.137956,-0.0193172,1.1924752,-1.1585082,-1.4920136
0.16357322,-0.13365689,-0.018715221,1.1553142,-1.1224059,-1.4455183
0.15847617,-0.12949206,-0.018132044,1.119314,-1.087431,-1.4004749
0.15353829,-0.12545729,-0.017567076,1.0844377,-1.0535482,-1.3568382
0.14875457,-0.12154846,-0.017019745,1.0506504,-1.0207232,-1.3145638
0.14412016,-0.11776165,-0.016489498,1.0179176,-0.98892283,-1.2736088
0.13963036,-0.11409301,-0.015975801,0.98620635,-0.95811486,-1.233932
0.13528068,-0.11053885,-0.015478132,0.9554846,-0.92826825,-1.1954932
0.1310667,-0.10709558,-0.014995989,0.92572135,-0.8993527,-1.1582538
0.12698416,-0.103759706,-0.014528887,0.8968865,-0.87133926,-1.1221759
0.12302897,-0.10052789,-0.014076353,0.8689511,-0.84419954,-1.0872233
0.11919712,-0.09739686,-0.013637933,0.8418868,-0.81790614,-1.0533607
0.11548477,-0.09436346,-0.013213183,0.81566644,-0.7924327,-1.0205541
0.11188815,-0.09142464,-0.012801676,0.79026365,-0.7677535,-0.98877037
0.10840366,-0.088577434,-0.012402999,0.7656528,-0.7438436,-0.9579775
0.105027795,-0.08581899,-0.012016749,0.7418091,-0.72067916,-0.9281445
0.101757154,-0.08314653,-0.011642539,0.71870863,-0.6982367,-0.89924145
0.09858845,-0.08055736,-0.011279993,0.69632816,-0.6764937,-0.8712392
0.0955185,-0.07804888,-0.010928744,0.6746452,-0.65542835,-0.84410965
0.09254422,-0.07561857,-0.010588442,0.6536379,-0.6350194,-0.8178255
0.08966262,-0.07326399,-0.010258744,0.63328516,-0.6152464,-0.79236037
0.0868708,-0.07098278,-0.009939318,0.61356664,-0.59608954,-0.76768875
0.08416597,-0.06877264,-0.009629844,0.59446245,-0.57752955,-0.74378574
0.0815454,-0.06663135,-0.009330012,0.5759534,-0.5595478,-0.7206274
0.07900647,-0.06455677,-0.009039521,0.558021,-0.5421261,-0.6981906
0.07654663,-0.06254682,-0.008758078,0.54064727,-0.5252472,-0.6764527
0.074163415,-0.06059948,-0.008485403,0.5238147,-0.50889415,-0.65539193
0.071854435,-0.05871279,-0.008221221,0.5075064,-0.49305037,-0.6349871
0.06961737,-0.05688487,-0.007965268,0.49170604,-0.47770008,-0.6152179
0.06744998,-0.05511388,-0.0077172862,0.4763978,-0.46282792,-0.5960644
0.06535009,-0.05339805,-0.007477028,0.46156636,-0.44841892,-0.57750744
0.06331561,-0.051735654,-0.0072442517,0.4471968,-0.43445867,-0.5595284
0.06134448,-0.05012503,-0.007018725,0.43327478,-0.4209332,-0.54210925
0.059434734,-0.04856456,-0.0068002217,0.41978627,-0.40782893,-0.5252326
0.057584457,-0.04705269,-0.0065885223,0.4067178,-0.39513272,-0.50888145
0.0557918,-0.045587894,-0.006383416,0.39405632,-0.38283187,-0.49303952
0.054054964,-0.04416871,-0.0061846958,0.3817891,-0.37091404,-0.47769085
0.05237221,-0.04279372,-0.0059921634,0.3699038,-0.35936734,-0.46282014
0.05074185,-0.041461542,-0.005805626,0.35838863,-0.34818015,-0.44841245
0.049162257,-0.040170845,-0.005624897,0.347232,-0.3373413,-0.43445337
0.04763185,-0.038920335,-0.005449795,0.33642274,-0.32683995,-0.42092893
0.046149086,-0.037708763,-0.005280145,0.32595003,-0.31666553,-0.4078256
0.04471249,-0.03653491,-0.0051157773,0.3158034,-0.30680794,-0.3951302
0.043320626,-0.035397604,-0.004956527,0.30597267,-0.2972572,-0.38283008
0.041972093,-0.034295708,-0.0048022345,0.29644802,-0.28800386,-0.37091294
0.040665545,-0.033228118,-0.004652746,0.28721988,-0.2790386,-0.3593668
0.039399676,-0.032193765,-0.0045079114,0.27827907,-0.27035245,-0.34818012
0.038173214,-0.031191617,-0.004367586,0.2696166,-0.26193675,-0.33734173
0.036984935,-0.030220667,-0.0042316294,0.26122382,-0.25378302,-0.32684076
0.035833653,-0.029279944,-0.0040999055,0.25309232,-0.24588315,-0.31666672
0.034718208,-0.028368507,-0.003972282,0.24521399,-0.23822922,-0.3068094
0.03363749,-0.027485445,-0.0038486319,0.2375809,-0.23081355,-0.29725897
0.03259042,-0.026629873,-0.003728831,0.23018545,-0.22362874,-0.28800583
0.03157594,-0.025800936,-0.0036127595,0.22302021,-0.21666762,-0.27904075
0.030593045,-0.024997804,-0.0035003016,0.21607804,-0.2099232,-0.27035478
0.029640747,-0.024219675,-0.0033913446,0.20935199,-0.20338872,-0.2619392
0.028718095,-0.02346577,-0.0032857794,0.2028353,-0.19705766,-0.2537856
0.027824165,-0.022735331,-0.0031835004,0.19652149,-0.1909237,-0.24588582
0.026958063,-0.022027634,-0.0030844053,0.19040424,-0.18498068,-0.23823196
0.026118921,-0.021341965,-0.002988395,0.18447739,-0.17922267,-0.23081636
0.025305903,-0.020677641,-0.0028953734,0.17873506,-0.1736439,-0.2236316
0.024518192,-0.020033997,-0.0028052474,0.17317148,-0.16823879,-0.2166705
0.023755003,-0.019410389,-0.0027179273,0.16778108,-0.16300194,-0.20992608
0.02301557,-0.018806193,-0.002633325,0.16255848,-0.15792811,-0.20339163
