ax,ay,az,gx,gy,gz
-1.2181929,0.4390949,-5.611869,46.77588,-196.25723,-38.008526
-0.38904846,0.7430356,-4.757626,54.79154,-207.32306,-48.020275
0.72944444,1.0952749,-3.509357,55.5075,-210.30586,-49.938175
1.7680545,1.2582495,-2.0786138,52.318268,-211.02832,-48.23207
2.6381714,1.2564245,-0.9112194,48.293728,-210.82977,-45.59188
3.5097783,1.2171332,0.10194607,43.99848,-209.5951,-42.753746
4.3666015,1.1321914,1.0175492,40.0707,-206.34575,-40.475857
5.1515594,0.970687,1.7923347,36.48487,-201.53844,-38.02791
5.843137,0.76520884,2.4337957,33.03489,-193.17372,-34.23975
6.2740355,0.50154656,2.8722672,30.993925,-183.72934,-30.87611
6.552925,0.33956966,3.2207189,30.010159,-173.57162,-28.235197
6.7403145,0.29833937,3.5240884,29.496498,-163.15582,-25.870966
6.815245,0.3538675,3.7847824,28.604689,-152.44441,-23.151081
6.7357993,0.46918958,3.978412,27.249945,-142.17296,-20.432457
6.5766087,0.6018,4.0929794,25.616892,-132.28168,-17.991255
6.3658366,0.74591327,4.141549,24.009323,-122.848305,-16.305859
6.1415315,0.8922836,4.1410694,22.521557,-113.79948,-15.152688
5.9062448,1.0700722,4.117467,20.70731,-105.31864,-13.996514
5.646835,1.3102962,4.088689,18.604134,-97.80828,-12.981498
5.3953595,1.6023766,4.0808406,15.577776,-91.15681,-12.015586
5.1509542,1.9083766,4.0603223,11.63483,-85.25818,-11.028821
4.9039907,2.1977205,4.014483,7.119348,-79.874016,-10.450155
4.678778,2.4887583,3.9659295,1.8526659,-74.63489,-10.406591
4.4827085,2.7968063,3.9083712,-4.1724443,-69.09029,-11.020881
4.2968383,3.0542476,3.7984722,-10.603299,-63.349678,-12.008302
4.091708,3.2538357,3.6260333,-17.234787,-57.924786,-13.248389
3.865235,3.3956335,3.403508,-23.873507,-53.10977,-14.625076
3.6252387,3.4818492,3.1491108,-30.356321,-49.037895,-16.70482
3.3955686,3.4872818,2.8729804,-36.687218,-45.488403,-19.08695
3.1876466,3.4055202,2.5933783,-42.719837,-42.231697,-21.418905
2.993384,3.2494059,2.301263,-48.101627,-39.405846,-23.749699
2.8242643,3.0237277,2.003978,-52.618824,-37.099636,-26.051575
2.6848218,2.7198217,1.7173508,-56.092026,-35.588028,-27.94505
2.5694137,2.3956103,1.4613273,-58.812103,-34.498383,-29.462978
2.4819021,2.0587692,1.2278376,-60.65009,-33.43595,-30.91425
2.421454,1.7267529,1.0194806,-61.719368,-32.559555,-31.923187
2.3787353,1.4125719,0.8431724,-62.16441,-31.743593,-32.4887
2.3361418,1.1088697,0.6811231,-61.800583,-30.997524,-32.401337
2.291016,0.82174546,0.53075457,-60.777653,-30.208435,-32.103924
2.244175,0.5691221,0.40863395,-58.9994,-29.302467,-31.720058
2.197934,0.37545362,0.33076885,-56.832367,-28.34101,-31.247826
2.1530616,0.24063395,0.3007172,-54.581375,-27.177711,-30.650185
2.091292,0.14275052,0.28899246,-52.39304,-26.02028,-29.905375
2.0132987,0.07020804,0.28860477,-50.25879,-24.936764,-29.050795
1.933101,0.0154943075,0.29173368,-48.245472,-23.965672,-28.033989
1.8523041,-0.022782512,0.30421814,-46.361107,-23.05652,-26.979227
1.7792923,-0.049746983,0.32029507,-44.62188,-22.191187,-25.748863
1.7095548,-0.0682422,0.33393547,-43.045383,-21.279339,-24.520319
1.642779,-0.08923608,0.341643,-41.519512,-20.281214,-23.29932
1.5760624,-0.1126561,0.34351987,-40.072483,-19.21491,-21.998222
1.5159583,-0.13708626,0.34340116,-38.657135,-18.031624,-20.465782
1.4626637,-0.16044237,0.34006506,-37.154873,-16.770956,-18.693224
1.4190785,-0.17425814,0.3390941,-35.542545,-15.448101,-16.612886
1.3635937,-0.19853133,0.3349664,-33.558372,-14.21964,-14.738637
1.318421,-0.19195445,0.32386974,-32.446663,-13.748576,-14.2503805
1.2749113,-0.18561968,0.31318158,-31.37588,-13.294854,-13.780098
1.232988,-0.1795159,0.30288315,-30.344137,-12.857676,-13.326962
1.1925795,-0.17363265,0.2929568,-29.349672,-12.436293,-12.8902
1.1536185,-0.16796015,0.28338602,-28.390833,-12.0300045,-12.469083
1.1160419,-0.16248922,0.27415535,-27.466064,-11.638154,-12.06293
1.0797904,-0.1572112,0.26525018,-26.573904,-11.26012,-11.671099
1.0448078,-0.15211794,0.2566567,-25.712975,-10.89532,-11.292984
1.0110414,-0.14720176,0.24836203,-24.881977,-10.543202,-10.928015
0.97844154,-0.14245541,0.24035387,-24.079685,-10.203249,-10.575653
0.94696087,-0.13787201,0.23262066,-23.30494,-9.874967,-10.23539
0.9165548,-0.13344507,0.22515142,-22.556639,-9.557891,-9.90674
0.8871811,-0.12916842,0.21793577,-21.833744,-9.251579,-9.589249
0.85879946,-0.12503621,0.21096383,-21.135265,-8.955614,-9.282481
0.83137184,-0.121042915,0.20422626,-20.460264,-8.669598,-8.986026
0.804862,-0.11718324,0.1977141,-19.80785,-8.39315,-8.699489
0.77923536,-0.11345215,0.19141893,-19.177174,-8.125915,-8.4225
0.7544591,-0.10984487,0.18533266,-18.567423,-7.8675466,-8.154701
0.73050183,-0.10635683,0.17944756,-17.977829,-7.6177187,-7.895755
0.7073337,-0.10298368,0.17375632,-17.407656,-7.3761196,-7.6453376
0.6849261,-0.09972126,0.16825189,-16.856197,-7.1424513,-7.403141
0.66325164,-0.09656559,0.16292757,-16.322786,-6.9164295,-7.1688695
0.64228433,-0.09351288,0.15777697,-15.806775,-6.697781,-6.9422407
0.62199914,-0.09055947,0.15279391,-15.307551,-6.486246,-6.722985
0.60237217,-0.08770189,0.14797254,-14.824526,-6.2815742,-6.510843
0.58338034,-0.0849368,0.14330721,-14.357133,-6.0835266,-6.305567
0.5650018,-0.08226098,0.13879251,-13.904832,-5.891874,-6.106919
0.54721534,-0.079671375,0.13442329,-13.467103,-5.7063956,-5.914671
0.53000075,-0.07716503,0.13019451,-13.0434475,-5.5268803,-5.728604
0.5133385,-0.074739106,0.12610145,-12.633386,-5.3531256,-5.548507
0.49720994,-0.07239088,0.12213947,-12.236458,-5.184936,-5.374179
0.48159707,-0.070117734,0.11830417,-11.8522215,-5.022124,-5.2054243
0.46648258,-0.06791715,0.1145913,-11.48025,-4.864509,-5.042057
0.45184982,-0.06578671,0.110996775,-11.120134,-4.711918,-4.8838964
0.43768278,-0.06372407,0.10751665,-10.771481,-4.564183,-4.7307696
0.42396605,-0.061726995,0.10414713,-10.4339075,-4.421144,-4.5825095
0.4106847,-0.059793312,0.10088458,-10.107051,-4.2826457,-4.4389563
0.3978245,-0.057920936,0.097725466,-9.790558,-4.1485386,-4.2999544
0.38537154,-0.05610786,0.09466641,-9.484088,-4.018678,-4.1653543
0.37331256,-0.054352146,0.09170412,-9.187314,-3.8929267,-4.035013
0.36163473,-0.05265192,0.08883546,-8.8999195,-3.7711494,-3.908791
0.35032564,-0.051005382,0.08605739,-8.6216,-3.6532176,-3.7865548
0.33937335,-0.04941079,0.08336696,-8.352061,-3.5390062,-3.668175
0.3287663,-0.047866464,0.08076134,-8.091019,-3.4283953,-3.5535269
0.31849334,-0.046370782,0.078237794,-7.838199,-3.3212683,-3.4424899
0.30854374,-0.044922177,0.075793676,-7.593337,-3.2175133,-3.334948
0.2989071,-0.04351914,0.07342644,-7.356177,-3.1170218,-3.2307887
0.28957337,-0.042160206,0.07113361,-7.126472,-3.019689,-3.1299036
0.2805329,-0.04084396,0.06891282,-6.903983,-2.9254143,-3.032188
0.27177626,-0.039569043,0.066761754,-6.68848,-2.8340995,-2.9375403
0.2632944,-0.038334135,0.06467819,-6.479739,-2.7456503,-2.8458626
0.25507858,-0.037137963,0.06265998,-6.2775464,-2.6599753,-2.7570605
0.24712034,-0.035979286,0.06070504,-6.081692,-2.5769863,-2.6710427
0.23941149,-0.034856923,0.058811363,-5.8919754,-2.4965978,-2.5877202
0.23194411,-0.033769716,0.056977004,-5.7082014,-2.4187276,-2.5070078
0.22471055,-0.032716554,0.05520008,-5.530182,-2.3432956,-2.4288228
0.21770342,-0.031696353,0.05347878,-5.357734,-2.2702248,-2.3530848
0.21091554,-0.030708076,0.051811337,-5.190683,-2.1994402,-2.2797167
0.20433997,-0.029750714,0.05019605,-5.0288568,-2.1308699,-2.2086437
0.19797003,-0.028823288,0.04863128,-4.872091,-2.0644438,-2.1397932
0.19179922,-0.027924854,0.047115423,-4.720226,-2.0000942,-2.0730948
0.1858213,-0.027054502,0.045646943,-4.5731072,-1.937756,-2.0084813
0.18003014,-0.026211342,0.044224348,-4.4305854,-1.8773654,-1.9458866
0.17441988,-0.025394522,0.04284619,-4.2925158,-1.8188614,-1.8852472
0.16898485,-0.024603214,0.041511077,-4.1587586,-1.7621845,-1.8265017
0.16371953,-0.023836613,0.040217653,-4.0291777,-1.7072774,-1.7695906
0.15861858,-0.023093944,0.038964607,-3.9036422,-1.6540844,-1.7144562
0.15367687,-0.022374459,0.037750676,-3.782025,-1.6025518,-1.6610427
0.14888936,-0.021677427,0.03657463,-3.6642034,-1.5526274,-1.6092962
0.14425124,-0.021002144,0.035435274,-3.5500584,-1.5042609,-1.5591643
0.13975783,-0.020347929,0.034331467,-3.4394743,-1.4574033,-1.5105965
0.13540459,-0.01971412,0.033262096,-3.3323398,-1.4120073,-1.4635437
0.13118711,-0.019100083,0.032226074,-3.2285469,-1.3680273,-1.4179585
0.12710117,-0.018505193,0.031222366,-3.127991,-1.325419,-1.3737948
0.12314264,-0.017928854,0.030249953,-3.0305705,-1.284139,-1.3310083
0.11930753,-0.017370485,0.029307859,-2.9361875,-1.2441463,-1.2895559
0.11559199,-0.016829522,0.028395137,-2.844747,-1.2054003,-1.2493958
0.11199226,-0.016305424,0.027510867,-2.756157,-1.1678623,-1.2104876
0.10850474,-0.015797662,0.026654158,-2.6703284,-1.1314942,-1.1727922
0.10512593,-0.015305724,0.025824152,-2.5871747,-1.0962596,-1.1362716
0.1018524,-0.014829119,0.025020013,-2.5066125,-1.0621232,-1.1008892
0.09868089,-0.014367365,0.024240931,-2.428561,-1.0290505,-1.0666094
0.09560821,-0.01392,0.023486128,-2.3529415,-0.9970083,-1.0333978
0.092631266,-0.013486574,0.022754842,-2.279678,-0.96596456,-1.001221
0.08974707,-0.013066652,0.02204634,-2.2086973,-0.935888,-0.97004664
0.08695273,-0.012659813,0.021359913,-2.1399279,-0.9067485,-0.93984354
0.08424544,-0.012265648,0.020694869,-2.073301,-0.87851673,-0.91058135
0.081622496,-0.011883761,0.02005054,-2.0087495,-0.8511644,-0.8822307
0.079081245,-0.011513771,0.019426284,-1.9462088,-0.8246641,-0.8547632
0.076619156,-0.0111553045,0.018821472,-1.8856161,-0.7989893,-0.8281513
0.07423375,-0.010808003,0.018235499,-1.8269107,-0.77411413,-0.8023682
0.07192264,-0.010471519,0.017667774,-1.7700337,-0.7500137,-0.7773882
0.06968351,-0.010145514,0.017117733,-1.7149282,-0.72666395,-0.75318617
0.067514114,-0.009829663,0.016584821,-1.6615387,-0.7040413,-0.7297379
0.065412275,-0.009523648,0.016068505,-1.609812,-0.68212324,-0.7070198
0.06337589,-0.009227162,0.015568269,-1.5596962,-0.6608877,-0.68500924
0.061402924,-0.00893991,0.01508361,-1.511141,-0.6403135,-0.66368407
0.059491396,-0.008661602,0.014614043,-1.4640977,-0.6203799,-0.64302295
0.057639387,-0.0083919605,0.014159098,-1.4185194,-0.6010671,-0.6230052
0.05584505,-0.008130715,0.013718319,-1.3743603,-0.5823556,-0.6036108
0.054106582,-0.007877604,0.013291265,-1.3315761,-0.56422675,-0.5848203
0.052422244,-0.0076323743,0.012877508,-1.2901242,-0.5466624,-0.5666148
0.05079035,-0.00739478,0.012476634,-1.2499629,-0.5296449,-0.5489762
0.049209267,-0.0071645835,0.012088241,-1.2110521,-0.51315725,-0.5318868
0.04767741,-0.006941554,0.011711941,-1.1733527,-0.49718297,-0.5153295
0.046193246,-0.0067254687,0.011347357,-1.1368271,-0.48170602,-0.49928764
0.04475529,-0.0065161106,0.010994124,-1.1014386,-0.46671095,-0.48374525
0.043362107,-0.006313271,0.010651888,-1.067152,-0.45218274,-0.46868676
0.042012297,-0.0061167465,0.010320308,-1.0339328,-0.4381068,-0.4540971
0.040704507,-0.00592634,0.00999905,-1.0017478,-0.4244691,-0.43996164
0.03943743,-0.0057418616,0.009687793,-0.9705649,-0.411256,-0.42626628
0.038209807,-0.005563126,0.0093862275,-0.9403527,-0.39845422,-0.41299725
0.0370204,-0.0053899554,0.00909405,-0.9110811,-0.386051,-0.40014133
0.03586802,-0.0052221753,0.008810968,-0.8827207,-0.3740339,-0.38768563
0.034751512,-0.0050596185,0.008536698,-0.8552432,-0.36239094,-0.37561768
0.033669766,-0.0049021225,0.008270968,-0.82862115,-0.3511104,-0.36392543
0.032621693,-0.004749529,0.008013509,-0.80282784,-0.34018102,-0.35259718
0.031606246,-0.0046016863,0.007764065,-0.77783746,-0.3295919,-0.34162155
0.030622413,-0.0044584456,0.0075223865,-0.7536251,-0.31933242,-0.3309876
0.029669205,-0.004319664,0.0072882315,-0.7301664,-0.3093923,-0.3206847
0.028745672,-0.004185203,0.0070613655,-0.707438,-0.29976162,-0.31070253
0.027850885,-0.0040549273,0.0068415618,-0.6854171,-0.29043075,-0.30103108
0.026983954,-0.003928707,0.0066286004,-0.6640817,-0.28139034,-0.2916607
0.026144011,-0.0038064162,0.006422268,-0.6434105,-0.27263135,-0.282582
0.025330214,-0.003687932,0.0062223594,-0.62338275,-0.26414502,-0.27378595
0.024541749,-0.0035731362,0.006028673,-0.6039784,-0.25592288,-0.2652637
