ax,ay,az,gx,gy,gz
-0.009090992,4.1200376,-3.5973055,-24.969318,40.56128,17.36743
-0.38307422,4.213407,-4.4028654,-25.867783,52.70105,13.774664
-0.9550539,4.146057,-5.1713977,-24.037117,54.506886,10.72344
-1.4884766,4.1161766,-5.895686,-25.010933,47.423893,10.533852
-1.794407,3.9961786,-6.6009264,-26.96449,36.465042,11.080818
-1.9449354,3.7695935,-7.223015,-24.10822,25.420568,10.75202
-1.990332,3.6038024,-7.7239857,-19.491247,16.278093,9.8097315
-1.9759644,3.5177462,-8.119583,-13.667115,9.315952,8.7610855
-1.9851873,3.5489166,-8.446225,-8.46631,2.29871,7.6662784
-2.0276482,3.6090286,-8.743563,-4.50117,-5.645432,6.406519
-2.0835528,3.6147158,-9.0487995,-2.0773964,-15.571374,5.239597
-2.1241696,3.4381263,-9.379043,0.79386437,-25.845623,4.0309887
-2.0993044,3.2615097,-9.596129,4.708241,-35.61954,2.778149
-2.0419257,3.1869237,-9.640863,8.730709,-45.115486,1.676066
-2.0156324,3.1818392,-9.539496,11.543826,-54.68084,0.5435978
-2.0475678,3.10505,-9.366129,13.997281,-64.509476,-1.0198652
-2.075571,3.039685,-9.052027,16.394289,-74.219315,-3.2873209
-2.0117788,3.0253875,-8.605358,18.098988,-84.549614,-5.8797097
-1.797352,3.0481334,-8.049141,18.561497,-94.347244,-8.111944
-1.4261304,3.0788083,-7.369991,17.393248,-103.057755,-9.899842
-0.9561044,3.0298662,-6.6618195,15.48785,-109.067856,-11.283255
-0.4411504,2.895726,-5.9821157,13.163765,-112.9955,-12.36057
0.07142706,2.7437723,-5.378711,10.693363,-115.72345,-13.033569
0.5759128,2.58533,-4.8341055,7.616787,-117.66303,-12.793984
1.0084294,2.3746493,-4.353826,3.828806,-118.91878,-11.37221
1.3099086,2.0718281,-3.9605422,0.8803731,-119.0642,-9.768574
1.5314462,1.7842025,-3.6083157,-0.1293771,-118.05081,-9.31499
1.7693447,1.6166345,-3.2223616,0.23352277,-116.2188,-9.619483
2.034388,1.5905105,-2.795712,0.5730591,-113.65841,-9.825523
2.287597,1.6550614,-2.395797,0.15991955,-110.77546,-9.498419
2.5051663,1.7530051,-2.0466776,-0.97410035,-107.46424,-8.589385
2.6721067,1.911611,-1.731513,-2.392274,-103.62558,-7.8152184
2.8034103,2.1309798,-1.4331784,-4.152972,-99.05827,-7.585491
2.8960335,2.3977082,-1.1619518,-6.444884,-93.91155,-7.904686
2.9381685,2.693527,-0.9217193,-9.40875,-88.60288,-8.768625
2.9324923,2.9883337,-0.71336675,-13.112102,-83.33102,-10.50435
2.8827372,3.2535694,-0.5548015,-17.210075,-78.25397,-12.496326
2.800754,3.5030403,-0.4306982,-21.626114,-73.25609,-14.800715
2.7131832,3.7451215,-0.33078697,-26.43177,-68.090576,-17.587357
2.6235905,3.9553335,-0.27634835,-31.676365,-62.576694,-21.06416
2.503475,4.1018095,-0.2902387,-37.220814,-57.07591,-25.251518
2.3084629,4.1249533,-0.42230734,-42.78227,-52.65305,-29.479836
2.141635,4.0586,-0.6189783,-48.61426,-49.80836,-33.267185
2.066451,3.892314,-0.8417118,-54.350246,-47.612446,-36.6318
2.0619552,3.5946202,-1.0827384,-59.288345,-45.341393,-39.35733
2.061644,3.2270837,-1.3254755,-62.76593,-43.25889,-41.04811
2.039359,2.8542392,-1.5380429,-65.3838,-41.869003,-42.09822
2.031767,2.4894736,-1.7056893,-67.35943,-41.008675,-42.406483
2.0196033,2.1378422,-1.8310649,-68.498505,-40.353428,-42.290375
2.0048342,1.8075496,-1.9102976,-68.76281,-39.697124,-42.098156
2.0074368,1.4993311,-1.9425309,-68.40544,-38.772015,-41.320568
2.0017502,1.2177366,-1.9460706,-67.56198,-37.712467,-40.302486
1.9820484,0.9653877,-1.9354113,-66.12665,-36.68301,-39.272125
1.9587629,0.752926,-1.8988752,-64.310814,-35.663807,-38.160717
1.9355482,0.5683412,-1.8523018,-62.091366,-34.54503,-36.971344
1.9188974,0.4183716,-1.7982687,-59.512527,-33.223717,-35.491383
1.9052213,0.3176049,-1.7334796,-56.738705,-31.729803,-33.88275
1.9033133,0.23647226,-1.6636578,-53.75304,-30.081827,-32.042206
1.9200952,0.15167944,-1.5939848,-50.605133,-28.129993,-29.763107
1.9384305,0.048238654,-1.5252242,-47.227135,-26.15406,-27.43975
1.9778825,-0.058700778,-1.4546978,-43.924656,-23.811665,-25.039707
1.913804,-0.056799017,-1.4075692,-42.501606,-23.040224,-24.228483
1.8519533,-0.054963373,-1.3620791,-41.12803,-22.295607,-23.445461
1.7922392,-0.05319114,-1.3181604,-39.801903,-21.57671,-22.68949
1.7345752,-0.051479753,-1.2757496,-38.521305,-20.882494,-21.95947
1.6788795,-0.049826786,-1.2347864,-37.28442,-20.211977,-21.254372
1.6250747,-0.048229937,-1.1952139,-36.08953,-19.564222,-20.573212
1.5730873,-0.04668702,-1.1569781,-34.934998,-18.938349,-19.915058
1.5228474,-0.045195974,-1.1200275,-33.819275,-18.333511,-19.279028
1.4742886,-0.043754816,-1.0843133,-32.740883,-17.748913,-18.66428
1.4273475,-0.04236167,-1.0497891,-31.69842,-17.183792,-18.070015
1.3819642,-0.041014757,-1.0164104,-30.69055,-16.637423,-17.495466
1.338081,-0.039712366,-0.98413503,-29.715996,-16.109114,-16.939913
1.2956432,-0.03845287,-0.9529228,-28.77354,-15.5982065,-16.402657
1.2545985,-0.037234724,-0.92273515,-27.862022,-15.104072,-15.883037
1.2148969,-0.036056433,-0.8935353,-26.980333,-14.626104,-15.38042
1.1764905,-0.034916587,-0.8652881,-26.127407,-14.163732,-14.8942
1.1393335,-0.03381382,-0.83795977,-25.302227,-13.7164,-14.423799
1.1033822,-0.032746833,-0.8115182,-24.503822,-13.283583,-13.968659
1.0685943,-0.03171438,-0.78593236,-23.731258,-12.864773,-13.528251
1.0349299,-0.030715264,-0.7611727,-22.983639,-12.459487,-13.102062
1.0023499,-0.029748335,-0.7372107,-22.260105,-12.067258,-12.689605
0.9708174,-0.028812496,-0.7140191,-21.559834,-11.687639,-12.290408
0.9402967,-0.027906686,-0.6915717,-20.882034,-11.320202,-11.90402
0.91075355,-0.027029887,-0.6698432,-20.22594,-10.964533,-11.530008
0.882155,-0.026181122,-0.6488095,-19.590828,-10.620235,-11.167955
0.85446936,-0.02535945,-0.6284472,-18.975986,-10.286929,-10.817459
0.82766616,-0.024563968,-0.6087339,-18.380743,-9.964246,-10.478134
0.80171597,-0.023793805,-0.589648,-17.804443,-9.651833,-10.149609
0.77659065,-0.02304812,-0.5711688,-17.246462,-9.34935,-9.831526
0.75226283,-0.022326104,-0.5532761,-16.706192,-9.056468,-9.52354
0.7287064,-0.021626983,-0.5359507,-16.183054,-8.772873,-9.225318
0.705896,-0.020950003,-0.5191741,-15.676481,-8.49826,-8.936542
0.68380725,-0.020294439,-0.5029282,-15.185936,-8.232333,-8.656901
0.66241664,-0.019659596,-0.4871958,-14.710896,-7.9748125,-8.386099
0.64170146,-0.019044798,-0.47196013,-14.250854,-7.725423,-8.123848
0.6216398,-0.018449396,-0.45720515,-13.805326,-7.4839015,-7.86987
0.6022105,-0.017872764,-0.44291526,-13.373843,-7.2499933,-7.6238985
0.5833933,-0.017314294,-0.4290755,-12.955952,-7.023453,-7.385675
0.5651683,-0.016773403,-0.41567138,-12.551213,-6.8040433,-7.1549497
0.54751664,-0.016249524,-0.40268886,-12.159205,-6.591535,-6.9314814
0.53041977,-0.015742114,-0.39011443,-11.77952,-6.385707,-6.715038
0.51386005,-0.015250645,-0.37793505,-11.411763,-6.1863446,-6.505394
0.49782026,-0.014774607,-0.36613804,-11.0555525,-5.9932423,-6.302333
0.48228383,-0.014313506,-0.35471126,-10.710521,-5.8061996,-6.1056437
0.46723467,-0.013866869,-0.3436429,-10.37631,-5.6250234,-5.9151235
0.45265734,-0.013434234,-0.33292153,-10.052578,-5.4495273,-5.7305765
0.43853682,-0.013015158,-0.32253614,-9.738991,-5.2795305,-5.551813
0.42485863,-0.012609207,-0.31247604,-9.435226,-5.114859,-5.3786488
0.41160873,-0.012215968,-0.30273098,-9.140973,-4.955344,-5.210907
0.39877352,-0.011835039,-0.2932909,-8.85593,-4.800822,-5.048415
0.38633996,-0.011466027,-0.28414625,-8.579807,-4.6511345,-4.8910084
0.37429532,-0.01110856,-0.27528763,-8.312321,-4.5061293,-4.738525
0.36262733,-0.01076227,-0.26670602,-8.053199,-4.3656588,-4.59081
0.35132408,-0.010426805,-0.2583927,-7.8021774,-4.2295794,-4.4477124
0.34037414,-0.010101826,-0.25033918,-7.5590014,-4.097753,-4.3090873
0.3297663,-0.009787001,-0.24253732,-7.3234234,-3.9700458,-4.1747937
0.31948984,-0.00948201,-0.23497917,-7.095205,-3.846328,-4.0446954
0.30953434,-0.009186544,-0.22765706,-6.874114,-3.726474,-3.9186602
0.2998897,-0.008900305,-0.2205636,-6.6599264,-3.6103625,-3.7965605
0.29054618,-0.008623002,-0.21369159,-6.452426,-3.497876,-3.6782725
0.28149426,-0.008354355,-0.20703408,-6.251402,-3.3889005,-3.5636768
0.27272487,-0.008094091,-0.20058434,-6.056652,-3.283326,-3.4526575
0.2642291,-0.007841948,-0.19433585,-5.8679786,-3.1810455,-3.3451023
0.25599837,-0.0075976723,-0.18828231,-5.6851916,-3.0819564,-3.2409027
0.24802442,-0.0073610162,-0.1824176,-5.508106,-2.985958,-3.1399534
0.24029917,-0.0071317414,-0.1767358,-5.3365445,-2.8929539,-3.0421526
0.23281483,-0.006909617,-0.17123121,-5.170333,-2.8028502,-2.947402
0.22556387,-0.006694419,-0.16589826,-5.0093045,-2.7155561,-2.855606
0.218539,-0.00648593,-0.16073158,-4.8532963,-2.6309838,-2.7666721
0.21173312,-0.0062839417,-0.15572599,-4.7021523,-2.5490482,-2.6805108
0.20513941,-0.0060882494,-0.15087643,-4.5557194,-2.4696667,-2.5970354
0.19875123,-0.0058986573,-0.14617804,-4.4138513,-2.3927596,-2.516162
0.19256215,-0.005714974,-0.14162607,-4.2764044,-2.3182495,-2.437809
0.18656594,-0.005537015,-0.13721597,-4.1432414,-2.2460613,-2.361898
0.1807566,-0.005364602,-0.1329433,-4.014228,-2.176123,-2.2883525
0.17512827,-0.0051975613,-0.12880376,-3.8892345,-2.1083636,-2.2170987
0.16967532,-0.005035725,-0.12479321,-3.7681358,-2.0427158,-2.148065
0.16439226,-0.004878931,-0.12090761,-3.65081,-1.9791131,-2.0811822
0.15927379,-0.0047270223,-0.11714307,-3.5371394,-1.917492,-2.0163832
0.15431477,-0.004579846,-0.113495804,-3.42701,-1.8577906,-1.9536028
0.14951023,-0.004437254,-0.10996215,-3.3203113,-1.7999489,-1.892778
0.14485537,-0.0042991037,-0.10653857,-3.2169363,-1.743909,-1.833848
0.14034548,-0.004165257,-0.10322163,-3.1167812,-1.6896147,-1.7767535
0.13597606,-0.0040355786,-0.100008,-3.0197456,-1.6370115,-1.7214373
0.13174275,-0.0039099394,-0.09689447,-2.9257321,-1.5860466,-1.667844
0.12764126,-0.0037882132,-0.093877904,-2.834647,-1.536669,-1.61592
0.123667516,-0.0036702782,-0.09095528,-2.7463982,-1.4888293,-1.5656129
0.11981752,-0.0035560157,-0.08812368,-2.660898,-1.4424793,-1.5168725
0.11608742,-0.0034453117,-0.085380256,-2.5780602,-1.3975728,-1.46965
0.11247348,-0.003338055,-0.08272227,-2.497802,-1.3540646,-1.423898
0.10897207,-0.0032341382,-0.08014704,-2.420043,-1.3119113,-1.3795707
0.105579704,-0.0031334572,-0.077652015,-2.3447056,-1.2710706,-1.3366238
0.10229296,-0.0030359114,-0.075234674,-2.2717137,-1.2315017,-1.2950141
0.09910856,-0.0029414028,-0.072892606,-2.200995,-1.1931647,-1.2547001
0.09602331,-0.002849837,-0.07062346,-2.132478,-1.1560216,-1.2156413
0.093034126,-0.002761122,-0.06842496,-2.0660944,-1.1200348,-1.1777986
0.09013801,-0.0026751696,-0.06629492,-2.0017776,-1.0851686,-1.1411341
0.08733206,-0.002591893,-0.064231195,-1.9394635,-1.0513879,-1.1056113
0.08461348,-0.0025112093,-0.062231727,-1.8790894,-1.018659,-1.0711945
0.08197954,-0.0024330376,-0.06029451,-1.820595,-0.986949,-1.0378492
0.0794276,-0.0023572997,-0.058417603,-1.7639217,-0.95622635,-1.0055419
0.07695512,-0.0022839196,-0.056599133,-1.709013,-0.92646015,-0.97424066
0.0745596,-0.0022128243,-0.054837275,-1.6558136,-0.8976206,-0.9439138
0.07223867,-0.0021439423,-0.05313027,-1.6042705,-0.869679,-0.9145311
0.06998999,-0.0020772046,-0.051476404,-1.554332,-0.8426072,-0.88606316
0.06781132,-0.0020125445,-0.04987403,-1.5059482,-0.81637824,-0.85848147
0.065700464,-0.0019498976,-0.048321538,-1.4590707,-0.7909658,-0.83175844
0.06365533,-0.0018892009,-0.046817377,-1.4136525,-0.7663445,-0.8058673
0.061673865,-0.0018303937,-0.045360044,-1.3696482,-0.74248964,-0.7807822
0.05975408,-0.0017734172,-0.043948077,-1.3270139,-0.71937746,-0.756478
0.057894062,-0.0017182144,-0.042580064,-1.2857066,-0.6969847,-0.7329305
0.056091942,-0.0016647301,-0.04125464,-1.2456853,-0.6752891,-0.7101159
0.054345924,-0.0016129108,-0.039970472,-1.20691,-0.65426886,-0.6880116
0.052654263,-0.0015627046,-0.038726285,-1.1693416,-0.63390297,-0.66659534
0.051015258,-0.0015140612,-0.037520826,-1.1329428,-0.614171,-0.64584583
0.049427275,-0.0014669321,-0.03635289,-1.097677,-0.5950534,-0.6257422
0.047888726,-0.0014212702,-0.035221316,-1.063509,-0.5765308,-0.60626435
0.04639807,-0.0013770296,-0.034124967,-1.0304046,-0.55858487,-0.58739287
0.044953816,-0.0013341662,-0.03306274,-0.9983308,-0.54119754,-0.56910884
