ax,ay,az,gx,gy,gz
0.9527359,-0.30000275,-13.799216,-77.404335,172.23157,-60.48055
0.90235627,0.04591359,-14.834952,-81.93538,151.67557,-56.586124
0.53964895,-0.16670166,-15.946658,-85.122314,116.66358,-50.430096
-0.028218798,-0.93889797,-17.087055,-75.96815,74.61088,-45.390953
-0.5826107,-1.8421935,-18.079504,-59.48581,31.540962,-43.455765
-0.93682355,-2.6007671,-18.88701,-41.53068,-15.182458,-38.991383
-0.8310878,-2.9262185,-19.420382,-25.10596,-56.6508,-32.86005
-0.4843652,-2.8428748,-19.781496,-12.248483,-94.677505,-25.723993
-0.05924426,-2.5705948,-20.051037,-3.41259,-131.21577,-18.344288
0.34062257,-2.343363,-20.32048,3.6315136,-167.5405,-11.364597
0.743607,-2.2631123,-20.634027,12.544012,-208.05821,-6.2340283
1.5420222,-2.3187575,-20.787376,21.796,-251.00426,-2.6102514
3.0882702,-2.4577856,-20.31244,29.6487,-293.60513,0.13354428
5.5456896,-2.5222144,-18.562607,35.995995,-325.23798,4.7743664
8.329823,-2.1598873,-15.560217,43.4575,-338.18393,8.126062
10.896337,-1.5841644,-11.877295,52.8855,-326.6334,10.922491
12.582437,-0.81074727,-8.413413,60.19494,-304.51892,13.619782
13.637475,0.07329151,-5.596705,64.24104,-277.04828,14.992922
14.305336,0.9495036,-3.488975,64.11157,-246.26949,14.717674
14.732584,1.560949,-2.1173592,61.696106,-213.18423,12.830889
14.943999,1.8411791,-1.4147563,58.134872,-178.39035,10.009599
14.997139,1.8742784,-1.2546746,54.867764,-143.11597,6.376593
14.991607,1.8195562,-1.4320282,52.17883,-108.51104,1.840197
14.890881,1.6889062,-1.8755597,50.322823,-76.63603,-2.8753963
14.726988,1.512314,-2.4487734,49.019985,-47.67636,-7.2565093
14.538926,1.3691878,-3.0934556,47.805546,-21.508091,-11.036923
14.479584,1.280611,-3.7266066,49.14877,4.252207,-14.901425
14.369246,1.2204776,-4.588048,48.122173,25.303299,-17.672644
14.048021,1.0679678,-5.6128807,46.14183,39.91577,-18.238949
13.486831,1.0271155,-6.695339,46.134113,48.318554,-18.592285
12.724348,1.292746,-7.7868567,46.688034,46.785103,-22.61242
12.035468,1.7619421,-8.772393,44.217148,38.09167,-28.814924
11.566047,2.0855515,-9.592961,41.03814,25.360271,-36.115818
11.250968,2.2503974,-10.286715,38.77412,10.000433,-43.913654
10.977958,2.3421495,-10.943855,37.763702,-9.191613,-51.879112
10.654746,2.4568028,-11.611857,35.267147,-36.47473,-61.101032
10.423321,2.6112769,-12.304011,31.876406,-69.23548,-72.02466
10.771088,2.673378,-12.804677,25.05568,-104.462074,-82.75881
11.787676,2.5252542,-12.653697,17.297997,-133.63763,-92.128204
13.143838,2.0362513,-11.788051,9.787101,-152.388,-100.322395
14.43892,1.2047431,-10.507672,7.251652,-155.19507,-102.113045
15.064837,0.44934398,-9.458922,7.392171,-153.45729,-100.91103
15.335347,-0.113688365,-8.549302,6.469492,-150.40735,-97.544044
15.463155,-0.6389466,-7.688799,5.3479104,-145.57602,-92.63976
15.502106,-1.1637524,-6.9252605,5.3188276,-138.12439,-86.67778
15.505507,-1.6743761,-6.3264413,7.0937543,-127.884315,-79.45349
15.465313,-2.1162019,-5.921761,9.130446,-116.25066,-71.22525
15.397222,-2.5230017,-5.664501,12.141576,-103.517395,-61.43883
15.254836,-2.8782992,-5.5834417,17.358679,-90.25126,-50.36062
14.990725,-3.1266057,-5.685988,24.809649,-77.81504,-38.614647
14.638116,-3.2532313,-5.897998,33.28165,-67.116905,-26.303154
14.263428,-3.2176144,-6.166593,41.751415,-57.67021,-13.652036
13.921992,-3.0623174,-6.4345655,50.03785,-49.29015,-0.8089491
13.62223,-2.7965047,-6.6824536,57.94177,-41.58238,11.748315
13.321224,-2.2887075,-6.9012794,64.562996,-35.061024,22.318111
12.961996,-1.5158244,-7.047302,68.956474,-30.574417,27.386627
12.5620365,-0.54202384,-7.0508103,71.36736,-27.29505,29.129324
12.157717,0.54855937,-6.964624,70.61469,-24.550222,29.064816
11.740373,1.7528048,-6.833239,66.70658,-21.881802,25.983694
11.339259,2.9250412,-6.749226,60.52776,-19.526894,18.626354
10.9838295,3.8981767,-6.761887,52.177837,-18.238356,6.7484813
10.711371,4.5926123,-6.8862,42.304985,-17.683083,-6.9440956
10.506236,4.9990582,-7.0966496,31.382761,-18.299065,-21.095583
10.389667,5.0524845,-7.326689,20.304478,-19.32674,-34.07534
10.363456,4.771684,-7.5820985,10.56093,-20.837557,-45.578503
10.449846,4.1808867,-7.81479,2.6394277,-23.407999,-53.6239
10.653517,3.3150816,-7.9127674,-3.8531926,-25.380651,-57.937824
10.810671,2.3878903,-7.946493,-8.550808,-26.148314,-58.88236
10.809883,1.520928,-7.9907103,-11.679217,-26.094872,-56.9063
10.465189,1.4724303,-7.7359114,-11.306804,-25.262789,-55.091736
10.13198,1.4255484,-7.4896016,-10.946797,-24.458426,-53.337627
9.809828,1.3802223,-7.2514653,-10.598738,-23.680756,-51.641724
9.498324,1.3363944,-7.0212007,-10.262183,-22.928793,-50.00188
9.197082,1.2940102,-6.7985206,-9.936713,-22.201595,-48.41605
8.905726,1.2530172,-6.58315,-9.621928,-21.498272,-46.88228
8.623906,1.2133656,-6.374827,-9.317444,-20.81796,-45.398693
8.351279,1.1750076,-6.1733003,-9.022892,-20.159845,-43.963512
8.087522,1.1378975,-5.9783297,-8.737924,-19.52314,-42.575016
7.8323226,1.1019914,-5.7896852,-8.4622,-18.907091,-41.231575
7.5853825,1.0672475,-5.607146,-8.195401,-18.310984,-39.93161
7.3464155,1.0336254,-5.430501,-7.9372168,-17.734121,-38.673622
7.115148,1.0010865,-5.2595468,-7.6873503,-17.175844,-37.45616
6.8913155,0.9695937,-5.094089,-7.4455175,-16.635517,-36.277843
6.6746655,0.93911153,-4.9339404,-7.2114444,-16.112528,-35.137337
6.4649544,0.9096056,-4.778921,-6.984868,-15.606289,-34.03336
6.2619486,0.8810431,-4.628858,-6.7655363,-15.116237,-32.96468
6.065423,0.85339236,-4.483586,-6.5532064,-14.641827,-31.93011
5.875161,0.8266229,-4.342943,-6.3476434,-14.182538,-30.92852
5.6909547,0.8007055,-4.206777,-6.1486235,-13.737867,-29.958805
5.5126033,0.77561176,-4.0749393,-5.955929,-13.30733,-29.019913
5.3399134,0.75131464,-3.9472861,-5.769351,-12.890459,-28.110823
5.1726985,0.7277879,-3.8236802,-5.588689,-12.486806,-27.230556
5.01078,0.70500624,-3.703989,-5.4137483,-12.095937,-26.37817
4.8539834,0.6829454,-3.5880847,-5.2443423,-11.717433,-25.55275
4.7021427,0.6615817,-3.4758434,-5.080291,-11.350892,-24.753418
4.5550966,0.6408926,-3.3671463,-4.921419,-10.995925,-23.979324
4.4126897,0.6208562,-3.2618785,-4.76756,-10.652158,-23.229654
4.2747717,0.6014515,-3.159929,-4.6185503,-10.319226,-22.503616
4.141198,0.58265793,-3.0611908,-4.474235,-9.996781,-21.800446
4.011829,0.564456,-2.9655607,-4.3344617,-9.684486,-21.11941
3.886529,0.54682654,-2.8729382,-4.1990848,-9.382014,-20.459793
3.7651675,0.52975124,-2.7832274,-4.0679636,-9.08905,-19.820913
3.6476188,0.5132124,-2.696335,-3.9409616,-8.805289,-19.202103
3.533761,0.4971928,-2.6121707,-3.8179471,-8.530438,-18.602722
3.423476,0.48167592,-2.5306475,-3.6987932,-8.264213,-18.022152
3.3166502,0.46664575,-2.4516816,-3.5833762,-8.006336,-17.45979
3.2131734,0.4520868,-2.375191,-3.471578,-7.7565455,-16.915058
3.1129394,0.43798408,-2.3010976,-3.363283,-7.514582,-16.387398
3.015845,0.4243231,-2.229325,-3.2583804,-7.2801986,-15.8762665
2.921791,0.4110899,-2.1598,-3.1567624,-7.0531535,-15.381139
2.8306808,0.3982709,-2.092451,-3.0583253,-6.833215,-14.901509
2.7424216,0.38585302,-2.0272095,-2.962968,-6.6201587,-14.436888
2.656923,0.37382355,-1.9640086,-2.8705938,-6.413767,-13.986799
2.5740983,0.36217025,-1.9027841,-2.7811081,-6.213829,-13.550785
2.4938626,0.35088128,-1.8434736,-2.6944199,-6.0201416,-13.128403
2.4161346,0.3399451,-1.7860167,-2.610441,-5.8325076,-12.71922
2.3408353,0.32935065,-1.7303551,-2.529086,-5.6507363,-12.322824
2.2678883,0.31908715,-1.6764324,-2.4502726,-5.474643,-11.938809
2.1972194,0.3091442,-1.6241937,-2.3739207,-5.30405,-11.566789
2.1287572,0.2995117,-1.5735862,-2.2999527,-5.1387835,-11.206384
2.0624325,0.29017994,-1.5245587,-2.228294,-4.978677,-10.857231
1.9981779,0.28113946,-1.4770614,-2.1588721,-4.8235674,-10.518977
1.9359286,0.27238113,-1.4310464,-2.0916166,-4.6732984,-10.191278
1.8756217,0.26389605,-1.3864672,-2.0264597,-4.5277185,-9.873806
1.8171961,0.2556757,-1.3432789,-1.9633358,-4.3866806,-9.566237
1.7605933,0.2477118,-1.3014379,-1.9021808,-4.250042,-9.268264
1.7057557,0.23999628,-1.2609017,-1.8429332,-4.1176653,-8.979584
1.6526284,0.23252137,-1.2216297,-1.7855334,-3.9894168,-8.699906
1.6011578,0.22527955,-1.1835824,-1.7299235,-3.8651674,-8.42895
1.551292,0.21826354,-1.1467214,-1.6760473,-3.7447922,-8.166442
1.5029807,0.21146624,-1.1110095,-1.6238508,-3.6281695,-7.912118
1.4561754,0.20488085,-1.0764109,-1.5732815,-3.5151825,-7.6657214
1.4108291,0.19850071,-1.0428907,-1.5242884,-3.4057171,-7.427006
1.366896,0.19231942,-1.0104152,-1.4768224,-3.2996638,-7.1957297
1.3243322,0.18633078,-0.9789519,-1.4308355,-3.1969154,-6.9716616
1.2830948,0.18052876,-0.948469,-1.3862817,-3.097369,-6.754576
1.2431424,0.17490754,-0.91893595,-1.3431163,-3.0009243,-6.544255
1.2044348,0.16946144,-0.8903231,-1.3012958,-2.9074848,-6.340487
1.1669331,0.16418505,-0.86260176,-1.2607782,-2.8169565,-6.143068
1.1305997,0.15907302,-0.835744,-1.221523,-2.7292485,-5.951799
1.0953984,0.15412027,-0.809723,-1.1834906,-2.644273,-5.7664886
1.0612936,0.1493218,-0.7845126,-1.1466432,-2.5619445,-5.5869513
1.028251,0.14467278,-0.76008743,-1.1109433,-2.4821804,-5.4130063
0.9962378,0.14016858,-0.73642313,-1.0763556,-2.404901,-5.244479
0.96522164,0.13580468,-0.71349585,-1.0428451,-2.3300285,-5.0812016
0.93517154,0.13157669,-0.6912827,-1.0103784,-2.257488,-4.923009
0.9060573,0.12748037,-0.6697613,-0.9789228,-2.1872067,-4.7697434
0.8778498,0.123511635,-0.6489102,-0.9484468,-2.1191144,-4.621251
0.8505208,0.119666494,-0.6287085,-0.9189199,-2.0531425,-4.477383
0.8240428,0.1159411,-0.6091358,-0.89031255,-1.9892251,-4.3379955
0.7983893,0.11233171,-0.5901727,-0.8625961,-1.9272982,-4.2029486
0.7735347,0.10883472,-0.57180005,-0.83574265,-1.8672996,-4.072107
0.7494541,0.10544662,-0.55399954,-0.8097254,-1.8091693,-3.9453394
0.7261232,0.10216402,-0.5367533,-0.7845183,-1.7528491,-3.8225193
0.70351887,0.09898364,-0.5200441,-0.7600961,-1.6982825,-3.7035234
0.68161833,0.09590228,-0.5038551,-0.73643434,-1.645415,-3.5882328
0.6603997,0.09291686,-0.48817018,-0.71350926,-1.5941936,-3.476532
0.63984174,0.0900244,-0.47297364,-0.691298,-1.544567,-3.3683088
0.61992383,0.08722199,-0.45825025,-0.6697783,-1.4964855,-3.2634554
0.60062605,0.08450683,-0.44398525,-0.6489286,-1.449901,-3.1618664
0.5819291,0.08187621,-0.4301644,-0.62872803,-1.4047668,-3.0634403
0.5638142,0.07932749,-0.41677383,-0.60915637,-1.361038,-2.9680786
0.54626334,0.07685812,-0.40380013,-0.59019405,-1.3186704,-2.8756857
0.5292589,0.074465625,-0.39123037,-0.5718221,-1.2776219,-2.7861693
0.5127838,0.072147615,-0.37905192,-0.5540221,-1.2378514,-2.69944
0.49682164,0.06990177,-0.36725262,-0.5367762,-1.199319,-2.6154106
0.4813564,0.067725845,-0.35582066,-0.5200673,-1.1619861,-2.533997
0.4663726,0.06561766,-0.34474456,-0.5038785,-1.1258155,-2.4551182
0.4518553,0.0635751,-0.3340133,-0.48819366,-1.090771,-2.3786948
0.43778992,0.06159613,-0.32361612,-0.47299713,-1.0568173,-2.3046505
0.4241624,0.059678763,-0.3135426,-0.45827368,-1.0239208,-2.2329116
0.4109591,0.057821088,-0.30378267,-0.44400856,-0.9920482,-2.1634057
0.39816684,0.056021243,-0.29432657,-0.43018755,-0.96116793,-2.0960634
0.3857728,0.054277427,-0.28516483,-0.41679677,-0.9312489,-2.0308177
0.37376457,0.052587893,-0.2762883,-0.40382284,-0.90226126,-1.967603
0.36213014,0.050950956,-0.2676881,-0.3912528,-0.87417597,-1.9063561
0.3508579,0.049364977,-0.2593556,-0.379074,-0.84696496,-1.8470159
0.33993655,0.047828365,-0.2512825,-0.36727437,-0.82060105,-1.7895228
0.32935518,0.04633959,-0.24346071,-0.35584205,-0.7950578,-1.7338194
0.3191032,0.044897154,-0.23588242,-0.3447656,-0.7703097,-1.6798501
