ax,ay,az,gx,gy,gz
-4.298221,-2.8627532,-17.796526,-20.862917,36.56579,-17.090155
-4.6325955,-3.6280768,-19.269033,-14.034231,22.022211,-8.162043
-5.1488223,-4.2756763,-20.665747,-9.242576,-9.1979475,-1.7174544
-5.3948975,-4.8701487,-21.770626,-4.8880415,-47.46849,2.0350683
-5.1555834,-5.3631916,-22.377224,-1.6594847,-87.89914,5.9689784
-4.487735,-5.73154,-22.541683,3.332102,-127.04807,12.172868
-3.5549073,-6.0684423,-22.484495,8.579883,-162.92542,19.930826
-2.5314977,-6.387075,-22.289776,15.716326,-196.65529,28.586071
-1.3856037,-6.6556506,-21.879225,24.28343,-226.16138,37.394356
-0.08669251,-6.75613,-21.078194,34.319675,-251.64497,47.319874
1.3702387,-6.4205136,-19.761501,42.362274,-274.4631,56.427097
3.3736238,-5.3177953,-17.372604,44.086693,-291.61694,63.539032
5.5110507,-4.0874176,-14.278212,44.32489,-297.1761,67.14507
7.350786,-2.9787831,-10.982641,46.995243,-291.3113,67.579895
8.784708,-1.8944075,-7.8886285,49.916557,-277.74167,66.39661
9.929164,-0.80700856,-5.138581,51.76286,-256.04153,62.861237
10.6931505,0.18505573,-3.0083055,51.909996,-230.82861,58.46856
11.145815,0.98866624,-1.4983035,50.504898,-203.94424,52.722263
11.373392,1.5301865,-0.5299384,48.450653,-176.7486,45.983837
11.4551525,1.8284097,0.021784483,45.86693,-150.16344,38.94791
11.455682,1.9554169,0.29369453,43.50722,-123.33446,31.387741
11.356373,1.9458467,0.23745681,40.859867,-98.23065,24.168459
11.185648,1.8694938,-0.0023481625,37.79224,-75.664986,17.85518
10.969309,1.7690656,-0.35813233,34.13264,-55.43993,12.421504
10.7139,1.6489465,-0.82546514,30.702032,-37.467873,7.3589797
10.394591,1.4911153,-1.4116893,27.164112,-22.319593,2.8617852
9.973966,1.289974,-2.1220512,24.033731,-10.86579,-0.6858928
9.482246,1.1053873,-2.8887813,22.04697,-2.5186925,-3.5589104
8.933774,0.96300143,-3.682803,20.70592,2.6336741,-6.0393085
8.363056,0.86458117,-4.4638424,19.73417,4.7842035,-8.321742
7.792149,0.8141137,-5.2078266,18.09285,3.1730309,-10.431552
7.251385,0.8016175,-5.8878703,16.258957,-0.84021693,-12.527832
6.749551,0.80859643,-6.4952292,14.086477,-7.0915565,-14.728055
6.282588,0.8334764,-7.0393143,11.583341,-14.996506,-17.062637
5.8447766,0.8841767,-7.511887,8.459776,-24.76287,-19.595171
5.4690876,0.9685266,-7.8954043,5.0095124,-37.0765,-22.917637
5.2470293,1.0946064,-8.105341,1.8513263,-50.22463,-27.007156
5.2013226,1.1935434,-8.169757,-2.3008096,-64.21186,-31.323933
5.348977,1.149253,-8.03459,-6.29143,-77.14461,-35.886257
5.6233673,0.9436346,-7.77422,-9.386741,-88.54699,-40.296368
5.990443,0.6061026,-7.406109,-11.559451,-98.01662,-44.07467
6.374427,0.18579786,-6.914887,-12.913818,-105.00539,-45.44933
6.7103105,-0.20435834,-6.34451,-13.787248,-109.90745,-44.75992
6.967139,-0.557826,-5.7237678,-13.903737,-113.01444,-43.179066
7.19156,-0.9159966,-5.0419226,-12.923615,-113.94664,-41.409275
7.3976073,-1.2810792,-4.335599,-10.190236,-112.15675,-39.39339
7.5837655,-1.6020404,-3.648676,-7.009237,-108.72584,-36.639072
7.7410293,-1.8627026,-3.0195277,-3.5638735,-103.9438,-33.19903
7.878599,-2.051732,-2.471988,-0.10868502,-97.79455,-29.182917
7.985107,-2.1896646,-2.0375698,3.1128783,-90.4581,-24.810083
8.043249,-2.3047872,-1.7199743,6.184224,-81.61237,-19.977669
8.009209,-2.3984652,-1.5607581,9.243943,-72.15441,-14.796513
7.922911,-2.4714777,-1.504141,12.262784,-62.246502,-9.049694
7.7976804,-2.502596,-1.5419561,15.285905,-52.19736,-2.8083253
7.634305,-2.4677258,-1.6586,18.293667,-42.24693,3.6194768
7.4287953,-2.3589623,-1.8418368,21.438446,-33.05558,9.9154005
7.1846766,-2.1715615,-2.068737,24.308027,-24.851637,15.987784
6.925847,-1.9415431,-2.310347,27.193937,-17.74823,21.57671
6.6486187,-1.6550465,-2.5556512,29.816942,-11.918217,26.363262
6.3513064,-1.3011088,-2.7966037,31.915318,-7.3689284,29.967793
6.0411882,-0.89312774,-3.0253243,33.152622,-4.871433,31.603413
5.7580276,-0.45028165,-3.2108545,33.717808,-3.7506258,31.829243
5.536065,0.0034748793,-3.3435576,33.53745,-3.5820663,30.895271
5.379938,0.4938568,-3.4208927,32.75323,-3.4941027,29.17289
5.2478004,1.0279224,-3.4746273,30.839302,-3.688014,26.531708
5.110958,1.583091,-3.4984322,27.963764,-3.9693854,22.252153
4.9620323,2.1706243,-3.5142179,24.0983,-4.4348702,16.662558
4.819352,2.720078,-3.535421,19.17427,-5.1658,9.980883
4.69402,3.1926813,-3.5722628,13.45087,-6.143115,2.3756936
4.5893664,3.5442126,-3.6293957,7.2066565,-7.5956864,-6.099958
4.5305467,3.7133706,-3.6879683,0.9508842,-9.295239,-15.074445
4.585186,3.5574012,-3.7525144,-5.0953655,-11.74378,-23.999523
4.767957,3.1297545,-3.7646282,-11.414665,-14.254784,-30.749594
5.0108666,2.5005288,-3.709582,-16.92767,-16.034626,-34.987354
5.2413993,1.8044925,-3.6140513,-21.111177,-16.721598,-36.85083
5.3942947,1.1536366,-3.5189252,-23.253372,-16.234943,-36.920803
5.4072466,0.6069348,-3.4488418,-23.62772,-15.345454,-36.332493
5.3282185,0.18953755,-3.3811648,-22.621246,-14.203466,-35.35079
5.1620445,-0.08762463,-3.3193123,-20.948301,-13.148608,-34.121674
4.9371514,-0.25429526,-3.2571917,-19.321808,-12.410763,-32.547474
4.6985383,-0.35270312,-3.1848848,-18.215094,-12.127459,-30.345327
4.4772778,-0.40216812,-3.0945714,-17.218958,-12.060801,-28.289083
4.2942743,-0.44416,-2.990457,-16.462223,-11.869538,-26.247105
4.1422625,-0.49156368,-2.8822954,-15.656865,-11.421559,-24.264896
4.012117,-0.47611928,-2.7917366,-15.164943,-11.062706,-23.502518
3.8861325,-0.46116865,-2.7040734,-14.688748,-10.715326,-22.764517
3.7641697,-0.4466953,-2.6192086,-14.227756,-10.379036,-22.050074
3.646094,-0.43268323,-2.5370486,-13.781456,-10.053463,-21.3584
3.5317767,-0.41911715,-2.4575033,-13.34936,-9.738253,-20.688742
3.4210927,-0.40598223,-2.3804865,-12.930998,-9.433062,-20.040367
3.3139222,-0.3932643,-2.3059144,-12.525917,-9.137557,-19.412575
3.2101495,-0.38094956,-2.233707,-12.133678,-8.851423,-18.804688
3.1096635,-0.36902484,-2.163786,-11.753863,-8.57435,-18.216051
3.0123565,-0.3574774,-2.0960772,-11.386064,-8.306044,-17.646038
2.9181252,-0.3462949,-2.0305085,-11.029888,-8.046217,-17.094042
2.826869,-0.33546552,-1.9670101,-10.68496,-7.7945943,-16.559475
2.738492,-0.3249778,-1.9055151,-10.350914,-7.55091,-16.04177
2.652901,-0.31482068,-1.8459586,-10.027398,-7.314908,-15.540389
2.570006,-0.3049835,-1.788278,-9.714072,-7.086339,-15.054799
2.48972,-0.29545593,-1.7324129,-9.410609,-6.864965,-14.584494
2.4119594,-0.28622806,-1.678305,-9.116691,-6.6505537,-14.128981
2.3366432,-0.27729025,-1.625898,-8.832011,-6.4428825,-13.687787
2.263693,-0.26863325,-1.5751374,-8.556275,-6.2417355,-13.260454
2.1930335,-0.26024804,-1.5259706,-8.289197,-6.046904,-12.846538
2.124591,-0.25212598,-1.4783466,-8.0305,-5.8581867,-12.445611
2.0582957,-0.24425866,-1.4322164,-7.7799172,-5.6753883,-12.05726
1.9940785,-0.23663798,-1.3875325,-7.5371904,-5.498321,-11.681083
1.9318738,-0.22925612,-1.3442488,-7.3020697,-5.3268023,-11.316695
1.8716177,-0.2221055,-1.302321,-7.074314,-5.1606565,-10.963721
1.8132482,-0.21517879,-1.2617059,-6.85369,-4.999713,-10.621799
1.7567058,-0.20846887,-1.2223622,-6.6399717,-4.8438067,-10.29058
1.7019324,-0.20196891,-1.1842495,-6.4329405,-4.6927795,-9.969725
1.6488726,-0.19567227,-1.1473291,-6.2323856,-4.546476,-9.658906
1.5974718,-0.18957253,-1.1115631,-6.0381017,-4.4047475,-9.357806
1.5476781,-0.18366349,-1.0769153,-5.8498917,-4.26745,-9.06612
1.4994404,-0.17793912,-1.0433502,-5.667564,-4.1344433,-8.78355
1.4527102,-0.1723936,-1.0108341,-5.4909334,-4.005593,-8.509809
1.4074396,-0.16702133,-0.9793336,-5.3198204,-3.8807669,-8.244619
1.3635828,-0.16181685,-0.94881696,-5.1540513,-3.7598398,-7.9877114
1.3210956,-0.15677486,-0.9192532,-4.9934587,-3.6426888,-7.7388263
1.2799348,-0.1518903,-0.8906124,-4.8378797,-3.529195,-7.4977107
1.2400587,-0.14715819,-0.86286557,-4.6871567,-3.4192438,-7.2641215
1.2014271,-0.14257376,-0.8359847,-4.541137,-3.3127239,-7.037822
1.164001,-0.1381324,-0.80994254,-4.3996744,-3.2095277,-6.8185835
1.1277424,-0.13382958,-0.7847129,-4.2626247,-3.1095512,-6.6061854
1.0926149,-0.129661,-0.7602703,-4.1298504,-3.0126934,-6.4004126
1.058583,-0.12562242,-0.73659,-4.0012174,-2.9188566,-6.201058
1.0256126,-0.121709794,-0.71364826,-3.876596,-2.8279462,-6.0079203
0.9936701,-0.11791917,-0.69142187,-3.7558603,-2.7398705,-5.820805
0.9627236,-0.11424674,-0.6698885,-3.6388893,-2.654541,-5.6395245
0.93274194,-0.110688806,-0.64902645,-3.525565,-2.5718718,-5.463895
0.9036948,-0.10724177,-0.6288147,-3.415773,-2.4917796,-5.2937403
0.87555313,-0.10390219,-0.60923296,-3.3094034,-2.4141836,-5.1288896
0.84828854,-0.10066669,-0.5902615,-3.2063491,-2.3390064,-4.969177
0.8218736,-0.09753203,-0.57188135,-3.1065063,-2.266172,-4.814441
0.7962819,-0.09449504,-0.5540739,-3.0097752,-2.1956072,-4.664528
0.7714876,-0.0915527,-0.5368214,-2.916058,-2.1272414,-4.5192857
0.74746585,-0.08870203,-0.5201065,-2.8252609,-2.0610056,-4.378569
0.72419256,-0.085940175,-0.50391227,-2.7372928,-1.9968336,-4.2422366
0.7016443,-0.083264366,-0.48822263,-2.6520653,-1.9346607,-4.110152
0.6797985,-0.08067192,-0.47302172,-2.5694928,-1.8744247,-3.9821813
0.65863323,-0.07816023,-0.45829436,-2.4894927,-1.8160652,-3.8581977
0.6381272,-0.07572678,-0.44402575,-2.4119842,-1.7595235,-3.738076
0.61825997,-0.07336912,-0.4302016,-2.3368902,-1.704743,-3.6216958
0.5990115,-0.0710849,-0.416808,-2.2641354,-1.6516688,-3.5089405
0.58036256,-0.068871826,-0.40383157,-2.1936462,-1.6002476,-3.399697
0.5622944,-0.06672767,-0.39125928,-2.1253526,-1.5504279,-3.2938561
0.544789,-0.0646503,-0.37907857,-2.0591857,-1.5021598,-3.1913114
0.5278287,-0.06263761,-0.36727715,-1.9950796,-1.4553949,-3.09196
0.51139665,-0.060687613,-0.35584328,-1.9329698,-1.4100863,-2.9957025
0.49547622,-0.05879833,-0.34476542,-1.8727942,-1.3661885,-2.9024427
0.48005158,-0.056967888,-0.33403257,-1.8144922,-1.3236578,-2.812087
0.46510726,-0.055194438,-0.3236339,-1.7580059,-1.2824514,-2.7245448
0.45062828,-0.05347621,-0.31355906,-1.7032784,-1.2425282,-2.6397285
0.43660012,-0.051811486,-0.3037979,-1.650255,-1.203848,-2.5575533
0.42300877,-0.050198596,-0.29434067,-1.5988826,-1.1663723,-2.4779367
0.40984058,-0.048635922,-0.2851779,-1.5491097,-1.1300633,-2.400799
0.39708242,-0.047121905,-0.27630043,-1.5008866,-1.0948849,-2.3260632
0.38472146,-0.045655027,-0.26769936,-1.4541647,-1.0608017,-2.253654
0.37274536,-0.04423382,-0.25936607,-1.4088978,-1.0277798,-2.1834996
0.36114213,-0.04285686,-0.25129223,-1.36504,-0.9957859,-2.115529
0.34990016,-0.04152277,-0.24346976,-1.3225477,-0.96478814,-2.049675
0.33900818,-0.040230215,-0.23589084,-1.2813784,-0.9347554,-1.985871
0.3284553,-0.038977902,-0.22854786,-1.2414907,-0.9056577,-1.9240533
0.31823096,-0.037764575,-0.22143349,-1.2028449,-0.87746584,-1.8641603
0.3083249,-0.036589023,-0.2145406,-1.1654022,-0.8501517,-1.8061318
0.29872727,-0.035450067,-0.20786232,-1.1291251,-0.82368785,-1.7499099
0.2894284,-0.034346566,-0.20139192,-1.0939775,-0.7980479,-1.6954383
0.28041902,-0.033277422,-0.19512296,-1.0599239,-0.7732061,-1.6426624
0.27169013,-0.03224156,-0.18904915,-1.0269306,-0.7491377,-1.5915295
0.26323295,-0.031237945,-0.18316443,-0.99496424,-0.7258186,-1.5419884
0.25503907,-0.030265573,-0.1774629,-0.9639931,-0.7032253,-1.4939895
0.24710025,-0.02932347,-0.17193887,-0.93398607,-0.68133545,-1.4474849
0.23940857,-0.028410695,-0.1665868,-0.9049131,-0.660127,-1.4024278
0.23195632,-0.027526336,-0.16140133,-0.8767453,-0.63957876,-1.3587735
0.22473606,-0.026669506,-0.15637729,-0.8494542,-0.61967015,-1.316478
0.21774058,-0.02583935,-0.15150964,-0.82301277,-0.6003813,-1.2754992
0.21096285,-0.025035033,-0.14679351,-0.7973944,-0.58169293,-1.2357961
0.2043961,-0.024255756,-0.14222421,-0.77257353,-0.5635863,-1.1973288
0.19803378,-0.023500735,-0.13779713,-0.74852526,-0.5460433,-1.1600591
