ax,ay,az,gx,gy,gz
11.501924,8.726443,-10.792825,-42.392204,464.81512,-234.76576
11.046457,6.4882665,-14.118171,-46.883762,483.7027,-265.20212
10.311107,4.490369,-16.777449,-47.334656,478.4956,-279.73776
9.293415,2.9225304,-19.091995,-51.24138,446.3755,-283.15607
8.017738,1.688857,-20.987926,-54.450317,406.94263,-278.6012
7.0195465,0.88277936,-22.527327,-55.590492,362.87985,-270.72665
6.317536,0.17288543,-23.802547,-57.264896,317.0543,-261.06937
5.7611465,-0.6642849,-24.831932,-55.023537,272.26422,-250.95749
5.2420626,-1.5030577,-25.709757,-45.74963,223.32674,-240.4541
4.851892,-2.0577369,-26.330376,-32.763615,175.51279,-230.85646
4.560044,-2.3759234,-26.793453,-19.813032,128.10313,-221.39262
4.3184667,-2.5892453,-27.22125,-9.151058,79.05389,-211.8629
4.199783,-2.7200572,-27.702068,-3.5440545,26.203865,-201.5135
4.2362094,-2.793174,-28.21894,-2.6410723,-33.772625,-192.09001
4.738483,-2.7327175,-28.566624,-0.814732,-93.46328,-185.86708
5.7781234,-2.6177375,-28.634552,2.0408216,-153.41528,-182.15446
7.7339497,-2.6995838,-27.746471,5.477419,-208.39893,-177.80647
10.436163,-3.0426629,-25.302418,12.924365,-237.78886,-170.14508
12.713849,-3.4904387,-22.55098,32.128838,-240.56131,-164.44942
14.32357,-3.3162494,-20.243324,42.28775,-238.49669,-155.34691
15.90845,-2.9197264,-17.869139,44.324963,-230.36125,-141.60094
17.322031,-2.5149121,-15.508765,44.57447,-213.27245,-129.18483
18.293718,-2.21068,-13.583237,44.601124,-189.38876,-119.58271
18.763437,-2.1071234,-12.205398,42.727753,-161.12193,-112.48995
18.90078,-2.2605438,-11.341585,41.093616,-131.45598,-104.65825
18.80563,-2.5223749,-10.865658,41.86462,-103.10289,-94.98904
18.543633,-2.76627,-10.614061,44.357517,-75.38901,-85.083565
18.18499,-2.9445975,-10.556548,48.10201,-48.2231,-75.34804
17.766624,-3.0040863,-10.645537,51.823547,-22.125383,-65.437614
17.379501,-2.815303,-10.859069,54.193207,3.1948404,-56.19482
16.869993,-2.4281852,-11.281705,53.697998,25.172915,-48.238194
16.118914,-1.9123214,-11.847173,53.959305,40.658737,-40.479023
15.153819,-1.2379203,-12.329616,54.591778,49.81836,-33.692795
14.156938,-0.3757185,-12.66831,54.444023,53.331593,-29.2482
13.249246,0.6875387,-12.865775,51.905403,53.495647,-27.39886
12.464512,1.7249672,-12.967188,48.317627,51.864803,-29.452044
11.785847,2.6044896,-13.0398,43.860767,48.446503,-34.74649
11.23111,3.321369,-13.076095,38.984917,43.52245,-41.78263
10.800338,3.9890687,-13.08714,32.602562,37.060368,-51.594883
10.466992,4.535761,-13.134049,25.266283,29.30443,-63.36463
10.212937,4.8839955,-13.19766,16.899979,20.312416,-75.6641
10.095641,5.0014734,-13.236091,7.0326085,10.506549,-86.82634
10.133952,4.809326,-13.211906,-3.520387,0.5093568,-96.01462
10.375344,4.2680545,-13.013091,-12.749869,-6.8838673,-101.83538
10.750823,3.4423807,-12.624437,-20.111725,-11.372671,-105.13494
11.022573,2.5415459,-12.228134,-25.156412,-13.929858,-106.47427
11.159581,1.644181,-11.846038,-28.389818,-15.581038,-105.53581
11.168582,0.8244564,-11.476683,-30.543627,-16.384293,-102.234344
11.037572,0.14749686,-11.143626,-30.619738,-16.158646,-96.98615
10.741396,-0.31324857,-10.868673,-29.682999,-15.712203,-90.53795
10.350719,-0.57833666,-10.63411,-28.327803,-15.633105,-83.29723
10.003331,-0.55892664,-10.277211,-27.377071,-15.108431,-80.50163
9.669148,-0.54025453,-9.933879,-26.46248,-14.603701,-77.8123
9.347527,-0.5222842,-9.603451,-25.582268,-14.117943,-75.22405
9.037865,-0.5049822,-9.285311,-24.734787,-13.650249,-72.732056
8.739602,-0.48831704,-8.978883,-23.918505,-13.199771,-70.3318
8.452215,-0.47225955,-8.683627,-23.131985,-12.765718,-68.01906
8.175212,-0.45678225,-8.39904,-22.373884,-12.34735,-65.78988
7.908132,-0.4418594,-8.124648,-21.642939,-11.943968,-63.640556
7.650542,-0.4274668,-7.860005,-20.937967,-11.554919,-61.567604
7.4020348,-0.4135817,-7.6046944,-20.257854,-11.179589,-59.56775
7.162227,-0.40018266,-7.3583207,-19.601551,-10.817398,-57.637897
6.930757,-0.3872495,-7.120513,-18.968063,-10.467799,-55.775146
6.7072825,-0.37476307,-6.89092,-18.35646,-10.130277,-53.976738
6.4914804,-0.36270532,-6.6692095,-17.765854,-9.804342,-52.240074
6.283045,-0.3510592,-6.4550676,-17.195408,-9.489533,-50.562695
6.0816855,-0.33980843,-6.248195,-16.64433,-9.185413,-48.94226
5.887128,-0.3289377,-6.0483108,-16.111864,-8.891564,-47.37656
5.69911,-0.31843236,-5.855145,-15.597298,-8.607594,-45.863487
5.517383,-0.30827856,-5.6684427,-15.099949,-8.333124,-44.401043
5.3417106,-0.29846305,-5.487961,-14.619169,-8.0678,-42.987324
5.171868,-0.2889732,-5.3134675,-14.154345,-7.8112783,-41.620518
5.007639,-0.2797971,-5.1447425,-13.704885,-7.5632377,-40.29889
4.8488197,-0.27092323,-4.981575,-13.270228,-7.3233666,-39.020794
4.6952143,-0.26234066,-4.823764,-12.84984,-7.0913696,-37.784653
4.5466347,-0.2540389,-4.6711164,-12.443209,-6.866964,-36.588963
4.402902,-0.24600801,-4.523449,-12.049843,-6.6498795,-35.43228
4.263846,-0.23823836,-4.380585,-11.669274,-6.439857,-34.31323
4.1293015,-0.23072082,-4.2423573,-11.301053,-6.236649,-33.230484
3.9991114,-0.22344658,-4.1086025,-10.94475,-6.040018,-32.18278
3.873125,-0.21640721,-3.979167,-10.599951,-5.8497357,-31.168907
3.7511978,-0.20959464,-3.8539014,-10.266261,-5.665584,-30.1877
3.6331904,-0.20300108,-3.7326632,-9.943299,-5.487353,-29.238037
3.5189698,-0.19661911,-3.6153152,-9.6307,-5.314841,-28.318848
3.4084074,-0.19044155,-3.5017257,-9.328114,-5.147854,-27.4291
3.3013802,-0.18446149,-3.3917682,-9.035202,-4.9862065,-26.567799
3.1977692,-0.17867233,-3.2853205,-8.75164,-4.8297186,-25.733994
3.0974607,-0.17306769,-3.1822658,-8.477117,-4.678219,-24.926762
3.0003448,-0.16764143,-3.082491,-8.21133,-4.531541,-24.145224
2.9063156,-0.16238764,-2.9858873,-7.9539914,-4.3895245,-23.388525
2.8152711,-0.15730062,-2.8923502,-7.7048216,-4.2520165,-22.655848
2.7271135,-0.1523749,-2.8017788,-7.463552,-4.1188684,-21.9464
2.6417477,-0.14760517,-2.7140758,-7.2299232,-3.9899373,-21.259418
2.5590827,-0.14298633,-2.6291475,-7.003686,-3.865085,-20.594173
2.4790304,-0.13851348,-2.5469034,-6.784599,-3.7441785,-19.949955
2.4015057,-0.13418187,-2.4672563,-6.57243,-3.6270902,-19.326077
2.326427,-0.12998691,-2.390122,-6.366955,-3.5136957,-18.721882
2.253715,-0.1259242,-2.3154192,-6.167957,-3.4038758,-18.136732
2.183293,-0.121989444,-2.2430694,-5.975227,-3.297515,-17.570015
2.115088,-0.11817855,-2.1729968,-5.7885633,-3.1945019,-17.021135
2.0490282,-0.114487514,-2.1051283,-5.607771,-3.0947292,-16.48952
1.985045,-0.11091251,-2.0393932,-5.432662,-2.9980927,-15.974615
1.9230717,-0.107449815,-1.9757233,-5.263054,-2.9044921,-15.475886
1.8630444,-0.10409585,-1.9140524,-5.0987716,-2.8138304,-14.992818
1.8049008,-0.100847125,-1.8543168,-4.939644,-2.7260137,-14.524907
1.7485808,-0.0977003,-1.7964549,-4.7855077,-2.6409514,-14.071673
1.6940265,-0.09465213,-1.740407,-4.6362042,-2.5585558,-13.632649
1.6411818,-0.09169948,-1.6861155,-4.491579,-2.4787426,-13.207382
1.5899924,-0.08883933,-1.6335247,-4.3514843,-2.4014292,-12.795437
1.540406,-0.08606873,-1.5825806,-4.215776,-2.3265367,-12.39639
1.4923716,-0.08338485,-1.533231,-4.084316,-2.2539883,-12.009834
1.4458401,-0.08078495,-1.4854256,-3.9569685,-2.18371,-11.635373
1.4007642,-0.078266375,-1.4391155,-3.833605,-2.1156301,-11.272626
1.3570979,-0.07582656,-1.3942536,-3.7140992,-2.049679,-10.921222
1.3147966,-0.073463015,-1.3507942,-3.5983293,-1.9857898,-10.580803
1.2738174,-0.07117334,-1.308693,-3.4861777,-1.9238973,-10.251023
1.2341186,-0.06895521,-1.2679074,-3.37753,-1.8639387,-9.931548
1.19566,-0.06680637,-1.2283958,-3.2722769,-1.805853,-9.622053
1.1584024,-0.06472465,-1.1901182,-3.1703105,-1.7495816,-9.322224
1.1223084,-0.062707916,-1.1530359,-3.0715284,-1.6950672,-9.031757
1.0873411,-0.060754154,-1.1171112,-2.97583,-1.6422546,-8.750359
1.0534651,-0.05886137,-1.0823078,-2.8831186,-1.5910906,-8.477743
1.0206466,-0.05702766,-1.0485907,-2.7933009,-1.5415232,-8.213635
0.9888519,-0.055251166,-1.0159255,-2.7062855,-1.4935026,-7.957769
0.9580493,-0.053530097,-0.9842796,-2.621985,-1.4469801,-7.709885
0.92820746,-0.051862717,-0.95362073,-2.540314,-1.4019089,-7.4697337
0.89929646,-0.05024734,-0.9239182,-2.4611905,-1.3582433,-7.237073
0.87128705,-0.04868234,-0.8951419,-2.3845344,-1.3159397,-7.0116677
0.8441511,-0.047166143,-0.86726296,-2.3102686,-1.274955,-6.793291
0.81786114,-0.045697216,-0.84025323,-2.2383187,-1.2352483,-6.581723
0.7923908,-0.044274088,-0.81408554,-2.1686115,-1.1967795,-6.3767514
0.7677145,-0.04289532,-0.7887336,-2.1010776,-1.1595099,-6.178169
0.7438073,-0.04155953,-0.7641719,-2.0356483,-1.1234019,-5.9857764
0.72064525,-0.040265374,-0.7403757,-1.9722587,-1.0884193,-5.7993803
0.69820505,-0.03901155,-0.7173211,-1.9108444,-1.054527,-5.618793
0.67646414,-0.037796795,-0.694985,-1.851344,-1.0216908,-5.4438334
0.6554007,-0.036619894,-0.6733448,-1.7936976,-0.9898778,-5.274326
0.6349935,-0.035479665,-0.6523789,-1.7378473,-0.9590561,-5.1100993
0.61522216,-0.034374956,-0.63206625,-1.6837373,-0.9291946,-4.9509897
0.5960668,-0.03330467,-0.61238647,-1.6313128,-0.9002635,-4.7968373
0.57750815,-0.032267723,-0.5933197,-1.5805217,-0.8722337,-4.647487
0.55952764,-0.03126308,-0.57484686,-1.5313127,-0.845077,-4.502789
0.5421072,-0.03028973,-0.5569495,-1.4836366,-0.81876624,-4.3625984
0.52522945,-0.029346699,-0.5396096,-1.4374455,-0.793275,-4.2267747
0.50887734,-0.02843304,-0.5228098,-1.3926932,-0.76857775,-4.0951815
0.4930345,-0.027547838,-0.50653327,-1.3493346,-0.7446497,-3.9676867
0.47768512,-0.026690204,-0.4907636,-1.3073264,-0.7214669,-3.8441627
0.46281376,-0.025859281,-0.4754851,-1.2666266,-0.69900614,-3.7244856
0.44840553,-0.025054235,-0.46068236,-1.2271942,-0.6772448,-3.6085358
0.43444598,-0.02427426,-0.44634062,-1.1889898,-0.6561611,-3.4961965
0.42092115,-0.023518572,-0.4324455,-1.1519752,-0.6357341,-3.3873558
0.40781748,-0.022786418,-0.41898307,-1.1161131,-0.6159431,-3.2819042
0.39512187,-0.022077061,-0.40593985,-1.0813677,-0.5967683,-3.1797364
0.38282156,-0.021389792,-0.39330277,-1.0477042,-0.5781907,-3.0807498
0.37090424,-0.020723924,-0.38105917,-1.015089,-0.5601915,-2.9848454
0.35935798,-0.020078788,-0.3691968,-0.9834893,-0.54275274,-2.8919272
0.34817123,-0.01945374,-0.35770378,-0.95287347,-0.525857,-2.801902
0.33733281,-0.018848153,-0.3465686,-0.9232109,-0.5094872,-2.71468
0.32683185,-0.01826142,-0.3357801,-0.8944719,-0.4936272,-2.6301734
0.3166578,-0.017692955,-0.32532755,-0.86662763,-0.47826093,-2.5482981
0.3068005,-0.01714219,-0.3152004,-0.8396503,-0.4633731,-2.468972
0.29725015,-0.016608572,-0.3053885,-0.81351286,-0.44894877,-2.3921154
0.2879971,-0.016091567,-0.29588214,-0.7881891,-0.43497354,-2.3176517
0.2790321,-0.015590657,-0.2866717,-0.7636538,-0.42143336,-2.2455063
0.27034625,-0.015105342,-0.27774802,-0.7398824,-0.40831473,-2.1756067
0.2619308,-0.014635135,-0.26910216,-0.716851,-0.39560452,-2.1078835
0.25377733,-0.014179568,-0.26072544,-0.69453657,-0.38329002,-2.0422685
0.24587767,-0.013738182,-0.25260952,-0.6729169,-0.37135887,-1.9786962
0.23822394,-0.013310538,-0.24474625,-0.6519702,-0.35979915,-1.917103
0.2308085,-0.012896206,-0.23712777,-0.63167566,-0.34859928,-1.8574274
0.22362389,-0.012494774,-0.22974646,-0.61201286,-0.3377481,-1.7996094
0.21666294,-0.012105837,-0.22259493,-0.59296215,-0.32723472,-1.7435913
0.2099187,-0.0117290085,-0.21566603,-0.5745045,-0.31704858,-1.6893171
0.20338438,-0.0113639105,-0.20895283,-0.5566215,-0.30717957,-1.6367323
0.1970535,-0.011010178,-0.2024486,-0.53929514,-0.29761776,-1.5857847
0.19091968,-0.010667457,-0.19614685,-0.52250814,-0.28835362,-1.5364228
0.18497682,-0.010335405,-0.19004127,-0.5062437,-0.27937788,-1.4885978
0.17921895,-0.010013689,-0.18412575,-0.49048558,-0.27068153,-1.4422613
0.17364031,-0.009701988,-0.17839438,-0.475218,-0.2622559,-1.3973674
0.16823533,-0.00939999,-0.17284141,-0.46042567,-0.25409254,-1.3538709
