ax,ay,az,gx,gy,gz
0.58273256,3.0191185,-8.691897,3.4954863,-23.138391,5.937327
0.6791063,3.0714734,-9.115048,5.0871305,-23.978693,13.868441
0.4502705,3.0855396,-9.6628,-0.04801811,-40.628624,17.907549
0.1818951,3.1735382,-9.895415,-3.9808486,-56.81564,18.11085
0.06945032,3.6444058,-9.941701,-4.6886215,-71.59367,12.189079
0.09601967,4.196744,-9.938771,-6.458102,-85.30043,2.202412
0.0904505,4.441843,-10.007742,-11.068035,-99.43408,-8.565562
-0.012274967,4.33467,-10.151787,-16.656887,-116.897705,-18.725813
-0.064184524,4.022727,-10.240851,-21.309843,-136.40431,-27.750546
0.1319351,3.7513719,-10.06677,-23.000196,-155.12044,-36.214916
0.61193573,3.603216,-9.728108,-26.491005,-173.88766,-44.51344
1.4439224,3.3401718,-9.164572,-33.96824,-191.27194,-51.205692
2.4617214,2.7801154,-8.375769,-39.015175,-200.48636,-56.103806
3.1623986,1.9452199,-7.5839157,-38.496334,-204.39133,-59.79606
3.5386093,1.2989105,-6.8637514,-34.152454,-206.91228,-61.98067
3.8079698,1.00202,-6.0908875,-30.516144,-209.29259,-62.61155
4.0897655,0.93341416,-5.239918,-29.231724,-210.66617,-61.902073
4.4103274,0.90463436,-4.389962,-29.409727,-208.9424,-60.842392
4.6986284,0.7328483,-3.5958056,-28.162426,-204.42845,-59.676598
4.898587,0.5622065,-2.8938577,-26.652658,-198.33243,-57.971626
4.9863586,0.3805715,-2.2410939,-25.309036,-191.99443,-55.04675
4.8559813,0.26201496,-1.4923042,-23.834091,-190.73499,-51.88291
5.445465,0.18419681,-0.23746474,-31.737297,-189.27545,-47.92423
6.417559,-0.4619574,0.91974014,-33.120667,-175.76639,-42.613567
6.5195484,-0.81121993,1.3155905,-26.047768,-158.31079,-40.374596
6.2467294,-0.8378384,1.4242469,-20.330372,-144.46132,-38.15922
6.074063,-0.7867399,1.5902508,-18.26343,-133.24892,-33.26404
6.009333,-0.81337243,1.7786117,-16.877,-122.468285,-26.488108
5.750548,-0.77834547,1.7020178,-16.150211,-117.19433,-25.347427
5.5078506,-0.74549603,1.6301854,-15.468604,-112.24823,-24.277658
5.279743,-0.71462137,1.5626714,-14.827973,-107.59948,-23.272202
5.0649157,-0.6855441,1.4990877,-14.224636,-103.22135,-22.325277
4.862214,-0.6581081,1.4390932,-13.655357,-99.09037,-21.431805
4.6706223,-0.63217586,1.3823868,-13.117278,-95.18578,-20.5873
4.489238,-0.6076252,1.3287016,-12.607866,-91.48923,-19.787788
4.317259,-0.5843476,1.2778002,-12.124869,-87.98435,-19.029736
4.1539702,-0.5622462,1.2294708,-11.666279,-84.65658,-18.309986
3.99873,-0.5412342,1.1835237,-11.230292,-81.492836,-17.625715
3.8509626,-0.5212337,1.1397883,-10.815293,-78.481384,-16.974382
3.7101493,-0.5021744,1.098111,-10.419824,-75.61166,-16.3537
3.575821,-0.48399284,1.0583532,-10.042567,-72.874084,-15.761604
3.4475527,-0.46663153,1.020389,-9.68233,-70.26002,-15.196219
3.3249578,-0.45003814,0.98410404,-9.338027,-67.76157,-14.655843
3.2076852,-0.43416512,0.9493942,-9.008671,-65.3716,-14.138926
3.0954132,-0.41896892,0.9161646,-8.693359,-63.08353,-13.64405
2.987848,-0.4044098,0.88432795,-8.391266,-60.891384,-13.16992
2.8847194,-0.3904512,0.8538045,-8.101633,-58.78966,-12.715348
2.78578,-0.37705958,0.8245209,-7.8237643,-56.7733,-12.279239
2.6908004,-0.36420396,0.7964093,-7.5570183,-54.83765,-11.860586
2.59957,-0.35185578,0.76940745,-7.300801,-52.978405,-11.458458
2.5118937,-0.33998865,0.74345744,-7.054565,-51.19159,-11.071996
2.4275901,-0.32857803,0.7185057,-6.817801,-49.473507,-10.700399
2.346491,-0.31760117,0.6945024,-6.590038,-47.820736,-10.34293
2.2684405,-0.3070369,0.6714014,-6.3708353,-46.23009,-9.998896
2.1932924,-0.2968655,0.64915943,-6.1597843,-44.698597,-9.667656
2.1209106,-0.28706852,0.6277363,-5.956503,-43.22348,-9.34861
2.0511682,-0.27762875,0.6070942,-5.7606335,-41.80215,-9.041197
1.9839455,-0.26853007,0.587198,-5.571841,-40.432175,-8.744891
1.9191309,-0.2597573,0.56801456,-5.3898115,-39.111275,-8.4592
1.8566195,-0.25129628,0.54951274,-5.2142506,-37.83731,-8.18366
1.7963122,-0.2431336,0.5316633,-5.0448794,-36.60827,-7.9178357
1.7381161,-0.23525669,0.5144387,-4.881438,-35.42225,-7.6613173
1.6819434,-0.22765361,0.497813,-4.7236786,-34.277466,-7.4137173
1.6277109,-0.22031318,0.48176157,-4.5713687,-33.17223,-7.17467
1.5753405,-0.21322475,0.46626124,-4.4242883,-32.104935,-6.9438305
1.5247577,-0.2063783,0.45129,-4.2822285,-31.074076,-6.7208705
1.4758923,-0.19976428,0.43682706,-4.1449914,-30.078213,-6.50548
1.4286774,-0.19337367,0.42285264,-4.01239,-29.115988,-6.297364
1.3830495,-0.18719786,0.40934792,-3.8842459,-28.186106,-6.0962443
1.3389484,-0.18122871,0.3962951,-3.7603893,-27.287338,-5.9018545
1.2963165,-0.17545843,0.38367715,-3.6406593,-26.418516,-5.7139406
1.2550994,-0.16987963,0.3714779,-3.5249023,-25.578524,-5.5322623
1.2152447,-0.16448523,0.3596819,-3.412972,-24.766298,-5.35659
1.1767027,-0.15926851,0.34827444,-3.304728,-23.980825,-5.186703
1.139426,-0.15422304,0.33724147,-3.2000375,-23.221136,-5.0223937
1.1033689,-0.14934267,0.3265695,-3.0987728,-22.486305,-4.8634605
1.0684882,-0.14462152,0.31624568,-3.0008116,-21.775448,-4.7097125
1.0347424,-0.14005396,0.30625772,-2.9060373,-21.087717,-4.5609665
1.0020913,-0.13563459,0.29659384,-2.8143382,-20.4223,-4.417046
0.970497,-0.13135827,0.28724274,-2.7256067,-19.77842,-4.2777843
0.9399229,-0.12722,0.27819356,-2.6397405,-19.155329,-4.1430187
0.9103338,-0.12321507,0.26943594,-2.5566404,-18.55231,-4.012595
0.881696,-0.11933891,0.26095986,-2.4762123,-17.968681,-3.8863645
0.85397714,-0.115587115,0.2527558,-2.3983648,-17.40378,-3.7641845
0.82714605,-0.111955486,0.24481446,-2.3230104,-16.856972,-3.6459177
0.80117285,-0.108439974,0.23712705,-2.2500658,-16.327646,-3.5314324
0.77602875,-0.10503668,0.22968502,-2.1794496,-15.815218,-3.4206016
0.7516861,-0.101741865,0.22248021,-2.111084,-15.319122,-3.3133032
0.7281182,-0.098551914,0.21550469,-2.0448942,-14.838816,-3.2094197
0.7052993,-0.09546334,0.20875089,-1.9808084,-14.373775,-3.1088383
0.6832048,-0.09247282,0.20221148,-1.9187567,-13.923496,-3.0114496
0.6618109,-0.089577116,0.1958794,-1.8586726,-13.487494,-2.9171488
0.6410945,-0.08677312,0.18974787,-1.8004913,-13.065301,-2.8258343
0.6210335,-0.08405784,0.18381032,-1.7441506,-12.656464,-2.7374089
0.60160655,-0.081428364,0.17806043,-1.6895908,-12.260549,-2.6517782
0.582793,-0.07888193,0.1724921,-1.6367537,-11.877135,-2.5688515
0.56457305,-0.07641582,0.16709945,-1.5855834,-11.505817,-2.488541
0.5469274,-0.074027464,0.16187677,-1.5360264,-11.146206,-2.410762
0.5298376,-0.07171433,0.15681861,-1.4880302,-10.79792,-2.335433
0.5132857,-0.069474004,0.15191966,-1.4415448,-10.460598,-2.262475
0.4972544,-0.06730415,0.14717482,-1.3965214,-10.133885,-2.191812
0.48172706,-0.0652025,0.14257911,-1.3529135,-9.817444,-2.1233702
0.46668753,-0.06316687,0.13812779,-1.3106755,-9.510942,-2.0570784
0.45212018,-0.06119516,0.13381623,-1.2697636,-9.214065,-1.9928681
0.43801,-0.059285324,0.12963995,-1.2301357,-8.926503,-1.9306728
0.42434236,-0.05743539,0.12559469,-1.1917506,-8.647962,-1.8704282
0.41110325,-0.055643454,0.12167624,-1.154569,-8.378153,-1.8120725
0.39827898,-0.05390767,0.117880575,-1.1185526,-8.116798,-1.7555454
0.38585645,-0.05222626,0.11420382,-1.0836643,-7.863631,-1.700789
0.3738229,-0.0505975,0.11064219,-1.0498683,-7.6183906,-1.647747
0.362166,-0.04901972,0.10719203,-1.0171304,-7.380827,-1.5963655
0.35087383,-0.04749131,0.103849836,-0.98541677,-7.1506963,-1.5465915
0.3399349,-0.046010707,0.100612186,-0.95469517,-6.927764,-1.4983746
0.329338,-0.044576403,0.09747578,-0.9249342,-6.7118034,-1.4516654
0.31907243,-0.04318694,0.09443742,-0.8961036,-6.502594,-1.4064164
0.30912766,-0.041840903,0.091494024,-0.86817414,-6.299923,-1.3625816
0.29949364,-0.04053692,0.0886426,-0.8411173,-6.1035843,-1.3201165
0.29016057,-0.03927368,0.08588024,-0.81490576,-5.9133797,-1.2789779
0.281119,-0.038049884,0.08320416,-0.78951275,-5.729115,-1.2391242
0.27235973,-0.036864307,0.08061164,-0.7649127,-5.550604,-1.2005149
0.26387393,-0.03571574,0.078100055,-0.74108064,-5.377666,-1.163111
0.255653,-0.034603026,0.07566687,-0.7179924,-5.2101264,-1.1268744
0.24768862,-0.033525035,0.073309615,-0.69562477,-5.047815,-1.0917689
0.23997277,-0.032480683,0.071025915,-0.6739551,-4.8905683,-1.0577587
0.23249765,-0.031468913,0.06881346,-0.65296143,-4.7382274,-1.0248096
0.22525568,-0.030488703,0.06667002,-0.63262266,-4.5906386,-0.9928884
0.21823962,-0.029539065,0.06459344,-0.61291826,-4.4476533,-0.9619627
0.21144234,-0.028619045,0.06258162,-0.5938284,-4.3091273,-0.93200153
0.20485702,-0.027727712,0.060632534,-0.5753338,-4.1749206,-0.9029746
0.19847703,-0.026864171,0.05874422,-0.5574158,-4.0448985,-0.87485266
0.19229595,-0.02602755,0.05691477,-0.5400564,-3.9189298,-0.8476075
0.18630753,-0.025217012,0.05514235,-0.5232382,-3.796888,-0.82121164
0.1805058,-0.024431735,0.05342518,-0.5069442,-3.6786501,-0.7956385
0.17488487,-0.023670934,0.051761527,-0.49115798,-3.5640976,-0.77086246
0.16943912,-0.022933844,0.050149724,-0.47586378,-3.453115,-0.74685854
0.16416308,-0.022219723,0.048588146,-0.46104622,-3.3455908,-0.72360265
0.15905143,-0.021527855,0.04707523,-0.44669035,-3.2414174,-0.7010714
0.15409906,-0.020857545,0.04560945,-0.4327818,-3.1404896,-0.6792422
0.14930099,-0.020208118,0.04418934,-0.41930658,-3.0427063,-0.6580931
0.1446524,-0.019578924,0.042813476,-0.40625116,-2.9479694,-0.6376029
0.14014862,-0.018969331,0.04148047,-0.39360246,-2.856184,-0.61775106
0.13578515,-0.018378727,0.040188994,-0.3813478,-2.7672577,-0.5985176
0.13155758,-0.01780652,0.038937744,-0.36947486,-2.6811016,-0.5798833
0.12746172,-0.017252138,0.037725467,-0.35797173,-2.597629,-0.5618293
0.12349342,-0.016715024,0.03655095,-0.3468269,-2.5167563,-0.54433775
0.11964871,-0.016194636,0.035413012,-0.3360292,-2.4384024,-0.52739096
0.11592375,-0.015690457,0.034310516,-0.32556775,-2.3624887,-0.51097196
0.11231479,-0.015201979,0.033242356,-0.31543213,-2.2889395,-0.49506432
0.10881823,-0.014728714,0.032207463,-0.30561218,-2.2176807,-0.47965205
0.10543056,-0.014270187,0.031204795,-0.296098,-2.1486409,-0.46471977
0.10214838,-0.013825939,0.030233353,-0.2868801,-2.081751,-0.45025247
0.0989684,-0.013395525,0.02929216,-0.27794927,-2.0169444,-0.4362357
0.095887445,-0.012978513,0.028380277,-0.26929653,-1.9541554,-0.4226554
0.09290243,-0.012574486,0.027496787,-0.2609132,-1.8933218,-0.40949795
0.09001036,-0.012183039,0.026640804,-0.25279093,-1.8343823,-0.39675018
0.08720834,-0.011803782,0.025811477,-0.24492154,-1.777278,-0.38439935
0.08449356,-0.011436333,0.02500797,-0.23729718,-1.7219517,-0.3724331
0.08186331,-0.011080324,0.024229484,-0.22991021,-1.668348,-0.3608394
0.07931495,-0.0107354,0.023475233,-0.22275324,-1.6164132,-0.34960666
0.07684594,-0.0104012145,0.022744466,-0.2158191,-1.5660956,-0.33872366
0.074453786,-0.010077435,0.022036452,-0.20910084,-1.5173444,-0.3281795
0.07213612,-0.009763734,0.021350479,-0.20259175,-1.470111,-0.31796363
0.0698906,-0.009459801,0.020685865,-0.1962853,-1.4243482,-0.30806577
0.067715004,-0.00916533,0.02004194,-0.1901752,-1.3800101,-0.2984761
0.06560713,-0.008880026,0.019418063,-0.18425532,-1.3370523,-0.28918496
0.06356488,-0.0086036045,0.018813608,-0.17851974,-1.295432,-0.28018308
0.061586212,-0.008335788,0.018227972,-0.17296271,-1.2551073,-0.27146143
0.05966914,-0.008076309,0.017660568,-0.16757868,-1.216038,-0.2630113
0.057811752,-0.007824909,0.017110826,-0.16236226,-1.178185,-0.25482425
0.056012183,-0.0075813346,0.0165782,-0.15730824,-1.1415104,-0.24689206
0.054268636,-0.007345343,0.016062154,-0.15241155,-1.1059774,-0.23920682
0.052579366,-0.0071166977,0.015562171,-0.14766729,-1.0715506,-0.2317608
0.05094268,-0.00689517,0.015077755,-0.14307073,-1.0381956,-0.2245466
0.049356952,-0.006680539,0.014608418,-0.13861726,-1.0058788,-0.21755695
0.047820583,-0.006472589,0.014153691,-0.13430242,-0.9745681,-0.21078491
0.04633204,-0.0062711127,0.01371312,-0.1301219,-0.9442321,-0.20422366
0.044889834,-0.006075908,0.013286264,-0.12607151,-0.91484046,-0.19786668
0.043492526,-0.0058867796,0.012872695,-0.122147225,-0.88636374,-0.19170758
0.04213871,-0.005703539,0.012472,-0.11834509,-0.85877347,-0.1857402
0.04082704,-0.0055260025,0.012083779,-0.114661306,-0.83204204,-0.17995858
