ax,ay,az,gx,gy,gz
-0.22636569,-0.20909281,-12.498296,-29.796635,-11.319194,5.0491366
-0.38771376,-0.25288355,-13.282896,-35.25855,-31.255909,10.349767
-0.41721436,-0.1834405,-13.539846,-31.537117,-53.463898,10.594802
-0.34200594,0.0078620855,-13.651761,-24.772808,-72.79932,7.9861803
-0.18475041,0.15922442,-13.674499,-20.812284,-89.69828,6.3984084
-0.035354327,0.24375263,-13.681863,-18.256908,-105.89358,6.0061297
0.05233078,0.28403702,-13.731552,-15.990841,-121.07782,6.0984554
0.13774188,0.35541046,-13.780492,-14.004338,-135.92134,6.0453677
0.2513204,0.54300207,-13.767171,-12.917035,-150.88072,4.707016
0.44260067,0.82212716,-13.58287,-13.597017,-165.3864,2.3310874
0.6990517,1.0435508,-13.197842,-15.875545,-178.88078,-0.9662953
1.0902687,1.0855461,-12.582291,-17.904749,-190.70274,-4.7111754
1.635058,1.0345967,-11.794552,-19.370934,-200.44722,-8.331076
2.225728,0.97847235,-10.838305,-20.890491,-207.64972,-11.302609
2.7466283,0.9261953,-9.791008,-23.171926,-212.33943,-13.062307
3.1387465,0.8299819,-8.729794,-25.692675,-214.96097,-13.882999
3.4786062,0.71394664,-7.6353126,-27.885498,-216.0634,-14.696145
3.8492863,0.6143398,-6.562211,-29.72619,-215.4007,-15.600391
4.210483,0.51836824,-5.539312,-31.402899,-212.49329,-16.268314
4.4518433,0.38719413,-4.6363378,-32.409008,-208.16057,-16.974718
4.5901117,0.22495809,-3.8372283,-32.586174,-202.80312,-17.413801
4.658347,0.06528107,-3.1253285,-32.152584,-196.938,-17.495182
4.689728,-0.049776178,-2.494735,-31.205786,-190.69322,-17.309246
4.6878405,-0.11870528,-1.9463267,-29.928762,-184.26958,-17.131966
4.6645827,-0.15525158,-1.4643308,-28.473072,-177.63503,-16.753994
4.6025763,-0.16331625,-1.0449489,-26.894272,-171.11313,-16.29346
4.5369005,-0.13849206,-0.6803216,-25.773985,-164.77979,-15.532347
4.337269,-0.13239816,-0.65038615,-24.639881,-157.52917,-14.848895
4.150489,-0.12669657,-0.622378,-23.578793,-150.74535,-14.209444
3.9753208,-0.12134944,-0.596111,-22.583668,-144.38327,-13.609745
3.8106833,-0.11632377,-0.5714231,-21.648367,-138.40364,-13.046099
3.65563,-0.11159065,-0.5481724,-20.767515,-132.77213,-12.5152645
3.5093293,-0.10712472,-0.5262342,-19.936384,-127.458496,-12.014396
3.3710468,-0.10290355,-0.50549835,-19.150806,-122.43609,-11.5409775
3.2401316,-0.09890728,-0.48586723,-18.407082,-117.68126,-11.092781
3.116005,-0.095118225,-0.46725407,-17.701921,-113.173,-10.667827
2.9981503,-0.09152063,-0.4495814,-17.032394,-108.892525,-10.264344
2.8861048,-0.08810037,-0.43277988,-16.395868,-104.823044,-9.880751
2.779453,-0.084844746,-0.41678715,-15.789982,-100.94946,-9.515621
2.6778204,-0.08174233,-0.401547,-15.212609,-97.25817,-9.167676
2.5808682,-0.0787828,-0.38700873,-14.661827,-93.73688,-8.835754
2.4882896,-0.07595678,-0.37312633,-14.135892,-90.374435,-8.518806
2.3998063,-0.07325576,-0.35985798,-13.633221,-87.16073,-8.2158785
2.315164,-0.070672,-0.34716564,-13.152371,-84.08653,-7.9261007
2.2341313,-0.06819841,-0.33501452,-12.692026,-81.143425,-7.6486797
2.1564953,-0.065828525,-0.3233728,-12.250979,-78.3237,-7.382889
2.0820618,-0.06355639,-0.31221128,-11.828125,-75.620285,-7.1280613
2.0106516,-0.06137654,-0.3015031,-11.422446,-73.02667,-6.8835845
1.9420997,-0.05928395,-0.29122356,-11.033005,-70.53687,-6.648893
1.8762537,-0.057273954,-0.28134975,-10.6589365,-68.145355,-6.4234653
1.8129728,-0.05534226,-0.27186057,-10.299439,-65.84699,-6.206819
1.7521262,-0.053484876,-0.26273647,-9.953772,-63.63705,-5.998507
1.6935927,-0.051698096,-0.25395918,-9.621244,-61.51112,-5.7981143
1.6372591,-0.04997848,-0.24551181,-9.301216,-59.46509,-5.605253
1.5830207,-0.048322808,-0.23737858,-8.993089,-57.495155,-5.4195642
1.5307788,-0.04672809,-0.22954476,-8.696304,-55.597733,-5.240711
1.4804417,-0.045191515,-0.22199656,-8.41034,-53.769497,-5.0683794
1.4319234,-0.04371046,-0.2147211,-8.134709,-52.007317,-4.902274
1.3851432,-0.04228246,-0.20770627,-7.8689528,-50.30826,-4.742119
1.3400252,-0.0409052,-0.2009407,-7.612639,-48.669582,-4.587655
1.2964981,-0.039576508,-0.19441368,-7.365363,-47.08868,-4.4386373
1.2544947,-0.038294327,-0.18811515,-7.1267433,-45.563126,-4.2948365
1.2139517,-0.03705672,-0.18203561,-6.89642,-44.090607,-4.156035
1.1748092,-0.03586187,-0.17616609,-6.6740522,-42.668953,-4.0220284
1.1370106,-0.034708038,-0.17049806,-6.4593196,-41.296112,-3.8926225
1.1005021,-0.033593595,-0.16502352,-6.251917,-39.97013,-3.767634
1.0652332,-0.03251699,-0.15973485,-6.051555,-38.689167,-3.6468887
1.0311556,-0.031476744,-0.1546248,-5.857961,-37.45147,-3.530222
0.9982234,-0.030471466,-0.14968653,-5.6708746,-36.25538,-3.4174767
0.96639323,-0.029499827,-0.1449135,-5.4900484,-35.099308,-3.308504
0.93562347,-0.028560558,-0.14029948,-5.315246,-33.981754,-3.203162
0.9058747,-0.02765246,-0.13583857,-5.146245,-32.901283,-3.1013155
0.8771094,-0.026774377,-0.13152513,-4.98283,-31.856527,-3.0028358
0.84929156,-0.025925217,-0.12735376,-4.824797,-30.846186,-2.9075997
0.8223868,-0.025103932,-0.12331931,-4.6719527,-29.869009,-2.8154898
0.79636246,-0.02430952,-0.119416885,-4.5241094,-28.923807,-2.726394
0.7711872,-0.023541026,-0.11564177,-4.381089,-28.009441,-2.6402047
0.7468309,-0.022797532,-0.111989476,-4.2427216,-27.124823,-2.5568194
0.7232648,-0.022078162,-0.10845568,-4.108844,-26.268908,-2.4761398
0.70046145,-0.021382075,-0.10503625,-3.9792986,-25.440693,-2.398071
0.67839444,-0.020708464,-0.10172723,-3.8539364,-24.63922,-2.3225234
0.65703833,-0.020056553,-0.098524824,-3.7326133,-23.863567,-2.2494094
0.6363689,-0.019425603,-0.095425375,-3.6151905,-23.112854,-2.1786463
0.61636263,-0.018814899,-0.092425376,-3.5015357,-22.386229,-2.1101537
0.59699714,-0.018223753,-0.08952147,-3.3915212,-21.682877,-2.043855
0.5782508,-0.01765151,-0.08671041,-3.2850242,-21.002014,-1.9796758
0.56010294,-0.017097533,-0.083989084,-3.1819265,-20.342884,-1.9175454
0.5425335,-0.016561214,-0.08135449,-3.082115,-19.704763,-1.8573954
0.52552325,-0.016041962,-0.07880375,-2.9854803,-19.086952,-1.7991598
0.5090536,-0.015539217,-0.07633408,-2.8919168,-18.488777,-1.742775
0.49310678,-0.0150524285,-0.07394281,-2.8013237,-17.90959,-1.6881802
0.4776656,-0.014581075,-0.071627356,-2.7136025,-17.348768,-1.6353163
0.46271342,-0.01412465,-0.06938523,-2.6286597,-16.805706,-1.5841266
0.4482343,-0.013682664,-0.06721404,-2.5464044,-16.279825,-1.5345565
0.43421277,-0.013254648,-0.06511148,-2.4667485,-15.770565,-1.486553
0.420634,-0.012840146,-0.063075304,-2.389608,-15.277386,-1.4400653
0.40748364,-0.012438722,-0.061103366,-2.314901,-14.799766,-1.3950442
0.39474782,-0.0120499525,-0.059193593,-2.2425494,-14.337202,-1.3514423
0.38241315,-0.011673428,-0.05734397,-2.1724765,-13.889208,-1.3092139
0.3704667,-0.011308755,-0.05555257,-2.1046093,-13.455315,-1.2683146
0.35889605,-0.010955553,-0.053817514,-2.0388768,-13.035069,-1.2287018
0.34768912,-0.010613453,-0.052137002,-1.9752104,-12.628035,-1.1903342
0.33683425,-0.0102821,-0.05050928,-1.9135443,-12.233787,-1.1531719
0.3263202,-0.0099611515,-0.048932668,-1.8538142,-11.851917,-1.1171764
0.3161361,-0.009650274,-0.04740553,-1.7959588,-11.482031,-1.0823104
0.3062714,-0.009349148,-0.045926295,-1.7399178,-11.123747,-1.0485382
0.29671597,-0.009057462,-0.044493433,-1.6856338,-10.776695,-1.0158247
0.28746003,-0.008774918,-0.043105472,-1.6330509,-10.440519,-0.9841363
0.27849397,-0.008501223,-0.04176099,-1.5821152,-10.114874,-0.95344055
0.26980868,-0.008236098,-0.040458605,-1.5327743,-9.799425,-0.92370594
0.26139525,-0.007979272,-0.039196983,-1.4849778,-9.49385,-0.89490205
0.2532451,-0.0077304826,-0.037974842,-1.438677,-9.197836,-0.86699945
0.24534984,-0.007489475,-0.036790926,-1.3938243,-8.911082,-0.83996964
0.23770149,-0.0072560036,-0.035644036,-1.3503743,-8.633295,-0.8137851
0.23029225,-0.0070298314,-0.034532998,-1.3082827,-8.364192,-0.78841907
0.22311457,-0.0068107275,-0.033456683,-1.2675065,-8.103498,-0.76384586
0.21616115,-0.00659847,-0.032413997,-1.2280045,-7.8509517,-0.7400404
0.20942496,-0.006392843,-0.031403884,-1.1897364,-7.6062937,-0.71697867
0.20289914,-0.006193638,-0.030425321,-1.1526634,-7.369277,-0.6946372
0.1965771,-0.0060006534,-0.029477313,-1.1167481,-7.1396613,-0.6729933
0.19045243,-0.005813693,-0.0285589,-1.081954,-6.9172134,-0.6520251
0.18451893,-0.005632569,-0.027669154,-1.048246,-6.7017093,-0.6317114
0.1787706,-0.005457097,-0.026807176,-1.01559,-6.492931,-0.6120317
0.17320165,-0.005287101,-0.025972094,-0.9839529,-6.2906666,-0.592966
0.16780643,-0.0051224083,-0.025163066,-0.9533028,-6.0947127,-0.5744952
0.1625795,-0.004962853,-0.024379274,-0.92360884,-5.904872,-0.5566005
0.15751562,-0.004808274,-0.02361993,-0.8948411,-5.720952,-0.539264
0.15260965,-0.004658516,-0.022884265,-0.8669704,-5.5427675,-0.52246815
0.14785667,-0.004513428,-0.02217154,-0.83996886,-5.3701396,-0.506196
0.14325187,-0.0043728636,-0.021481039,-0.8138092,-5.2028937,-0.49043122
0.13879064,-0.004236681,-0.020812063,-0.7884651,-5.0408626,-0.47515792
0.13446847,-0.0041047437,-0.020163942,-0.763911,-4.8838816,-0.46036074
0.13028103,-0.003976919,-0.019536022,-0.74012226,-4.7317944,-0.44602478
0.1262241,-0.0038530787,-0.018927673,-0.717075,-4.584447,-0.43213564
0.1222936,-0.0037330973,-0.018338284,-0.69474596,-4.4416914,-0.41867936
0.118485585,-0.0036168552,-0.017767262,-0.67311275,-4.303385,-0.4056424
0.11479623,-0.003504235,-0.017214032,-0.6521536,-4.169388,-0.39301166
0.11122183,-0.0033951239,-0.016678039,-0.63184756,-4.039566,-0.3807745
0.1077588,-0.0032894125,-0.016158747,-0.61217415,-3.9137888,-0.36891857
0.10440365,-0.0031869942,-0.015655633,-0.5931137,-3.7919302,-0.35743204
0.10115302,-0.0030877667,-0.015168193,-0.574647,-3.673868,-0.34630334
0.09800366,-0.0029916302,-0.014695936,-0.5567556,-3.5594833,-0.3355213
0.094952404,-0.0028984882,-0.014238391,-0.5394215,-3.4486618,-0.32507515
0.09199618,-0.0028082477,-0.013795097,-0.5226273,-3.3412924,-0.31495434
0.08913204,-0.0027208177,-0.0133656105,-0.5063562,-3.237267,-0.30514878
0.0863571,-0.0026361109,-0.0129495,-0.49059188,-3.1364815,-0.29564863
0.08366859,-0.002554042,-0.01254635,-0.47531852,-3.038835,-0.28644434
0.08106381,-0.0024745292,-0.012155755,-0.46052083,-2.9442296,-0.27752674
0.07854015,-0.0023974928,-0.011777325,-0.44618398,-2.8525703,-0.2688868
0.076095074,-0.0023228552,-0.011410679,-0.43229362,-2.7637656,-0.26051596
0.07372614,-0.002250542,-0.011055451,-0.4188358,-2.6777263,-0.2524058
0.07143098,-0.0021804804,-0.010711284,-0.40579703,-2.594366,-0.24454816
0.06920728,-0.0021126005,-0.010377835,-0.3931643,-2.5136018,-0.23693521
0.067052834,-0.0020468344,-0.010054768,-0.38092494,-2.4353523,-0.22955932
0.064965464,-0.0019831161,-0.009741762,-0.36906666,-2.3595393,-0.2224131
0.062943086,-0.0019213817,-0.009438501,-0.35757762,-2.2860868,-0.21548937
0.060983684,-0.0018615695,-0.0091446815,-0.3464463,-2.2149215,-0.20878123
0.059085283,-0.0018036196,-0.008860012,-0.33566156,-2.1459718,-0.20228195
0.057245992,-0.0017474738,-0.008584204,-0.32521263,-2.0791688,-0.19598503
0.05546397,-0.0016930763,-0.008316984,-0.315089,-2.0144458,-0.18988416
0.053737424,-0.0016403723,-0.008058084,-0.30528054,-1.951738,-0.18397324
0.052064635,-0.0015893093,-0.0078072445,-0.29577747,-1.8909824,-0.17824633
0.05044392,-0.0015398359,-0.007564214,-0.28657028,-1.8321183,-0.17269774
0.04887367,-0.0014919029,-0.00732875,-0.2776497,-1.7750869,-0.16732189
0.047352303,-0.001445462,-0.0071006166,-0.26900688,-1.719831,-0.1621134
0.0458783,-0.001400467,-0.0068795853,-0.2606331,-1.6662953,-0.15706705
0.044450182,-0.0013568727,-0.006665435,-0.25252002,-1.6144263,-0.15217781
0.043066524,-0.0013146357,-0.0064579514,-0.24465951,-1.5641719,-0.14744078
0.041725945,-0.0012737135,-0.0062569273,-0.23704371,-1.5154822,-0.14285122
0.040427096,-0.0012340653,-0.006062161,-0.229665,-1.4683081,-0.13840453
0.039168682,-0.0011956512,-0.0058734585,-0.22251599,-1.4226027,-0.13409628
0.03794944,-0.0011584332,-0.00569063,-0.21558952,-1.37832,-0.12992215
0.036768157,-0.0011223736,-0.005513493,-0.2088787,-1.3354158,-0.12587795
0.035623647,-0.0010874367,-0.0053418702,-0.20237677,-1.2938473,-0.12195965
0.034514762,-0.0010535872,-0.00517559,-0.19607724,-1.2535728,-0.118163325
0.0334404,-0.0010207915,-0.005014486,-0.18997382,-1.214552,-0.114485174
0.03239948,-0.0009890167,-0.004858397,-0.18406038,-1.176746,-0.11092153
0.031390965,-0.0009582311,-0.004707167,-0.17833103,-1.1401167,-0.10746881
0.030413842,-0.00092840375,-0.0045606447,-0.17278004,-1.1046277,-0.10412358
0.029467138,-0.0008995049,-0.0044186837,-0.16740184,-1.0702435,-0.10088248
