ax,ay,az,gx,gy,gz
0.06545514,0.8790989,-6.038237,8.322803,-98.65636,0.3327303
0.94860804,0.8638048,-6.259681,-6.9554935,-104.72304,6.6012583
0.83368766,0.57237226,-7.068345,-27.54876,-118.297935,1.8839221
0.32725713,-0.4522388,-7.383328,-16.815228,-119.2811,-8.752706
-0.12916666,-0.83595544,-7.7828116,-6.597004,-124.31125,-18.610855
-0.21784167,-1.0666558,-7.8988514,-2.737613,-132.89963,-20.742886
-0.06386156,-1.5168667,-7.8580527,0.17939164,-140.3442,-14.21941
0.13354182,-2.0760958,-7.812806,4.7971787,-148.01883,-3.7500253
0.295036,-2.2854207,-7.501972,13.267502,-152.58792,4.548985
0.42726034,-2.0370176,-6.9234524,21.298416,-155.09985,10.029724
0.56686914,-1.728741,-6.201366,27.441486,-156.75569,15.73801
0.7773526,-1.3604586,-5.3615994,31.182302,-157.39575,21.49149
1.0395486,-0.92760336,-4.431942,33.39447,-156.58954,26.682386
1.2927287,-0.39453974,-3.4780686,33.027252,-154.25465,29.646238
1.5514916,0.15974738,-2.5312452,31.13685,-150.5123,30.398205
1.7896183,0.6065139,-1.7129908,28.437296,-145.44917,29.703917
2.0013692,0.93271846,-1.041506,25.464964,-138.93332,28.85142
2.14876,1.1362627,-0.56756943,22.279873,-131.84177,28.152729
2.2121418,1.219247,-0.26725104,20.000267,-124.680405,26.648705
2.2029848,1.2441139,-0.09909718,18.09119,-118.50808,24.426586
2.2074993,1.2315338,0.026808864,16.633675,-113.130554,22.025143
2.2481587,1.1934675,0.13418838,15.868664,-108.09272,19.76726
2.3085358,1.1647586,0.24188744,15.439404,-103.008934,18.200802
2.3506696,1.1583854,0.34205338,14.898079,-97.89607,17.286938
2.3469894,1.1864653,0.43241033,14.313605,-92.546,16.702093
2.3210535,1.250731,0.5021243,13.123457,-87.32009,15.773546
2.274088,1.3163477,0.5402567,11.543164,-82.49242,14.313022
2.2178056,1.379299,0.5499698,9.799848,-78.161644,12.466616
2.1802192,1.4425039,0.5446312,7.8375616,-74.20431,10.594515
2.174217,1.5266379,0.5333782,5.865926,-70.176155,9.1041355
2.1563168,1.6340418,0.50197005,3.7777057,-66.19551,7.6603646
2.1252174,1.7386924,0.45546362,1.6918728,-62.218132,6.024974
2.0713809,1.8330334,0.39357314,-0.34461373,-58.570282,4.032466
1.9878682,1.9207066,0.34110343,-2.5941796,-55.384514,1.86537
1.8829795,1.9867766,0.32805082,-5.3946934,-52.43485,-0.17205381
1.7787795,2.0848181,0.3449815,-9.039052,-49.62645,-2.2908907
1.710405,2.2456079,0.37300855,-14.205243,-46.754505,-5.560789
1.7020934,2.3110228,0.36497337,-20.09304,-43.807446,-9.711912
1.7417411,2.2256222,0.32639486,-25.45607,-40.672916,-13.302359
1.7357904,2.065661,0.25950167,-29.984222,-37.69932,-15.657033
1.671026,1.8765349,0.16538502,-33.503876,-35.083633,-17.60493
1.5724515,1.6655581,0.048897926,-35.886112,-32.673542,-19.75397
1.4569724,1.4366746,-0.084874846,-37.531357,-30.665205,-21.983719
1.3500687,1.1812929,-0.22197542,-38.13863,-29.3124,-23.516088
1.2607789,0.9453414,-0.33646432,-38.14106,-28.324905,-24.265314
1.1783946,0.7498613,-0.4321842,-37.79554,-27.652393,-24.654364
1.1139396,0.59613204,-0.50000167,-37.21358,-27.121386,-24.827242
1.0684971,0.47752556,-0.54277104,-36.479416,-26.758503,-24.73144
1.0451255,0.3886577,-0.5552574,-35.77672,-26.270697,-24.165014
1.0192521,0.33133674,-0.54080534,-35.203163,-25.65317,-23.337439
0.9827844,0.2944952,-0.515449,-34.666355,-24.903238,-22.496805
0.94449764,0.2629305,-0.48482555,-34.10512,-23.987564,-21.756104
0.9068645,0.23320045,-0.45025498,-33.514244,-22.947647,-20.872278
0.8719099,0.20235926,-0.41362426,-32.98619,-21.812836,-19.733389
0.8582312,0.15792318,-0.36788744,-32.86398,-20.241,-18.066658
0.8703351,0.10106432,-0.31357086,-32.82682,-18.007961,-15.917453
0.88735765,0.03841949,-0.25982076,-32.30533,-15.220115,-13.459247
0.9070424,-0.025239151,-0.20349008,-30.88255,-11.992902,-10.845832
0.87740976,-0.0244146,-0.19684216,-29.873632,-11.6011,-10.491504
0.84883004,-0.023619348,-0.19043046,-28.900564,-11.22322,-10.149766
0.8212581,-0.022852138,-0.18424484,-27.961807,-10.858664,-9.820079
0.7946514,-0.022111785,-0.17827576,-27.055914,-10.506869,-9.501932
0.76896966,-0.021397172,-0.17251422,-26.181517,-10.167307,-9.194847
0.74417514,-0.020707244,-0.16695169,-25.337322,-9.839473,-8.89837
0.72023183,-0.020041004,-0.16158013,-24.522112,-9.522895,-8.612071
0.6971058,-0.019397505,-0.15639193,-23.73473,-9.217124,-8.335545
0.674765,-0.018775854,-0.15137988,-22.97408,-8.921733,-8.068407
0.6531787,-0.0181752,-0.14653713,-22.23912,-8.63632,-7.8102927
0.632318,-0.017594736,-0.14185715,-21.528866,-8.3605,-7.5608544
0.6121554,-0.017033694,-0.13733377,-20.842377,-8.09391,-7.319762
0.5926645,-0.016491346,-0.1329611,-20.17876,-7.836202,-7.086703
0.57382035,-0.015966993,-0.12873352,-19.537165,-7.587045,-6.861377
0.55559915,-0.015459973,-0.12464568,-18.916777,-7.3461246,-6.643499
0.5379781,-0.014969654,-0.12069249,-18.316824,-7.113139,-6.432798
0.5209355,-0.0144954305,-0.11686908,-17.736565,-6.887802,-6.229013
0.50445056,-0.014036724,-0.113170765,-17.175293,-6.6698384,-6.0318966
0.48850343,-0.013592983,-0.109593116,-16.632334,-6.4589853,-5.841211
0.47307506,-0.013163677,-0.106131844,-16.107037,-6.254992,-5.6567287
0.45814732,-0.012748301,-0.10278288,-15.598783,-6.0576177,-5.4782324
0.4437027,-0.012346368,-0.09954231,-15.106979,-5.866631,-5.305513
0.42972445,-0.0119574135,-0.09640637,-14.631055,-5.6818113,-5.13837
0.41619658,-0.01158099,-0.093371466,-14.1704645,-5.502946,-4.976612
0.40310365,-0.011216668,-0.090434134,-13.724682,-5.3298306,-4.820055
0.3904308,-0.010864037,-0.08759105,-13.293203,-5.162271,-4.668522
0.37816387,-0.010522701,-0.08483903,-12.875545,-5.0000777,-4.5218415
0.36628917,-0.010192278,-0.082175,-12.47124,-4.8430705,-4.3798513
0.35479352,-0.009872402,-0.07959602,-12.079842,-4.691075,-4.2423935
0.34366426,-0.009562722,-0.07709923,-11.700918,-4.5439243,-4.1093173
0.33288923,-0.009262898,-0.07468191,-11.334054,-4.401457,-3.9804761
0.32245666,-0.008972604,-0.07234141,-10.978851,-4.2635174,-3.85573
0.31235525,-0.008691524,-0.070075214,-10.634923,-4.1299567,-3.7349439
0.3025741,-0.008419357,-0.06788088,-10.3019,-4.000631,-3.6179874
0.29310274,-0.00815581,-0.06575602,-9.9794235,-3.8754005,-3.504735
0.28393105,-0.007900599,-0.0636984,-9.66715,-3.7541323,-3.3950655
0.2750492,-0.0076534557,-0.06170581,-9.364745,-3.6366968,-3.2888622
0.26644784,-0.0074141156,-0.05977614,-9.07189,-3.5229697,-3.1860125
0.25811782,-0.0071823266,-0.057907343,-8.788273,-3.4128304,-3.0864077
0.2500504,-0.0069578444,-0.05609746,-8.5135975,-3.3061628,-2.9899426
0.24223708,-0.0067404327,-0.054344583,-8.247573,-3.2028553,-2.8965158
0.23466969,-0.0065298644,-0.052646883,-7.9899225,-3.1027994,-2.8060298
0.22734034,-0.0063259196,-0.05100258,-7.740376,-3.0058908,-2.7183902
0.22024137,-0.006128385,-0.049409967,-7.498674,-2.9120283,-2.6335053
0.21336542,-0.0059370566,-0.047867384,-7.264565,-2.8211148,-2.5512872
0.20670536,-0.0057517355,-0.046373237,-7.0378065,-2.7330556,-2.4716504
0.2002543,-0.00557223,-0.044925977,-6.818164,-2.6477597,-2.394513
0.1940056,-0.0053983545,-0.043524113,-6.6054106,-2.5651393,-2.3197947
0.18795279,-0.0052299304,-0.042166196,-6.3993273,-2.485109,-2.247419
0.18208964,-0.005066784,-0.040850833,-6.1997023,-2.4075868,-2.1773114
0.17641017,-0.0049087484,-0.039576672,-6.00633,-2.3324928,-2.1093998
0.17090853,-0.004755661,-0.03834241,-5.8190126,-2.2597504,-2.0436149
0.1655791,-0.0046073655,-0.03714678,-5.6375585,-2.1892846,-1.9798888
0.16041642,-0.00446371,-0.03598856,-5.4617825,-2.1210237,-1.9181569
0.15541524,-0.0043245484,-0.03486657,-5.2915044,-2.054898,-1.8583559
0.15057044,-0.004189738,-0.033779666,-5.126551,-1.9908403,-1.8004248
0.1458771,-0.0040591424,-0.032726742,-4.9667544,-1.928785,-1.7443049
0.14133045,-0.0039326283,-0.031706724,-4.811952,-1.8686692,-1.6899389
0.13692585,-0.003810067,-0.030718578,-4.661987,-1.8104317,-1.6372716
0.13265885,-0.0036913345,-0.0297613,-4.516706,-1.7540135,-1.5862496
0.12852512,-0.0035763104,-0.02883392,-4.3759627,-1.6993574,-1.5368211
0.124520466,-0.0034648776,-0.027935497,-4.239614,-1.646408,-1.4889361
0.12064084,-0.0033569238,-0.027065123,-4.107522,-1.5951115,-1.4425459
0.116882294,-0.0032523398,-0.026221914,-3.9795532,-1.5454161,-1.3976036
0.113241054,-0.0031510193,-0.025405021,-3.855578,-1.4972718,-1.3540641
0.109713435,-0.0030528607,-0.024613619,-3.7354712,-1.4506296,-1.311883
0.106295876,-0.0029577643,-0.023846908,-3.6191115,-1.4054426,-1.271018
0.10298491,-0.0028656344,-0.023104113,-3.5063818,-1.3616651,-1.2314277
0.09977723,-0.002776378,-0.022384485,-3.397168,-1.3192532,-1.1930722
0.09666958,-0.0026899052,-0.021687299,-3.29136,-1.2781638,-1.1559129
0.09365883,-0.0026061288,-0.021011854,-3.1888514,-1.2383558,-1.1199123
0.090741955,-0.0025249645,-0.02035747,-3.089539,-1.1997888,-1.0850341
0.08791601,-0.0024463306,-0.019723484,-2.9933228,-1.1624243,-1.0512434
0.08517817,-0.002370148,-0.019109264,-2.900106,-1.1262245,-1.0185059
0.082525656,-0.0022963397,-0.018514188,-2.8097944,-1.0911531,-0.986789
0.07995582,-0.002224832,-0.017937658,-2.722298,-1.0571748,-0.9560605
0.07746607,-0.002155553,-0.017379096,-2.6375282,-1.0242554,-0.9262897
0.07505391,-0.0020884327,-0.016837941,-2.5554001,-0.9923618,-0.89744663
0.072716914,-0.002023404,-0.016313648,-2.475831,-0.961462,-0.8695023
0.070452735,-0.0019604014,-0.015805691,-2.3987412,-0.9315251,-0.8424287
0.0682591,-0.0018993618,-0.015313561,-2.3240535,-0.90252084,-0.8161986
0.066133805,-0.0018402238,-0.014836762,-2.2516923,-0.8744202,-0.7907857
0.06407472,-0.0017829281,-0.014374818,-2.1815856,-0.847195,-0.7661644
0.062079772,-0.0017274173,-0.013927263,-2.1136627,-0.8208179,-0.74231017
0.060146973,-0.0016736357,-0.01349365,-2.0478556,-0.79526246,-0.71919894
0.058274373,-0.0016215292,-0.013073542,-1.9840983,-0.770503,-0.6968076
0.0564601,-0.0015710457,-0.01266652,-1.9223268,-0.7465147,-0.67511374
0.054702338,-0.0015221345,-0.0122721745,-1.8624792,-0.7232735,-0.65409553
0.052999318,-0.0014747466,-0.0118901115,-1.8044956,-0.70075625,-0.6337319
0.051349334,-0.0014288346,-0.011519947,-1.7483178,-0.6789402,-0.61400247
0.049750734,-0.0013843525,-0.01116131,-1.6938895,-0.65780354,-0.59488744
0.048201922,-0.0013412555,-0.010813842,-1.6411562,-0.63732517,-0.5763677
0.04670134,-0.0012995006,-0.010477194,-1.590065,-0.61748445,-0.5584247
0.04524748,-0.0012590459,-0.010151029,-1.5405648,-0.5982616,-0.5410404
0.043838896,-0.001219851,-0.009835021,-1.492606,-0.5796373,-0.52419746
0.042474173,-0.0011818765,-0.009528852,-1.4461405,-0.56159294,-0.50787896
0.041151945,-0.0011450844,-0.0092322165,-1.4011219,-0.5441104,-0.4920686
0.039870884,-0.0011094379,-0.008944818,-1.357505,-0.52717227,-0.4767505
0.03862971,-0.0010749013,-0.008666368,-1.3152461,-0.5107615,-0.46190935
0.037427183,-0.0010414402,-0.008396587,-1.274303,-0.4948617,-0.4475303
0.036262095,-0.0010090207,-0.008135206,-1.2346346,-0.47945693,-0.43359894
0.035133284,-0.0009776106,-0.007881964,-1.1962014,-0.4645318,-0.4201013
0.034039617,-0.00094717846,-0.007636605,-1.1589648,-0.45007133,-0.40702394
0.03298,-0.0009176938,-0.007398885,-1.1228874,-0.43606108,-0.3943537
0.03195337,-0.000889127,-0.0071685663,-1.0879332,-0.42248702,-0.38207793
0.030958703,-0.0008614497,-0.006945418,-1.0540673,-0.40933555,-0.37018433
0.029995002,-0.000834634,-0.0067292172,-1.0212556,-0.3965935,-0.35866103
0.029061304,-0.00080865313,-0.0065197474,-0.98946553,-0.38424817,-0.34749648
0.028156674,-0.00078348105,-0.0063167983,-0.9586651,-0.37228715,-0.33667946
0.027280206,-0.0007590927,-0.006120167,-0.92882353,-0.3606985,-0.32619923
0.026431022,-0.0007354635,-0.0059296577,-0.8999109,-0.34947062,-0.31604525
0.025608275,-0.0007125699,-0.005745079,-0.8718985,-0.33859226,-0.30620736
0.024811141,-0.0006903891,-0.0055662463,-0.84475803,-0.32805258,-0.29667574
0.024038823,-0.0006688987,-0.0053929803,-0.81846243,-0.317841,-0.28744084
0.023290547,-0.00064807734,-0.0052251085,-0.7929855,-0.30794728,-0.27849343
0.022565562,-0.00062790414,-0.0050624628,-0.7683016,-0.29836157,-0.26982456
0.02186315,-0.0006083589,-0.0049048797,-0.74438614,-0.28907424,-0.26142552
0.0211826,-0.0005894221,-0.0047522024,-0.7212151,-0.28007606,-0.25328797
0.020523237,-0.00057107484,-0.0046042777,-0.69876546,-0.27135795,-0.24540372
0.019884398,-0.0005532987,-0.004460958,-0.6770146,-0.26291126,-0.23776491
0.019265447,-0.00053607585,-0.0043220995,-0.65594083,-0.25472748,-0.23036389
0.018665763,-0.0005193892,-0.0041875634,-0.6355231,-0.24679847,-0.22319324
