ax,ay,az,gx,gy,gz
-0.7090973,1.0572823,-5.760052,22.860209,-42.835842,-4.106401
-0.8295971,0.8841903,-6.417075,11.997138,-61.947483,-8.983803
-0.43481857,0.1036831,-6.7079,11.65066,-70.92326,-13.852038
0.16834304,-0.815492,-6.9706035,19.422161,-70.28058,-23.266106
0.6562177,-1.710186,-7.397656,26.922195,-71.105804,-35.222153
1.1020114,-2.7401643,-7.623441,30.850397,-74.0451,-38.91818
1.3572061,-3.6610172,-7.6199527,31.386566,-78.286224,-31.9435
1.3285285,-4.1835327,-7.489769,31.12398,-83.121056,-18.487534
1.0941749,-4.250141,-7.264832,31.19987,-89.4624,-3.5567248
0.83357215,-3.9386067,-6.863581,31.58424,-96.65778,8.283459
0.7210288,-3.3002672,-6.202858,31.461933,-103.605415,16.147175
0.8188963,-2.6053329,-5.3469386,30.213236,-108.42487,22.128256
1.0543534,-1.9602872,-4.3800564,27.282253,-110.815445,28.178154
1.2963622,-1.372369,-3.3981724,22.943014,-111.055565,33.174175
1.5064422,-0.90087783,-2.4925568,18.999645,-108.93468,35.614132
1.6819549,-0.56913525,-1.712146,15.593119,-105.599594,36.46956
1.8184038,-0.3163262,-1.0604889,12.475069,-101.12068,36.58009
1.8970604,-0.119209595,-0.5465152,9.530018,-96.08597,36.560368
1.9036201,0.045872375,-0.15233907,7.168508,-91.058075,36.418568
1.8654835,0.21413092,0.14953941,5.1546507,-86.35624,35.670555
1.8295089,0.37285674,0.361602,3.3624501,-81.92906,34.35069
1.8247082,0.5066999,0.5139328,2.1015475,-77.25295,32.488888
1.836177,0.63677907,0.5900456,0.8614656,-72.6453,30.534767
1.839044,0.77087325,0.6044216,-0.6114276,-68.31626,28.621105
1.8301339,0.91369176,0.5680588,-2.0689576,-64.416954,26.72701
1.8024375,1.0744932,0.47667876,-3.5142443,-60.942726,24.38092
1.7648202,1.2254019,0.3526435,-4.666928,-57.857883,21.425297
1.7158101,1.3748585,0.21352531,-5.88499,-55.317398,18.191675
1.6645722,1.5303683,0.08026299,-7.6291647,-53.400436,14.77724
1.6355115,1.6869304,-0.012808406,-9.877967,-51.499622,11.590516
1.6238528,1.8782703,-0.065578945,-12.613423,-49.488117,8.112553
1.606281,2.047363,-0.11393471,-15.065454,-47.43974,3.5282936
1.5657289,2.1764553,-0.15515861,-16.936962,-45.69505,-2.1284392
1.4961122,2.221358,-0.18072574,-18.941576,-44.531796,-8.18947
1.4188647,2.0990522,-0.20306662,-20.924711,-43.918827,-13.792474
1.3762319,1.8063686,-0.22497688,-22.744213,-43.524673,-18.099512
1.3632878,1.4493873,-0.2418087,-24.688805,-43.275097,-20.77149
1.3785247,1.0574205,-0.24637517,-26.482794,-42.86677,-22.285316
1.4092876,0.6517659,-0.23974663,-27.225086,-41.97513,-23.807495
1.437908,0.28059563,-0.22801828,-26.954899,-40.661205,-25.166517
1.4361011,-0.012836542,-0.22548322,-26.50711,-39.361416,-25.76686
1.4055353,-0.2380767,-0.23267597,-25.965706,-38.26475,-25.589159
1.3555546,-0.38138044,-0.23510557,-25.420013,-37.305603,-24.94616
1.294764,-0.4491215,-0.22984655,-24.977652,-36.42682,-24.025385
1.2387359,-0.46640772,-0.21676157,-24.64176,-35.38684,-23.178068
1.1852301,-0.47379526,-0.20874263,-24.262682,-34.21442,-22.722599
1.1382115,-0.49592707,-0.20419541,-23.665394,-32.753277,-22.519762
1.0958807,-0.53406876,-0.20916189,-23.125875,-31.238434,-22.249779
1.0712346,-0.58374196,-0.195655,-23.08033,-29.501242,-21.251877
1.0840764,-0.6330479,-0.14084308,-24.14987,-26.572357,-18.741354
1.1173964,-0.66286117,-0.06071234,-24.282288,-22.495695,-16.643572
1.0798945,-0.6406144,-0.058674727,-23.46733,-21.7407,-16.084984
1.0438184,-0.6192133,-0.056714572,-22.683353,-21.014404,-15.547629
1.0090982,-0.59861654,-0.054828092,-21.928844,-20.315409,-15.030474
0.9756691,-0.57878584,-0.053011764,-21.202394,-19.642406,-14.532549
0.94347066,-0.55968505,-0.051262304,-20.502686,-18.994179,-14.052955
0.9124462,-0.54128075,-0.04957663,-19.82849,-18.369589,-13.590847
0.8825427,-0.52354145,-0.047951862,-19.178652,-17.767565,-13.145436
0.85371053,-0.5064376,-0.046385296,-18.552095,-17.187107,-12.7159815
0.82590276,-0.4899415,-0.044874396,-17.947802,-16.627274,-12.301786
0.79907554,-0.4740271,-0.043416776,-17.364817,-16.087183,-11.902196
0.77318746,-0.45866978,-0.042010177,-16.802238,-15.565997,-11.516594
0.74819946,-0.4438464,-0.040652484,-16.25922,-15.062932,-11.144399
0.7240746,-0.42953506,-0.039341692,-15.734961,-14.577245,-10.78506
0.700778,-0.4157151,-0.0380759,-15.228699,-14.1082325,-10.438058
0.67827666,-0.40236685,-0.036853317,-14.739719,-13.65523,-10.102901
0.65653926,-0.3894718,-0.035672244,-14.267341,-13.217607,-9.779124
0.6355361,-0.37701228,-0.03453106,-13.810918,-12.794765,-9.466282
0.61523885,-0.3649716,-0.033428237,-13.369836,-12.386137,-9.163956
0.5956208,-0.3533338,-0.032362312,-12.943514,-11.991182,-8.871746
0.57665634,-0.34208372,-0.031331904,-12.531395,-11.6093855,-8.589272
0.55832124,-0.33120695,-0.030335687,-12.132952,-11.240258,-8.316171
0.5405922,-0.32068974,-0.029372402,-11.74768,-10.883332,-8.052097
0.5234471,-0.31051895,-0.028440844,-11.375097,-10.538163,-7.7967215
0.5068648,-0.300682,-0.027539866,-11.014746,-10.204325,-7.5497293
0.49082512,-0.29116696,-0.026668372,-10.666185,-9.88141,-7.3108187
0.47530872,-0.28196234,-0.025825307,-10.328996,-9.56903,-7.079703
0.4602971,-0.27305716,-0.02500967,-10.002777,-9.266812,-6.8561053
0.44577253,-0.2644409,-0.024220496,-9.687141,-8.9744005,-6.639763
0.43171808,-0.25610352,-0.023456864,-9.381722,-8.691453,-6.4304223
0.4181174,-0.24803534,-0.02271789,-9.086164,-8.417641,-6.227841
0.40495494,-0.2402271,-0.022002721,-8.800129,-8.152651,-6.0317864
0.3922156,-0.2326699,-0.021310547,-8.52329,-7.8961797,-5.842035
0.3798851,-0.2253552,-0.020640584,-8.255333,-7.6479387,-5.6583724
0.36794952,-0.21827477,-0.019992078,-7.9959593,-7.4076486,-5.4805923
0.35639554,-0.21142073,-0.019364307,-7.7448783,-7.175041,-5.308496
0.34521037,-0.20478548,-0.018756576,-7.501812,-6.9498587,-5.141894
0.33438173,-0.19836172,-0.018168215,-7.2664933,-6.731854,-4.9806013
0.32389772,-0.1921424,-0.017598579,-7.038664,-6.5207872,-4.824443
0.31374693,-0.18612076,-0.01704705,-6.818076,-6.316429,-4.6732473
0.3039184,-0.18029027,-0.016513027,-6.6044903,-6.1185584,-4.526851
0.29440144,-0.17464463,-0.015995936,-6.3976765,-5.926961,-4.385097
0.2851859,-0.1691778,-0.015495221,-6.1974125,-5.7414317,-4.247832
0.27626193,-0.16388392,-0.015010348,-6.0034842,-5.561772,-4.1149096
0.26762,-0.15875737,-0.014540799,-5.8156853,-5.3877907,-3.9861884
0.25925094,-0.15379268,-0.014086078,-5.6338167,-5.2193027,-3.8615317
0.25114593,-0.14898463,-0.013645701,-5.4576855,-5.056131,-3.740808
0.24329641,-0.14432815,-0.0132192075,-5.2871065,-4.8981023,-3.6238897
0.23569414,-0.13981833,-0.012806147,-5.1219006,-4.7450514,-3.510654
0.22833115,-0.13545047,-0.012406088,-4.9618945,-4.596818,-3.4009826
0.22119977,-0.13121998,-0.0120186135,-4.806921,-4.453247,-3.294761
0.21429254,-0.12712249,-0.011643318,-4.6568193,-4.3141894,-3.1918783
0.20760232,-0.12315372,-0.011279814,-4.5114336,-4.1795,-3.0922277
0.20112216,-0.11930956,-0.010927722,-4.370612,-4.04904,-2.9957058
0.19484535,-0.115586035,-0.010586679,-4.23421,-3.9226737,-2.902213
0.1887654,-0.1119793,-0.010256333,-4.102086,-3.800271,-2.8116527
0.1828761,-0.10848564,-0.009936345,-3.9741044,-3.6817057,-2.7239316
0.17717132,-0.10510146,-0.009626383,-3.8501332,-3.566856,-2.6389592
0.17164525,-0.101823285,-0.009326131,-3.7300456,-3.4556036,-2.5566485
0.1662922,-0.09864776,-0.00903528,-3.6137178,-3.347835,-2.4769154
0.16110672,-0.09557163,-0.0087535335,-3.5010314,-3.2434397,-2.3996778
0.1560835,-0.092591755,-0.008480602,-3.391871,-3.1423106,-2.324857
0.1512174,-0.08970509,-0.008216209,-3.2861252,-3.0443451,-2.2523766
0.14650346,-0.08690869,-0.007960083,-3.183686,-2.949443,-2.1821628
0.14193688,-0.08419971,-0.007711964,-3.0844493,-2.8575077,-2.1141438
0.13751304,-0.0815754,-0.0074715996,-2.988314,-2.7684457,-2.048251
0.13322742,-0.079033084,-0.007238746,-2.8951826,-2.6821666,-1.9844167
0.12907568,-0.07657019,-0.0070131663,-2.8049605,-2.5985827,-1.9225767
0.1250536,-0.07418422,-0.0067946315,-2.7175562,-2.5176094,-1.862668
0.12115711,-0.07187275,-0.006582921,-2.6328812,-2.4391642,-1.8046299
0.117382266,-0.06963343,-0.0063778195,-2.5508494,-2.3631682,-1.7484038
0.11372525,-0.067464024,-0.00617912,-2.4713783,-2.2895443,-1.6939328
0.11018237,-0.06536231,-0.0059866216,-2.3943875,-2.218218,-1.6411616
0.10675003,-0.06332618,-0.00580013,-2.319799,-2.1491172,-1.590037
0.10342477,-0.06135358,-0.005619456,-2.2475374,-2.0821724,-1.5405076
0.100203246,-0.059442505,-0.0054444186,-2.1775298,-2.0173159,-1.4925231
0.0970822,-0.05759104,-0.00527484,-2.109706,-1.9544823,-1.4460351
0.094058484,-0.055797316,-0.0051105507,-2.0439973,-1.8936082,-1.400997
0.09112906,-0.054059524,-0.004951384,-1.9803376,-1.8346323,-1.3573635
0.08829097,-0.052375913,-0.0047971797,-1.9186627,-1.7774951,-1.3150902
0.08554136,-0.05074479,-0.004647783,-1.8589106,-1.7221394,-1.2741349
0.082877465,-0.049164515,-0.004503044,-1.8010211,-1.6685091,-1.2344563
0.0802966,-0.0476335,-0.0043628155,-1.744936,-1.6165506,-1.1960144
0.077796176,-0.0461502,-0.0042269584,-1.690599,-1.5662115,-1.1587707
0.07537368,-0.044713125,-0.004095335,-1.6379553,-1.5174412,-1.1226877
0.07302667,-0.043320835,-0.003967813,-1.5869522,-1.4701906,-1.0877291
0.0707528,-0.04197193,-0.0038442651,-1.5375383,-1.4244124,-1.0538598
0.068549775,-0.040665053,-0.0037245664,-1.4896641,-1.3800606,-1.0210459
0.066415384,-0.039398894,-0.0036085972,-1.4432815,-1.3370906,-0.9892543
0.0643475,-0.03817218,-0.003496241,-1.3983439,-1.2954594,-0.9584532
0.062344026,-0.036983684,-0.003387385,-1.3548063,-1.255125,-0.9286116
0.060402967,-0.03583221,-0.00328192,-1.3126248,-1.2160472,-0.8996996
0.058522373,-0.034716606,-0.0031797402,-1.2717574,-1.1781865,-0.87168825
0.056700356,-0.03363575,-0.0030807431,-1.2321628,-1.1415052,-0.84454936
0.054935087,-0.032588556,-0.0029848295,-1.1938016,-1.1059664,-0.8182558
0.053224802,-0.03157398,-0.0028919033,-1.1566352,-1.0715345,-0.7927811
0.051567778,-0.030591005,-0.0028018712,-1.1206262,-1.038175,-0.76809984
0.049962364,-0.029638642,-0.0027146428,-1.0857387,-1.0058544,-0.74418724
0.048406944,-0.028715938,-0.002630131,-1.0519377,-0.97454035,-0.7210194
0.046899963,-0.027821967,-0.002548251,-1.0191894,-0.9442014,-0.69857293
0.04543991,-0.026955836,-0.002468921,-0.98746073,-0.9148073,-0.6768255
0.044025324,-0.026116675,-0.0023920613,-0.9567201,-0.8863285,-0.65575534
0.042654786,-0.025303645,-0.0023175948,-0.9269368,-0.8587365,-0.6353412
0.041326925,-0.024515932,-0.002245447,-0.8980808,-0.83200365,-0.6155628
0.04004041,-0.023752747,-0.0021755458,-0.8701234,-0.8061032,-0.5964002
0.03879395,-0.023013324,-0.002107821,-0.8430365,-0.7810092,-0.57783425
0.037586305,-0.022296924,-0.002042205,-0.8167929,-0.7566966,-0.5598464
0.03641626,-0.02160283,-0.001978632,-0.79136646,-0.7331409,-0.5424186
0.03528264,-0.020930346,-0.0019170383,-0.7667317,-0.7103186,-0.5255334
0.034184318,-0.020278798,-0.0018573623,-0.7428639,-0.688207,-0.5091739
0.03312019,-0.019647539,-0.0017995443,-0.7197392,-0.6667837,-0.4933238
0.032089192,-0.019035932,-0.0017435263,-0.69733447,-0.6460274,-0.47796714
0.031090295,-0.018443365,-0.0016892524,-0.6756273,-0.6259173,-0.4630886
0.030122494,-0.017869247,-0.0016366682,-0.65459585,-0.60643333,-0.44867325
0.029184824,-0.017313002,-0.001585721,-0.6342192,-0.58755594,-0.4347067
0.028276345,-0.016774075,-0.00153636,-0.614477,-0.5692662,-0.42117494
0.027396148,-0.016251925,-0.0014885355,-0.5953493,-0.5515459,-0.40806445
0.026543355,-0.015746033,-0.0014422,-0.5768171,-0.5343772,-0.3953621
0.025717108,-0.015255887,-0.001397307,-0.55886185,-0.51774305,-0.3830552
0.024916584,-0.014781,-0.0013538116,-0.5414656,-0.50162673,-0.37113145
0.024140982,-0.014320898,-0.0013116702,-0.5246108,-0.48601207,-0.35957888
0.023389522,-0.0138751175,-0.0012708405,-0.5082808,-0.47088352,-0.34838593
0.022661457,-0.013443216,-0.001231282,-0.49245912,-0.45622593,-0.33754143
0.021956056,-0.013024758,-0.001192955,-0.47712997,-0.44202465,-0.3270345
0.021272615,-0.012619327,-0.001155821,-0.46227798,-0.42826542,-0.3168547
0.020610448,-0.012226517,-0.001119843,-0.44788837,-0.41493452,-0.30699173
0.019968895,-0.011845935,-0.001084985,-0.43394667,-0.4020186,-0.29743582
0.019347312,-0.0114772,-0.0010512121,-0.42043898,-0.38950476,-0.28817737
0.01874508,-0.011119944,-0.0010184905,-0.40735176,-0.37738046,-0.27920714
0.018161593,-0.010773809,-0.0009867875,-0.39467195,-0.36563358,-0.27051613
