ax,ay,az,gx,gy,gz
-0.85728055,-0.02181838,-0.9918272,56.430515,-78.73617,7.546432
-0.84999985,-0.5426833,-0.33914977,45.595886,-87.489265,-2.5343857
0.07102296,-1.1729592,0.79585737,44.9441,-88.033066,-11.183151
1.2519693,-1.5815531,1.8414657,46.20875,-82.96284,-8.863807
2.4372036,-1.7813169,2.687627,46.039116,-76.34812,-1.88842
3.7395756,-2.2118692,3.5621376,47.177334,-63.955723,8.221759
5.005484,-2.6296506,4.3001604,52.596214,-50.018875,14.226471
6.214076,-2.729096,5.0273676,61.940308,-33.248302,14.893068
7.2073445,-2.4964774,5.6575823,71.4727,-13.981841,12.992287
7.960846,-2.083751,6.098623,77.14937,6.810637,11.165108
8.498405,-1.7036775,6.286794,78.86289,29.380304,9.38923
8.856251,-1.4427474,6.217631,80.30321,52.82023,7.3498783
9.045103,-1.1901633,5.9117455,81.99767,76.1528,4.240794
9.116115,-0.91973805,5.4654555,82.86621,98.74852,0.21554522
9.175985,-0.62771547,4.968084,82.68635,121.49701,-4.524453
9.2184,-0.36261487,4.3556204,80.92348,143.70699,-9.558484
9.203941,-0.12872262,3.5748625,77.28397,163.23283,-14.290579
9.211042,0.07211851,2.784967,73.79156,180.92247,-18.337065
9.243043,0.3050215,1.9595038,71.03349,196.49866,-21.923117
9.273054,0.58166444,1.1182185,68.296585,210.64462,-25.35804
9.1720295,0.88775635,0.15764208,64.879234,221.50641,-30.003849
8.874828,1.1483829,-0.9312405,61.670742,227.79314,-35.94717
8.567938,1.3866385,-1.9501388,57.76617,229.5864,-43.085514
8.321512,1.5961401,-2.8535256,51.722954,227.4756,-50.90663
8.117456,1.7361505,-3.6404386,44.604412,222.7646,-58.989723
7.911098,1.841089,-4.3462853,37.734848,215.7599,-67.71475
7.671009,1.925601,-5.014565,30.588732,206.80887,-76.9229
7.4035654,1.8981614,-5.6174097,23.323599,195.96858,-85.9996
7.112128,1.7593595,-6.1577144,16.639194,184.1703,-94.43937
6.7998533,1.4694014,-6.666456,10.501723,170.95201,-101.612595
6.492271,0.9535205,-7.1256046,5.726636,154.77208,-105.92034
6.259274,0.11233375,-7.4770117,2.5258844,136.92392,-107.481445
6.174219,-0.84089184,-7.661146,1.0886668,119.00119,-105.764305
6.2198014,-1.7733588,-7.717134,1.6109442,102.034294,-101.079636
6.3432274,-2.6022427,-7.6963906,3.662686,86.03532,-93.86893
6.5150733,-3.2952073,-7.5964274,8.175398,72.339066,-83.578606
6.7086453,-3.7547789,-7.4202347,14.923231,60.47525,-71.69597
6.9532924,-3.9765868,-7.140052,23.092558,50.72221,-58.01086
7.278288,-3.8959327,-6.708026,32.420387,43.78432,-42.981674
7.621593,-3.2882123,-6.127324,41.755608,40.036324,-29.257906
7.7935123,-1.9624624,-5.501824,44.27673,35.044456,-25.710335
7.886938,-0.5837781,-4.7109094,40.58665,30.396019,-26.771675
7.8850203,0.4900879,-3.9954827,33.86278,28.77036,-28.502281
7.7156153,1.3310376,-3.580121,25.984186,28.10222,-31.802454
7.4609623,1.9019716,-3.394192,18.518446,27.330091,-36.88244
7.169933,2.2158337,-3.3594005,14.158985,26.357058,-44.20979
6.9191422,2.1875708,-3.4091241,12.45262,25.417841,-51.371822
6.7584863,2.0514917,-3.4765153,12.025522,24.202744,-57.610744
6.671461,1.822463,-3.5437999,10.935063,22.05617,-62.705135
6.6362185,1.4605165,-3.575982,9.8462515,19.729431,-66.39822
6.5894313,1.0189077,-3.5904517,9.888806,17.308067,-69.01285
6.4607744,0.5412931,-3.585268,10.41523,14.811874,-70.482185
6.261876,0.06616659,-3.580749,10.385356,11.556217,-70.18903
6.0335317,-0.39585778,-3.5498233,9.804411,7.789509,-68.01272
5.7764435,-0.8089974,-3.507989,9.317852,3.570454,-64.52422
5.5070057,-1.1604953,-3.456012,9.044605,-1.5930578,-59.949528
5.2662663,-1.4902328,-3.3694298,9.234914,-6.8773713,-54.39963
5.0530705,-1.8023868,-3.2919407,10.402483,-12.322832,-47.694054
4.8892303,-2.080849,-3.2264402,13.258991,-17.222252,-40.068203
4.7750225,-2.2979844,-3.1607916,17.4017,-21.913803,-31.675552
4.77395,-2.3916638,-3.0183313,23.047812,-24.75078,-21.4773
4.888088,-2.193272,-2.7945182,29.154755,-25.489288,-11.195121
4.981097,-1.6875159,-2.5746086,33.080776,-25.537401,-3.6670463
5.033426,-1.0669979,-2.329116,34.0274,-25.581884,-0.58301395
5.0588617,-0.5800402,-2.0708172,33.276245,-24.57226,0.4372653
5.0267253,-0.2038809,-1.8761779,31.282745,-22.693613,1.3521732
4.911169,0.13098493,-1.7855403,28.597996,-21.011778,1.9582596
4.766149,0.42437285,-1.7483178,25.629026,-19.67377,1.9483341
4.59972,0.67062825,-1.7536093,22.681898,-18.795954,1.2837753
4.453049,0.649244,-1.6976922,21.958643,-18.19661,1.2428397
4.311265,0.6285722,-1.643638,21.259485,-17.617233,1.2032679
4.1741858,0.60858643,-1.5913775,20.583527,-17.057083,1.1650094
4.041638,0.58926123,-1.5408446,19.929913,-16.515448,1.1280154
3.9134557,0.57057256,-1.491976,19.297829,-15.991654,1.09224
3.7894814,0.5524974,-1.4447117,18.686491,-15.485054,1.0576389
3.6695635,0.5350137,-1.398994,18.09516,-14.995031,1.02417
3.553558,0.5181004,-1.3547678,17.523119,-14.520995,0.99179304
3.4413266,0.50173724,-1.3119802,16.969688,-14.062381,0.96046937
3.3327365,0.48590508,-1.2705811,16.434216,-13.618646,0.930162
3.2276607,0.4705853,-1.2305218,15.916072,-13.189273,0.9008355
3.125978,0.45576018,-1.191756,15.414659,-12.773764,0.87245595
3.027571,0.4414127,-1.154239,14.9293995,-12.371641,0.84499073
2.932328,0.42752647,-1.1179284,14.459742,-11.982447,0.81840855
2.840141,0.41408584,-1.0827827,14.005155,-11.605741,0.7926793
2.7509067,0.4010757,-1.0487629,13.565127,-11.2411,0.76777416
2.6645257,0.38848153,-1.0158308,13.139169,-10.888119,0.74366534
2.5809019,0.37628937,-0.9839498,12.726809,-10.546405,0.72032607
2.4999435,0.36448583,-0.95308495,12.32759,-10.215583,0.69773066
2.4215617,0.35305795,-0.9232025,11.941078,-9.895289,0.67585444
2.3456712,0.3419933,-0.8942698,11.566852,-9.585176,0.6546735
2.2721899,0.3312799,-0.8662556,11.204503,-9.284907,0.6341649
2.2010381,0.32090616,-0.83912957,10.853644,-8.994159,0.6143066
2.13214,0.31086096,-0.81286263,10.513897,-8.712618,0.5950772
2.0654216,0.30113357,-0.7874267,10.184898,-8.439984,0.5764562
2.0008118,0.2917136,-0.7627947,9.866298,-8.175968,0.5584237
1.9382421,0.2825911,-0.7389405,9.557757,-7.920288,0.5409606
1.8776464,0.27375638,-0.7158388,9.258951,-7.672674,0.52404845
1.8189609,0.2652002,-0.6934654,8.969564,-7.432866,0.5076694
1.7621238,0.25691348,-0.6717967,8.689293,-7.2006116,0.49180627
1.7070758,0.24888761,-0.65081006,8.417843,-6.9756675,0.47644246
1.6537594,0.2411142,-0.6304835,8.154931,-6.757799,0.4615619
1.6021188,0.23358512,-0.610796,7.9002843,-6.546779,0.44714907
1.5521005,0.22629258,-0.5917269,7.653637,-6.342388,0.43318906
1.5036528,0.21922901,-0.5732565,7.414734,-6.144415,0.41966736
1.4567254,0.21238711,-0.5553658,7.183328,-5.9526544,0.40657
1.4112699,0.20575981,-0.5380362,6.95918,-5.766908,0.3938834
1.3672395,0.19934027,-0.52124995,6.742059,-5.5869856,0.38159457
1.3245888,0.19312191,-0.5049897,6.5317426,-5.412701,0.36969084
1.2832742,0.18709832,-0.48923877,6.328014,-5.243876,0.35816
1.2432531,0.18126336,-0.47398105,6.130665,-5.080337,0.34699017
1.2044848,0.17561103,-0.45920092,5.939492,-4.921917,0.33617
1.1669296,0.17013556,-0.44488326,5.754302,-4.768454,0.3256884
1.1305491,0.16483137,-0.43101346,5.574904,-4.6197915,0.31553462
1.0953062,0.15969305,-0.4175774,5.4011164,-4.4757776,0.3056984
1.0611651,0.15471534,-0.40456134,5.2327614,-4.336266,0.29616967
1.028091,0.14989322,-0.39195207,5.0696683,-4.201114,0.28693873
0.9960503,0.14522177,-0.3797368,4.911671,-4.0701857,0.2779962
0.9650106,0.14069626,-0.36790314,4.7586093,-3.9433472,0.26933306
0.9349402,0.13631207,-0.35643905,4.610328,-3.82047,0.2609405
0.90580887,0.13206479,-0.34533292,4.466677,-3.7014298,0.25280997
0.87758696,0.1279501,-0.33457354,4.327511,-3.5861058,0.24493326
0.85024595,0.12396384,-0.32414997,4.192688,-3.4743817,0.23730242
0.8237582,0.12010199,-0.31405172,4.062073,-3.366144,0.22990973
0.79809695,0.11636064,-0.30426854,3.9355338,-3.2612839,0.22274771
0.7732363,0.11273602,-0.29479063,3.8129423,-3.1596951,0.21580914
0.7491511,0.10922446,-0.28560832,3.6941748,-3.0612755,0.20908701
0.7258172,0.10582243,-0.27671245,3.5791118,-2.9659255,0.20257455
0.70321095,0.10252649,-0.26809397,3.467637,-2.873549,0.19626518
0.68130964,0.09933333,-0.25974426,3.3596385,-2.784053,0.19015256
0.6600912,0.09623973,-0.2516549,3.255007,-2.6973474,0.1842305
0.63953424,0.09324258,-0.2438177,3.1536376,-2.6133451,0.1784931
0.6196181,0.09033885,-0.23622483,3.0554283,-2.5319612,0.17293453
0.6003228,0.087525636,-0.22886862,2.9602802,-2.4531143,0.16754922
0.5816288,0.0848001,-0.22174168,2.8680975,-2.3767247,0.16233177
0.56351745,0.082159504,-0.21483685,2.7787876,-2.3027158,0.15727691
0.54597044,0.0796012,-0.2081472,2.692261,-2.231013,0.15237957
0.52897024,0.077122614,-0.201666,2.6084304,-2.1615448,0.14763485
0.51249975,0.07472125,-0.19538675,2.527212,-2.094241,0.14303796
0.49654242,0.07239471,-0.18930313,2.448524,-2.029034,0.13858429
0.48108223,0.070140645,-0.18340904,2.3722875,-1.9658586,0.13426936
0.46610364,0.067956805,-0.17769857,2.298426,-1.9046513,0.13008887
0.45159167,0.065841,-0.17216599,2.2268653,-1.8453506,0.1260386
0.43753177,0.063791096,-0.16680574,2.1575336,-1.7878972,0.12211449
0.42390978,0.06180504,-0.16161247,2.0903616,-1.7322333,0.11831261
0.41071206,0.059880845,-0.15658094,2.025282,-1.6783032,0.11462916
0.39792544,0.058016583,-0.15170613,1.962229,-1.6260529,0.11106042
0.38553703,0.056210384,-0.14698313,1.90114,-1.5754298,0.107602835
0.3735344,0.054460432,-0.14240724,1.8419534,-1.5263833,0.10425293
0.36190563,0.052764982,-0.13797385,1.78461,-1.4788642,0.10100734
0.35063896,0.05112233,-0.13367851,1.7290524,-1.432825,0.09786283
0.33972314,0.04953083,-0.12951693,1.6752249,-1.3882194,0.094816245
0.32914725,0.047988888,-0.12548496,1.6230737,-1.3450028,0.091864526
0.31890067,0.04649496,-0.12157852,1.5725462,-1.3031319,0.089004725
0.30897316,0.045047555,-0.11779373,1.5235922,-1.2625649,0.086233966
0.29935476,0.043645214,-0.11412679,1.4761624,-1.223261,0.083549485
0.29003584,0.042286538,-0.11057402,1.4302095,-1.1851809,0.08094859
0.28100708,0.04097017,-0.107131876,1.3856875,-1.1482865,0.07842868
0.27225944,0.039694782,-0.1037969,1.3425515,-1.1125407,0.07598723
0.26378417,0.038459107,-0.10056576,1.3007587,-1.077908,0.07362179
0.25557277,0.037261903,-0.09743523,1.260267,-1.0443535,0.071329996
0.247617,0.036101975,-0.09440216,1.2210361,-1.0118437,0.06910955
0.23990895,0.034978155,-0.09146351,1.1830264,-0.9803461,0.06695825
0.23244086,0.033889327,-0.08861636,1.1462002,-0.94982904,0.06487391
0.22520529,0.032834396,-0.085857846,1.1105205,-0.9202621,0.062854476
0.21819496,0.03181231,-0.08318522,1.0759516,-0.8916156,0.060897905
0.2114029,0.03082204,-0.08059579,1.0424589,-0.863861,0.059002247
0.20482227,0.029862601,-0.07808697,1.0100088,-0.83697045,0.057165604
0.19844651,0.02893303,-0.075656265,0.97856903,-0.810917,0.055386137
0.19226924,0.028032398,-0.073301226,0.94810796,-0.7856747,0.05366207
0.18628426,0.027159803,-0.07101949,0.9185952,-0.76121813,0.05199167
0.1804856,0.026314374,-0.0688088,0.8900012,-0.73752296,0.050373275
0.17486747,0.025495261,-0.06666693,0.8622973,-0.7145654,0.04880526
0.16942422,0.02470165,-0.06459173,0.83545583,-0.6923225,0.047286056
0.16415042,0.023932742,-0.06258114,0.8094499,-0.670772,0.04581415
0.1590408,0.02318777,-0.060633127,0.7842536,-0.64989245,0.04438806
0.15409023,0.022465989,-0.05874576,0.7598416,-0.6296628,0.043006364
0.14929377,0.021766677,-0.056917146,0.7361896,-0.61006296,0.041667677
0.14464661,0.021089135,-0.055145454,0.7132738,-0.59107316,0.040370665
0.14014414,0.020432683,-0.053428914,0.6910714,-0.5726746,0.03911403
0.13578181,0.019796666,-0.05176581,0.66956013,-0.5548487,0.037896506
