ax,ay,az,gx,gy,gz
5.607324,1.0618278,4.406404,75.40705,-103.20548,-21.80656
5.429924,1.5726825,4.853614,63.441032,-101.783,-12.434189
4.932273,1.4525673,4.8269157,63.156635,-102.67817,-15.674513
4.7956038,1.1860777,4.630356,67.941734,-104.76585,-26.256197
5.315588,1.0954981,4.6373887,69.05974,-105.362144,-37.670418
6.807713,1.0686064,5.2233243,66.388275,-99.27904,-44.607685
8.429278,0.8641344,5.933917,64.71833,-84.316505,-49.478584
9.881185,0.4729202,6.4696403,64.39356,-61.985653,-52.135082
10.873204,0.11474232,6.584804,63.576847,-36.544643,-51.646698
11.485324,-0.21284716,6.341557,63.827766,-12.098293,-47.958504
12.072182,-0.47645736,6.0210114,63.544514,11.728438,-42.022045
12.619325,-0.71411455,5.6560655,63.64906,36.73117,-34.752438
13.087631,-0.95035577,5.1869264,64.89275,63.481964,-27.244738
13.507542,-1.1279517,4.620431,65.99154,93.10938,-19.16938
13.88855,-1.1946913,3.9514136,66.59474,126.6511,-10.194125
14.310041,-1.0078639,3.1803114,67.019035,160.90463,-1.1783776
14.740995,-0.5975168,2.3309684,69.11449,195.55841,4.965982
15.187603,-0.14584316,1.3291677,70.25355,228.51541,7.9637475
15.562838,0.26728687,0.13330226,67.8499,257.9926,9.812578
15.835864,0.59646577,-1.1282656,60.172985,282.56268,12.455588
15.963331,0.89198256,-2.4013917,51.692062,303.7775,15.646495
15.940999,1.2531688,-3.6402993,44.27427,321.29916,16.826809
15.795964,1.6616387,-4.7944837,38.83357,335.59958,14.518872
15.445623,2.1070414,-5.89603,34.47171,345.81976,9.881474
14.755697,2.5839972,-6.9988217,31.742271,346.9797,2.0327802
13.77262,2.9985182,-8.090512,29.376001,340.5126,-7.9507375
12.8070755,3.2702787,-9.123277,26.451082,327.4971,-19.072136
11.880349,3.3533418,-10.088973,23.428724,309.56033,-30.586973
10.977844,3.2631083,-10.978674,22.314672,287.25607,-42.301434
10.164744,3.049846,-11.764404,22.331146,258.39423,-52.28562
9.535497,2.7225916,-12.428599,22.907803,225.31706,-60.552303
9.25049,2.2919142,-12.966688,25.586658,189.4742,-67.545525
9.556108,1.6785208,-13.167245,30.757261,154.46991,-71.30316
10.558272,0.95507723,-12.640282,37.784966,128.98402,-68.22174
11.49551,0.3643913,-11.741664,48.21893,120.15869,-58.418747
11.654933,0.13850573,-11.086361,59.930946,113.34359,-47.237167
11.653007,0.26666656,-10.425629,72.475525,106.87284,-34.47136
11.581777,1.3267965,-9.654369,79.958405,101.02895,-26.171398
11.38279,2.983801,-8.673572,80.24929,97.09484,-29.34307
11.173751,4.28394,-7.8594875,68.12437,96.75384,-33.505894
10.769198,5.1595035,-7.5922723,49.254406,96.32245,-38.41839
10.338954,5.586853,-7.6652956,30.747478,95.987144,-47.277878
9.910387,5.5042167,-8.010394,16.770567,94.43172,-59.57841
9.469528,4.964254,-8.450203,9.006148,90.597336,-73.377174
9.061364,4.093247,-8.824531,6.2320747,83.20933,-83.009254
8.708744,3.0455985,-9.085727,5.6507063,73.24652,-87.049644
8.421546,2.0512419,-9.285791,7.7772446,60.88223,-87.156624
8.30488,1.1660408,-9.36825,11.810285,47.232403,-84.88746
8.4214525,0.4002795,-9.265174,17.019964,34.54928,-79.005035
8.769467,-0.21275766,-8.902051,24.618986,27.209108,-67.7882
9.057921,-0.50319153,-8.413476,33.58117,24.414024,-54.05842
9.16955,-0.44968763,-7.966484,41.42633,23.45127,-39.902214
8.971762,0.08104162,-7.539992,46.10847,21.744154,-30.458002
8.598063,0.79682016,-7.048037,48.113396,19.149061,-27.640053
8.239819,1.4308231,-6.520345,45.20726,16.806139,-26.069304
7.847702,1.9405684,-6.080755,40.236748,14.2211685,-26.393368
7.537096,2.2418265,-5.717304,34.755043,12.015449,-27.789415
7.2596707,2.3898017,-5.444001,29.061346,10.185463,-29.53908
6.962781,2.429763,-5.2569356,23.703207,8.532697,-31.754463
6.6507406,2.3930287,-5.1338778,19.068285,6.5847554,-34.213207
6.356849,2.3170192,-5.063655,14.927889,4.3308177,-36.236324
6.0572743,2.2184005,-5.05061,12.275052,1.3114378,-38.33493
5.861514,2.1467056,-4.8873835,11.878345,1.2690545,-37.096016
5.672516,2.0774877,-4.729795,11.49534,1.2281352,-35.899895
5.490007,2.0106459,-4.577617,11.125486,1.1886209,-34.744843
5.313728,1.9460859,-4.430634,10.768257,1.1504554,-33.629215
5.1434336,1.8837178,-4.2886415,10.423156,1.1135856,-32.551468
4.978891,1.8234562,-4.1514444,10.089711,1.0779611,-31.51012
4.8198795,1.7652202,-4.018859,9.767474,1.043534,-30.503777
4.6661882,1.7089328,-3.89071,9.45602,1.010259,-29.531107
4.517618,1.6545208,-3.7668307,9.1549425,0.9780926,-28.590843
4.3739777,1.6019143,-3.647062,8.863855,0.9469936,-27.68178
4.2350855,1.5510467,-3.5312524,8.582391,0.9169225,-26.802767
4.100768,1.5018547,-3.4192574,8.310197,0.88784194,-25.952705
3.9708598,1.4542774,-3.3109388,8.046938,0.859716,-25.13055
3.8452022,1.408257,-3.2061644,7.7922935,0.8325104,-24.335297
3.7236443,1.363738,-3.1048083,7.5459566,0.80619234,-23.565987
3.606041,1.3206671,-3.0067496,7.307634,0.7807305,-22.821707
3.4922533,1.2789938,-2.9118724,7.077043,0.7560947,-22.101574
3.3821483,1.2386693,-2.820066,6.8539157,0.7322563,-21.404747
3.2755985,1.1996467,-2.7312238,6.637993,0.7091876,-20.730421
3.1724815,1.1618814,-2.645244,6.4290266,0.6868622,-20.07782
3.0726798,1.1253303,-2.5620282,6.2267785,0.6652544,-19.446201
2.9760804,1.089952,-2.4814827,6.03102,0.6443401,-18.834848
2.8825753,1.0557069,-2.4035172,5.8415318,0.6240956,-18.243076
2.7920594,1.0225567,-2.3280444,5.658102,0.6044984,-17.670227
2.7044332,0.9904646,-2.2549808,5.480528,0.58552676,-17.115664
2.6195998,0.95939547,-2.184246,5.3086133,0.5671598,-16.578773
2.5374665,0.92931515,-2.1157625,5.14217,0.5493774,-16.058973
2.4579437,0.90019095,-2.0494556,4.981017,0.5321602,-15.555694
2.3809452,0.8719912,-1.9852536,4.82498,0.5154895,-15.06839
2.306388,0.84468555,-1.9230871,4.6738896,0.49934745,-14.596536
2.234192,0.8182447,-1.8628895,4.527585,0.48371658,-14.1396265
2.1642802,0.7926403,-1.8045963,4.3859086,0.46858022,-13.697172
2.096578,0.7678453,-1.7481456,4.24871,0.45392224,-13.268702
2.0310133,0.74383307,-1.6934773,4.115844,0.43972713,-12.853762
1.9675174,0.7205785,-1.6405338,3.9871695,0.42597985,-12.451912
1.9060229,0.69805694,-1.5892591,3.8625512,0.4126659,-12.062729
1.8464655,0.67624474,-1.5395997,3.7418582,0.39977136,-11.685805
1.7887827,0.6551192,-1.4915032,3.624964,0.38728267,-11.320745
1.7329143,0.63465804,-1.4449196,3.511747,0.3751868,-10.967169
1.678802,0.61484015,-1.3998003,3.4020884,0.36347115,-10.624706
1.6263897,0.5956448,-1.3560985,3.295875,0.3521236,-10.293002
1.5756232,0.5770521,-1.3137687,3.1929965,0.34113228,-9.971713
1.5264496,0.55904293,-1.2727674,3.0933466,0.3304859,-9.660507
1.4788184,0.5415986,-1.2330521,2.996822,0.32017344,-9.359061
1.4326805,0.5247012,-1.194582,2.9033237,0.3101843,-9.067066
1.3879884,0.50833327,-1.1573173,2.8127553,0.3005082,-8.784222
1.3446963,0.4924781,-1.1212199,2.725024,0.29113516,-8.510237
1.3027598,0.47711936,-1.0862528,2.6400397,0.28205565,-8.244831
1.2621359,0.46224135,-1.0523803,2.5577154,0.27326033,-7.987733
1.2227831,0.4478289,-1.0195676,2.477967,0.2647402,-7.7386794
1.1846613,0.43386728,-0.9877812,2.4007132,0.25648656,-7.4974165
1.1477315,0.4203422,-0.95698893,2.3258753,0.24849106,-7.2636976
1.1119562,0.40724,-0.9271592,2.2533767,0.2407455,-7.0372853
1.0772991,0.39454725,-0.8982618,2.1831443,0.23324202,-6.8179493
1.0437249,0.3822511,-0.8702673,2.115106,0.22597298,-6.6054664
1.0111995,0.3703391,-0.8431473,2.0491934,0.21893102,-6.3996215
0.97968984,0.3587991,-0.81687427,1.9853393,0.212109,-6.2002053
0.94916415,0.3476194,-0.79142165,1.923479,0.20549999,-6.0070157
0.9195914,0.3367888,-0.7667636,1.86355,0.1990973,-5.8198576
0.8909418,0.3262962,-0.74287534,1.8054914,0.19289447,-5.638541
0.86318624,0.3161311,-0.71973246,1.7492449,0.18688522,-5.462884
0.83629674,0.30628315,-0.6973118,1.6947534,0.18106349,-5.292707
0.81024617,0.29674247,-0.6755906,1.641962,0.17542337,-5.1278396
0.78500825,0.2874994,-0.654547,1.5908173,0.1699592,-4.9681153
0.7605575,0.2785446,-0.6341597,1.5412679,0.16466546,-4.8133726
0.7368692,0.26986906,-0.6144082,1.4932637,0.1595368,-4.6634555
0.7139196,0.26146406,-0.5952726,1.4467565,0.15456806,-4.5182137
0.69168556,0.25332114,-0.57673365,1.4016992,0.14975426,-4.3775
0.6701447,0.24543205,-0.5587727,1.3580467,0.14509052,-4.2411733
0.6492753,0.2377889,-0.5413716,1.3157549,0.14057218,-4.1090965
0.6290564,0.23038399,-0.5245129,1.2747813,0.13619465,-3.981136
0.6094677,0.22320986,-0.50817966,1.2350849,0.13195357,-3.8571641
0.59048945,0.21625932,-0.49235544,1.1966255,0.12784466,-3.7370558
0.5721026,0.20952538,-0.47702432,1.1593646,0.1238638,-3.6206903
0.5542887,0.20300126,-0.46217093,1.1232648,0.12000698,-3.5079508
0.53702986,0.19668043,-0.44778037,1.0882897,0.11627033,-3.3987238
0.52030873,0.19055653,-0.43383813,1.0544045,0.112650104,-3.2929003
0.50410855,0.18462342,-0.4203303,1.0215749,0.10914266,-3.1903734
0.48841307,0.17887513,-0.40724322,0.98976797,0.10574449,-3.0910406
0.4732065,0.17330593,-0.39456385,0.9589519,0.102452174,-2.9948022
0.45847362,0.16791019,-0.38227946,0.92909575,0.09926241,-2.9015617
0.44419962,0.16268253,-0.37037766,0.90016955,0.096172005,-2.8112252
0.43037024,0.15761769,-0.3588466,0.87214434,0.093177855,-2.7237027
0.4169716,0.1527106,-0.34767467,0.844992,0.090276964,-2.638906
0.4039902,0.14795634,-0.3368507,0.81868523,0.08746641,-2.5567503
0.39141315,0.14335014,-0.3263638,0.7931978,0.084743395,-2.477153
0.37922773,0.13888739,-0.3162035,0.76850414,0.08210518,-2.400035
0.3674218,0.13456361,-0.30635962,0.74457943,0.07954913,-2.325318
0.35598353,0.13037449,-0.29682228,0.7213998,0.077072665,-2.2529283
0.34490144,0.1263158,-0.28758192,0.69894195,0.07467332,-2.1827924
0.3341644,0.12238351,-0.2786293,0.67718345,0.07234869,-2.1148407
0.32376173,0.11857366,-0.26995546,0.6561024,0.07009644,-2.0490048
0.31368297,0.11488244,-0.26155168,0.6356778,0.06791433,-1.9852188
0.303918,0.111306146,-0.2534096,0.61588913,0.06580015,-1.923419
0.2944571,0.10784121,-0.245521,0.59671664,0.06375181,-1.8635434
0.28529078,0.104484156,-0.23787802,0.5781411,0.06176724,-1.805532
0.27640983,0.10123163,-0.23047303,0.5601439,0.05984446,-1.7493268
0.2678054,0.09808036,-0.22329856,0.542707,0.057981547,-1.6948715
0.25946885,0.09502721,-0.21634749,0.52581304,0.056176633,-1.6421117
0.25139186,0.092069104,-0.20961282,0.509445,0.054427914,-1.5909945
0.24356633,0.089203104,-0.2030878,0.4935866,0.052733637,-1.5414686
0.23598443,0.086426325,-0.19676594,0.4782219,0.051092107,-1.4934847
0.22863857,0.083735995,-0.19064091,0.46333554,0.049501684,-1.4469947
0.2215214,0.081129424,-0.18470655,0.44891262,0.047960773,-1.401952
0.2146258,0.078604,-0.17895694,0.4349387,0.046467833,-1.3583115
0.20794487,0.0761572,-0.17338632,0.4213998,0.04502137,-1.3160297
0.20147194,0.073786564,-0.16798912,0.4082824,0.04361994,-1.2750641
0.1952005,0.07148973,-0.16275994,0.39557338,0.042262133,-1.2353737
0.1891243,0.0692644,-0.15769355,0.38325995,0.040946595,-1.1969191
0.18323725,0.06710834,-0.15278488,0.37132987,0.039672013,-1.1596615
0.17753348,0.0650194,-0.14802901,0.3597712,0.03843711,-1.1235638
0.17200725,0.06299549,-0.1434212,0.3485723,0.037240647,-1.0885897
0.16665307,0.061034586,-0.13895683,0.33772203,0.036081433,-1.0547044
0.16146554,0.05913472,-0.13463143,0.32720956,0.034958303,-1.021874
0.15643951,0.057294,-0.13044068,0.31702432,0.033870135,-0.99006546
0.15156993,0.05551058,-0.12638038,0.30715612,0.03281584,-0.9592471
0.14685194,0.053782675,-0.12244648,0.2975951,0.031794365,-0.92938817
0.14228082,0.05210856,-0.11863503,0.28833175,0.030804688,-0.9004587
