ax,ay,az,gx,gy,gz
-2.7018425,-0.38727623,-2.0618367,-36.51033,134.66669,-57.317795
-2.3812554,-1.6254823,-2.4702468,-31.386724,137.24405,-46.81656
-1.9827093,-2.1595197,-2.43882,-28.028797,135.20033,-21.232948
-1.5254798,-2.134667,-2.2119272,-25.500229,138.4109,0.62517744
-1.3499784,-2.3582826,-2.3534114,-22.1789,141.07576,10.690014
-1.3276409,-2.8326952,-2.6909428,-14.781352,142.20312,12.890531
-1.2043757,-3.423487,-2.9748354,-6.0770807,143.94666,15.16253
-1.0987694,-3.9084952,-3.2660234,1.9040821,142.42476,23.66538
-1.221114,-4.0813494,-3.638036,8.750883,137.49461,32.76605
-1.4077293,-4.0550313,-3.964018,16.265783,130.4393,38.81685
-1.5250015,-3.9347966,-4.213341,24.46097,122.82698,42.21572
-1.5803978,-3.76604,-4.428781,31.81337,114.353645,44.930775
-1.6217319,-3.5627348,-4.641079,37.042835,103.449356,48.462765
-1.6778315,-3.3128366,-4.852329,40.94717,91.27054,52.05968
-1.6921945,-3.0227866,-5.020418,44.18386,78.220695,54.618652
-1.6369232,-2.6934586,-5.1497054,47.177185,65.14402,56.203438
-1.5161229,-2.3621693,-5.2306,49.88225,52.65074,57.16648
-1.3605734,-2.0473137,-5.2848577,51.92509,41.077675,58.152786
-1.2029048,-1.7513663,-5.329473,53.26249,30.180126,59.35179
-1.0412973,-1.4475895,-5.3479676,54.022995,19.497269,60.443317
-0.86035603,-1.1209035,-5.3215857,53.980007,9.243403,61.44594
-0.6404089,-0.75131625,-5.2205167,52.98732,-0.006749625,62.00744
-0.39427644,-0.35442668,-5.064504,50.858906,-7.874356,61.305504
-0.109183386,0.04769813,-4.8572865,47.993298,-14.618281,59.85547
0.19436115,0.44653562,-4.6042476,44.0621,-19.949715,57.979504
0.47756806,0.830711,-4.3414106,38.952717,-24.144316,55.571316
0.7464895,1.1785586,-4.0731206,33.167103,-27.289448,52.52495
1.0235916,1.4839948,-3.7839792,26.134943,-28.865618,49.190533
1.2772987,1.6947929,-3.5091462,18.68024,-29.018253,46.260014
1.4400676,1.8278294,-3.2909865,11.014088,-28.329344,43.56578
1.5129966,1.8924437,-3.120399,3.3285108,-27.178822,40.747875
1.5244304,1.9075212,-2.9842777,-3.9493644,-25.846954,37.440876
1.4953982,1.9033782,-2.865045,-10.569729,-24.446152,33.10408
1.4396648,1.8771989,-2.7363095,-16.71661,-23.273632,28.230556
1.3982407,1.7849576,-2.6051512,-22.329782,-22.372166,23.182896
1.3818735,1.6155564,-2.4756606,-27.011204,-21.554873,18.47651
1.3786634,1.4009691,-2.3391347,-30.74275,-20.591883,14.234145
1.3668292,1.1832064,-2.2004066,-33.56046,-19.466518,10.483722
1.3269256,0.96883136,-2.0699456,-35.89295,-18.361477,7.254436
1.2598668,0.7689326,-1.9499754,-37.8456,-17.348625,4.5208015
1.1688507,0.57686406,-1.8434955,-39.352566,-16.528255,2.0810187
1.0793936,0.38879704,-1.7464824,-40.2245,-15.782128,-0.25963953
1.0027124,0.21043575,-1.6540806,-40.528267,-15.088528,-2.4425333
0.9535203,0.038618114,-1.546644,-40.3797,-14.384124,-3.7728798
0.911606,-0.112817556,-1.4362285,-40.058018,-13.517496,-4.409901
0.85980755,-0.24758402,-1.3361061,-39.558937,-12.48572,-4.67449
0.792301,-0.38272837,-1.2600983,-38.62749,-11.549173,-4.9050055
0.71899617,-0.5179741,-1.198496,-37.09961,-10.859986,-5.073819
0.6706505,-0.6548298,-1.1351317,-35.256207,-10.34823,-5.040242
0.6492008,-0.79777706,-1.0632157,-32.984802,-9.75113,-4.6437883
0.64619225,-0.920788,-0.977811,-30.59189,-8.998198,-3.698757
0.6439372,-1.0260785,-0.898578,-28.096441,-7.942371,-2.3885803
0.6291399,-1.1176114,-0.849684,-25.167753,-6.7329855,-1.0629646
0.59055054,-1.2004485,-0.84753245,-22.006044,-5.780176,0.26561275
0.54435235,-1.2767266,-0.86162716,-18.620197,-5.168137,1.7490155
0.5063231,-1.3400652,-0.8813413,-15.040729,-4.7840624,3.3389559
0.4887199,-1.384916,-0.90665025,-11.280695,-4.4320774,5.065594
0.4835182,-1.3998959,-0.9409093,-7.5985103,-4.1468196,7.0399103
0.48882642,-1.3597811,-0.9833173,-3.898671,-3.921602,9.017268
0.48879948,-1.2819718,-1.0300164,-0.3541741,-3.9708,10.751403
0.4884812,-1.1893333,-1.0801685,2.9939754,-4.109473,12.341105
0.48383275,-1.0960823,-1.1485866,6.2367754,-4.369837,13.84749
0.47207433,-1.0014197,-1.2381214,9.3096285,-4.8835077,15.569776
0.45362842,-0.89999914,-1.3443289,12.240932,-5.641158,17.54743
0.43703845,-0.76756984,-1.4491743,14.93019,-6.6928983,19.767473
0.42162487,-0.6195607,-1.559046,17.286606,-8.208483,22.305649
0.40564492,-0.47180146,-1.674866,19.338076,-10.288768,25.274044
0.39465144,-0.30241662,-1.7850785,20.465012,-12.898231,28.763084
0.4077249,-0.124960534,-1.8789073,21.140835,-15.488198,32.09783
0.42830068,0.0700584,-1.9589145,21.37948,-18.28732,35.03685
0.4637288,0.28949624,-2.0115802,20.784285,-21.142826,37.710823
0.508919,0.5255629,-2.0369346,19.498556,-23.802662,39.519775
0.5600776,0.76703584,-2.0508132,17.687437,-25.740824,39.910328
0.6081874,1.0479063,-2.0534515,15.618532,-27.41575,38.623276
0.6619724,1.341827,-2.0463095,13.008482,-29.109192,35.657604
0.7432373,1.6299276,-2.0172813,9.504587,-30.615862,31.738272
0.84818465,1.884129,-1.9796847,4.8087273,-31.708723,27.6902
0.9583083,2.0712535,-1.9405951,-0.92181957,-32.13567,23.816208
1.0417608,2.19027,-1.8845036,-7.232961,-32.142403,20.050585
1.1093967,2.2311852,-1.8114996,-13.849783,-31.721706,15.741021
1.1790701,2.1593828,-1.7416089,-19.958775,-31.297298,10.980294
1.2636555,1.9753996,-1.663424,-25.682634,-30.830814,6.72263
1.3492967,1.6927317,-1.5806746,-30.681004,-30.402386,4.0054393
1.4081081,1.337898,-1.4696139,-34.87042,-29.889837,2.474923
1.4373871,0.9860088,-1.3485688,-37.93231,-29.115648,1.6646304
1.4367156,0.6681993,-1.2296041,-39.717632,-28.046143,0.8533979
1.416262,0.3934253,-1.113213,-40.530334,-26.884361,-0.17519698
1.394641,0.15068433,-0.99977857,-40.440266,-25.610266,-0.9853076
1.3618567,-0.04849399,-0.90017575,-39.970333,-24.319311,-1.0883566
1.313473,-0.19784242,-0.81451946,-39.207363,-22.97183,-0.60092264
1.2483306,-0.29477122,-0.7410428,-38.155037,-21.537117,-0.06969209
1.168939,-0.34967205,-0.6874317,-36.809246,-20.102018,0.20006941
1.0854568,-0.37497482,-0.6501994,-35.31504,-18.941631,0.2874328
1.0177897,-0.38239175,-0.6130811,-33.934948,-17.951664,0.47517005
0.9651493,-0.3837559,-0.57519644,-32.671013,-16.98726,0.8135384
0.92014396,-0.37804073,-0.5459821,-31.483265,-16.005589,1.2767245
0.8780592,-0.35993806,-0.5338526,-30.296724,-15.133108,1.8378764
0.83745736,-0.32790378,-0.5319819,-29.147587,-14.589553,2.2268152
0.80935204,-0.2892543,-0.52748287,-28.065174,-14.173732,2.3708384
0.7894414,-0.26303634,-0.5229693,-27.011114,-13.767188,2.4264185
0.78121346,-0.2483871,-0.51859766,-26.079784,-13.337202,2.6708946
0.7850476,-0.23794548,-0.511803,-25.236809,-12.838764,3.1135287
0.7945994,-0.22230594,-0.5010382,-24.496557,-12.171163,3.6680114
0.80144787,-0.21059102,-0.48539862,-23.768122,-11.383526,4.2146053
0.8045236,-0.2089497,-0.46712893,-23.049189,-10.553945,4.696421
0.80943745,-0.21378788,-0.4453758,-22.42139,-9.792291,5.111701
0.7841837,-0.20711787,-0.43148044,-21.721863,-9.486779,4.95222
0.7597213,-0.20065689,-0.41802055,-21.044254,-9.190842,4.7977366
0.73602515,-0.19439828,-0.40498224,-20.387873,-8.904174,4.6480927
0.71307105,-0.18833566,-0.39235222,-19.752045,-8.626483,4.5031343
0.69083536,-0.1824628,-0.3801175,-19.136116,-8.357484,4.3627133
0.66929543,-0.1767737,-0.36826563,-18.539461,-8.096901,4.226686
0.64842933,-0.17126255,-0.35678446,-17.961472,-7.84447,4.094914
0.6282157,-0.16592374,-0.34566236,-17.401554,-7.5999327,3.967262
0.60863394,-0.16075183,-0.33488792,-16.85914,-7.36304,3.843601
0.5896642,-0.15574157,-0.32445022,-16.33368,-7.1335506,3.7238047
0.5712872,-0.15088785,-0.31433868,-15.824637,-6.911232,3.6077516
0.55348426,-0.14618576,-0.304543,-15.331496,-6.6958585,3.495324
0.53623736,-0.14163052,-0.29505324,-14.853758,-6.4872117,3.3864074
0.519529,-0.13721752,-0.28585982,-14.390936,-6.2850795,3.280892
0.5033423,-0.13294229,-0.2769534,-13.942564,-6.0892577,3.1786704
0.48766074,-0.1288005,-0.26832497,-13.508186,-5.8995485,3.0796397
0.4724686,-0.12478798,-0.25996584,-13.087365,-5.7157593,2.9836996
0.45775056,-0.12090065,-0.25186753,-12.679675,-5.5377054,2.890753
0.44349167,-0.11713461,-0.24402188,-12.284704,-5.3652062,2.8007064
0.42967755,-0.11348604,-0.23642096,-11.902055,-5.198088,2.7134686
0.41629434,-0.10995127,-0.22905712,-11.531339,-5.0361824,2.6289518
0.40332845,-0.10652674,-0.22192293,-11.172185,-4.879326,2.5470707
0.3907669,-0.103209,-0.2150112,-10.82423,-4.7273607,2.4677427
0.378597,-0.09999469,-0.20831497,-10.487124,-4.5801334,2.3908882
0.3668065,-0.0968806,-0.2018275,-10.160528,-4.437496,2.3164299
0.35538357,-0.09386358,-0.19554226,-9.844113,-4.2993054,2.2442925
0.34431666,-0.0909406,-0.18945295,-9.53756,-4.165422,2.1744037
0.3335947,-0.088108726,-0.18355341,-9.240562,-4.035712,2.106693
0.32320687,-0.0853651,-0.17783773,-8.95282,-3.9100432,2.0410926
0.31314278,-0.08270698,-0.17230016,-8.674045,-3.7882912,1.9775364
0.30339226,-0.08013168,-0.16693516,-8.403955,-3.670333,1.9159608
0.29394555,-0.07763663,-0.16173731,-8.1422825,-3.55605,1.8563037
0.28479317,-0.07521931,-0.15670142,-7.888762,-3.445328,1.7985053
0.27592593,-0.0728773,-0.1518224,-7.64314,-3.3380551,1.7425075
0.26733494,-0.07060826,-0.14709538,-7.4051695,-3.2341244,1.6882542
0.25901157,-0.0684099,-0.14251563,-7.174612,-3.133431,1.635691
0.25094748,-0.066280015,-0.13807853,-6.9512367,-3.0358744,1.5847652
0.24313454,-0.06421647,-0.13377963,-6.734819,-2.9413564,1.5354257
0.23556496,-0.062217202,-0.12961462,-6.5251417,-2.8497822,1.4876227
0.22823115,-0.0602802,-0.12557936,-6.3219953,-2.7610605,1.4413089
0.22112575,-0.05840353,-0.121669754,-6.125176,-2.6751018,1.3964373
0.21424162,-0.0565853,-0.11788192,-5.934486,-2.59182,1.3529632
0.2075719,-0.0548237,-0.114212036,-5.749735,-2.511132,1.310843
0.20110987,-0.053116955,-0.11065645,-5.570737,-2.4329567,1.2700346
0.19484909,-0.051463358,-0.107211575,-5.397313,-2.357216,1.2304968
0.18878324,-0.049861256,-0.10387398,-5.22929,-2.2838335,1.1921903
0.1829063,-0.048309043,-0.10064031,-5.0664988,-2.2127361,1.1550766
0.17721234,-0.046805162,-0.097507335,-4.9087763,-2.1438527,1.1191186
0.1716957,-0.045348108,-0.09447191,-4.755965,-2.077114,1.0842801
0.16635081,-0.04393642,-0.091531,-4.607912,-2.0124536,1.0505265
0.16117235,-0.04256869,-0.08868166,-4.4644685,-1.9498063,1.0178238
0.15615511,-0.041243542,-0.085921034,-4.3254914,-1.8891097,0.9861394
0.15129408,-0.039959654,-0.083246365,-4.190841,-1.8303027,0.9554415
0.14658442,-0.03871574,-0.080654964,-4.0603833,-1.7733268,0.9256993
0.14202137,-0.037510555,-0.07814425,-3.9339874,-1.7181247,0.8968831
0.13760039,-0.03634289,-0.0757117,-3.8115265,-1.6646413,0.868964
0.13331705,-0.035211578,-0.073354885,-3.692878,-1.6128229,0.8419142
0.12916707,-0.034115486,-0.07107144,-3.5779235,-1.5626179,0.8157065
0.12514628,-0.03305352,-0.068859085,-3.466548,-1.5139759,0.79031473
0.121250674,-0.032024615,-0.06671561,-3.3586397,-1.466848,0.76571345
0.11747634,-0.031027742,-0.06463886,-3.2540908,-1.4211875,0.74187803
0.1138195,-0.030061902,-0.06262677,-3.1527965,-1.3769484,0.7187847
0.11027651,-0.02912613,-0.060677312,-3.0546558,-1.3340865,0.69641024
0.106843814,-0.02821949,-0.058788545,-2.9595702,-1.292559,0.6747323
0.10351798,-0.027341073,-0.056958575,-2.8674448,-1.2523242,0.65372926
0.100295685,-0.026490003,-0.05518557,-2.7781873,-1.213342,0.63338006
0.0971737,-0.025665427,-0.053467765,-2.691708,-1.1755732,0.61366427
0.0941489,-0.02486652,-0.051803432,-2.6079214,-1.1389803,0.5945623
0.091218255,-0.02409248,-0.05019091,-2.5267427,-1.1035265,0.57605493
0.08837885,-0.023342539,-0.048628584,-2.448091,-1.0691762,0.55812365
0.085627824,-0.022615941,-0.047114894,-2.371888,-1.0358953,0.5407506
0.08296244,-0.021911964,-0.045648325,-2.2980568,-1.0036504,0.5239184
0.08038003,-0.021229899,-0.044227406,-2.226524,-0.97240937,0.50761014
0.077878006,-0.020569066,-0.042850718,-2.1572182,-0.94214076,0.49180952
