ax,ay,az,gx,gy,gz
-0.5700052,1.109101,-0.8918263,-4.4391313,147.09589,-21.584742
-1.0850635,1.1643231,-1.3354998,5.324216,148.14226,-33.111076
-1.5584811,1.0711468,-1.5040308,7.292227,143.6812,-37.46054
-1.8423401,0.81137,-1.5458854,4.1473722,138.12181,-34.087452
-1.9168553,0.46620557,-1.6165442,-0.59677106,134.00345,-22.53262
-1.8427398,0.0018068916,-1.7743316,-0.49801147,131.3418,-10.783726
-1.7552851,-0.27163097,-1.8455051,1.0975381,128.55493,-2.214563
-1.6676604,-0.5935071,-1.8612756,3.1915634,126.25978,2.4969654
-1.5286285,-1.0577664,-1.9602911,5.762778,123.62726,5.80497
-1.3485591,-1.6251074,-2.1612523,10.249384,120.061356,10.45516
-1.2013186,-2.1876407,-2.445252,15.789153,115.574684,15.656921
-1.125821,-2.6150775,-2.7544339,22.016722,110.392166,21.122915
-1.127599,-2.8599796,-3.0745037,28.261547,103.92529,26.230804
-1.1866364,-2.9797225,-3.4087658,34.616737,96.48531,30.250378
-1.2630835,-3.0102825,-3.7337673,41.140137,87.86926,33.436363
-1.3226178,-2.8895783,-4.0153594,47.023804,78.56103,36.238125
-1.3337688,-2.6894503,-4.239271,52.152435,69.00617,39.03717
-1.3071514,-2.421774,-4.398922,56.29023,59.699234,42.108208
-1.2787404,-2.1029735,-4.511955,59.69256,50.72272,45.050934
-1.2535954,-1.7398063,-4.5939074,61.844482,41.73356,47.50888
-1.2062767,-1.3488418,-4.6463575,63.221092,32.938152,49.357365
-1.126293,-0.96919024,-4.678617,63.877342,24.529842,50.809093
-1.0444921,-0.59380853,-4.7123456,63.91239,16.156267,52.23045
-0.9585884,-0.14760424,-4.7114515,62.677402,7.875153,53.096878
-0.83200043,0.37088978,-4.647368,59.617905,0.650794,51.836113
-0.62201715,0.9091904,-4.523438,55.624306,-4.973379,48.857994
-0.36193967,1.4273541,-4.355737,50.445675,-9.303261,45.12727
-0.08490666,1.9016784,-4.1584005,44.01218,-12.5813,41.683277
0.16808972,2.3646293,-3.9461644,35.863834,-14.851917,38.463634
0.36475757,2.7523327,-3.7313378,26.426643,-16.187979,34.31333
0.52226853,3.009547,-3.4860234,16.735237,-16.794086,29.368542
0.655433,3.119548,-3.2431493,6.9250865,-16.684427,24.135456
0.7513853,3.040085,-3.0474823,-2.1212285,-16.246304,19.036564
0.820564,2.7947114,-2.9049773,-9.551014,-15.846653,14.226737
0.8890473,2.4583323,-2.7854824,-15.240987,-15.555985,9.97418
0.9508764,2.0576444,-2.6626449,-19.789467,-15.343524,6.2881846
0.99725133,1.6549633,-2.5322468,-23.383255,-15.1602545,3.1277792
1.0342023,1.2538937,-2.3991578,-26.024364,-14.894795,0.48356658
1.0734395,0.86910033,-2.2602804,-27.712831,-14.3895,-1.5822682
1.102603,0.51780957,-2.1188338,-28.500538,-13.475009,-2.6782434
1.0947244,0.2014153,-2.0017507,-28.387955,-12.554009,-3.3922825
1.0434388,-0.059848413,-1.9052308,-27.579817,-11.770908,-3.8442116
0.9785974,-0.28217438,-1.8117712,-26.334303,-11.10491,-3.90935
0.9219673,-0.47442734,-1.7161257,-24.837168,-10.373087,-3.5260537
0.867577,-0.63384163,-1.6277441,-23.08771,-9.49302,-2.6976497
0.8108104,-0.75998926,-1.5508862,-21.24615,-8.486558,-1.7640016
0.7539346,-0.87944937,-1.4991852,-19.111885,-7.4731503,-0.7635219
0.69525325,-0.98911846,-1.4702657,-16.825663,-6.6934867,0.34074926
0.6475807,-1.0901701,-1.4506524,-14.308384,-6.0802827,1.6026932
0.61118144,-1.1787908,-1.4407302,-11.515926,-5.563738,3.1376293
0.5868579,-1.2702326,-1.4566922,-8.544049,-5.089946,4.9462676
0.56169134,-1.3581567,-1.4933857,-5.3300705,-4.6405215,7.15647
0.51957524,-1.4307451,-1.5624254,-1.7529622,-4.454894,9.564042
0.4641072,-1.4717999,-1.6517881,2.0957298,-4.726953,12.167378
0.4014924,-1.4777362,-1.7559153,6.2562404,-5.801715,14.944821
0.3438557,-1.4446115,-1.8650537,10.4045725,-7.338467,17.710674
0.3043676,-1.3591936,-1.9744546,14.415693,-9.132302,20.395739
0.27495828,-1.2418932,-2.0855398,18.35392,-11.221365,23.0258
0.25362647,-1.0890687,-2.1892152,21.941689,-13.73609,25.677298
0.23741737,-0.9048997,-2.2857866,24.843317,-16.942781,28.491058
0.22798395,-0.6762277,-2.3738205,27.045864,-20.446783,31.296778
0.22383758,-0.40333584,-2.4536538,28.675013,-24.25324,33.553436
0.2484693,-0.09552651,-2.5024009,29.651796,-28.213408,34.95445
0.32764515,0.22709052,-2.509675,29.71513,-31.96984,35.807186
0.4359552,0.54262084,-2.4969766,28.325068,-35.34988,36.457844
0.5376461,0.8367844,-2.4768772,25.88105,-38.322544,36.988323
0.6320709,1.1090071,-2.4613056,22.82367,-40.83631,37.22694
0.72528976,1.3752662,-2.4447248,18.932322,-42.978146,37.18804
0.823615,1.6287428,-2.4096026,14.091885,-44.587967,36.61049
0.9139309,1.8500779,-2.3678753,8.584322,-45.244774,34.931248
0.98051006,2.0276458,-2.3372812,2.7549589,-45.514336,32.414017
1.0587429,2.1481943,-2.3070984,-3.4980922,-45.36549,29.34183
1.1600469,2.2285898,-2.2596545,-10.246018,-44.73509,25.783934
1.26607,2.2352946,-2.1889083,-17.172407,-43.631836,21.793472
1.3705769,2.1464574,-2.0781932,-24.012558,-42.071743,17.682663
1.4666642,1.9322703,-1.942019,-30.26386,-40.019962,13.829972
1.5286044,1.636871,-1.8355463,-35.203663,-37.82094,10.432916
1.5584627,1.3043705,-1.7485497,-39.277264,-35.82067,7.703463
1.5819248,0.9550164,-1.6559192,-42.267258,-33.945004,5.69622
1.6064247,0.61577094,-1.5491037,-44.0463,-31.818323,4.31007
1.607514,0.31387934,-1.4396886,-45.085278,-29.460333,3.3609278
1.5709176,0.04866117,-1.3591087,-45.351055,-27.134113,2.8074424
1.4993834,-0.1735515,-1.300089,-45.078342,-25.157253,2.6576858
1.4168777,-0.35178837,-1.2444721,-44.371128,-23.479864,2.8389366
1.3258922,-0.48190093,-1.1898825,-43.21098,-22.049866,3.1773834
1.2285212,-0.571648,-1.1367558,-41.886707,-20.725,3.5375721
1.1322812,-0.62397635,-1.0856074,-40.451458,-19.38879,3.8632896
1.0413672,-0.6552826,-1.0406063,-38.908783,-18.022427,4.071409
0.9598054,-0.6710445,-1.0064747,-37.26976,-16.672775,4.1906333
0.8841267,-0.6761201,-0.9873741,-35.705803,-15.645286,4.3710976
0.8174602,-0.6792177,-0.97577167,-34.164707,-14.860739,4.6490846
0.76145613,-0.6798371,-0.96081066,-32.611317,-14.23102,5.03102
0.7151453,-0.6816265,-0.94288015,-31.034533,-13.705323,5.4849076
0.6842245,-0.68351567,-0.9231075,-29.356745,-13.123661,5.9225264
0.6692648,-0.67724323,-0.8990173,-27.651808,-12.487841,6.2432094
0.64833546,-0.6560644,-0.8709031,-26.787077,-12.09732,6.047971
0.6280664,-0.6355537,-0.84367585,-25.949627,-11.719118,5.8588915
0.60843635,-0.6156896,-0.81730694,-25.138575,-11.352839,5.675773
0.58942455,-0.59645116,-0.79176855,-24.353071,-10.998097,5.4984226
0.5710112,-0.5778183,-0.76703405,-23.59229,-10.654522,5.326654
0.55317694,-0.5597715,-0.7430775,-22.855442,-10.321753,5.1602883
0.5359034,-0.54229194,-0.7198741,-22.141754,-9.999444,4.9991527
0.51917243,-0.5253616,-0.69739956,-21.450487,-9.687261,4.8430786
0.5029668,-0.50896275,-0.67563075,-20.780926,-9.38488,4.6919055
0.48726976,-0.4930786,-0.654545,-20.132374,-9.091988,4.545476
0.47206506,-0.4776926,-0.63412064,-19.504166,-8.808282,4.4036393
0.45733702,-0.462789,-0.6143366,-18.895653,-8.533471,4.266249
0.4430705,-0.44835243,-0.5951725,-18.306208,-8.267272,4.133165
0.4292509,-0.43436804,-0.5766088,-17.735228,-8.009411,4.004249
0.41586402,-0.42082158,-0.5586263,-17.182125,-7.7596245,3.8793702
0.40289614,-0.4076991,-0.54120666,-16.646336,-7.5176563,3.7584
0.39033404,-0.39498726,-0.5243321,-16.12731,-7.2832594,3.6412148
0.37816486,-0.38267303,-0.5079854,-15.624521,-7.056195,3.5276954
0.36637625,-0.37074387,-0.49214983,-15.137454,-6.8362303,3.4177256
0.35495615,-0.35918763,-0.47680935,-14.665614,-6.6231422,3.311194
0.343893,-0.34799257,-0.46194828,-14.20852,-6.416714,3.2079916
0.33317548,-0.33714733,-0.44755158,-13.765709,-6.216736,3.1080139
0.3227928,-0.32664084,-0.4336046,-13.33673,-6.023005,3.0111592
0.31273437,-0.31646252,-0.4200932,-12.921149,-5.8353243,2.9173298
0.30299002,-0.306602,-0.40700373,-12.518545,-5.653504,2.8264298
0.2935499,-0.29704934,-0.39432287,-12.12851,-5.4773602,2.738368
0.28440443,-0.28779483,-0.38203785,-11.750649,-5.306714,2.6530547
0.27554435,-0.27882916,-0.3701362,-11.384581,-5.141394,2.570404
0.26696074,-0.2701432,-0.35860592,-11.029935,-4.981232,2.4903324
0.25864494,-0.2617283,-0.34743538,-10.686354,-4.826067,2.4127586
0.25058854,-0.25357583,-0.3366133,-10.35349,-4.6757426,2.337605
0.24278343,-0.24567768,-0.32612875,-10.031008,-4.5301065,2.264795
0.23522171,-0.23802583,-0.31597117,-9.718583,-4.389012,2.194256
0.2278958,-0.23061258,-0.30613032,-9.4159,-4.2523174,2.1259165
0.2207983,-0.22343045,-0.29659632,-9.122655,-4.119885,2.0597076
0.21392207,-0.21647225,-0.28735954,-8.8385515,-3.991581,1.9955631
0.20726018,-0.20973095,-0.2784107,-8.563305,-3.8672767,1.933418
0.20080595,-0.20319979,-0.2697408,-8.296638,-3.746847,1.8732101
0.19455288,-0.19687217,-0.2613411,-8.038281,-3.6301706,1.8148786
0.1884947,-0.19074176,-0.25320318,-7.787977,-3.5171306,1.758365
0.1826253,-0.1848024,-0.24531887,-7.5454726,-3.4076133,1.7036124
0.17693879,-0.17904809,-0.23768024,-7.310525,-3.3015084,1.6505661
0.17142946,-0.17347309,-0.23027961,-7.0828977,-3.1987095,1.5991726
0.16609177,-0.16807178,-0.22310956,-6.862363,-3.0991137,1.5493803
0.1609204,-0.16283874,-0.21616288,-6.6486983,-3.0026205,1.5011393
0.1559101,-0.15776874,-0.20943262,-6.44169,-2.9091334,1.454401
0.1510559,-0.15285666,-0.202912,-6.2411304,-2.8185587,1.4091188
0.1463529,-0.1480976,-0.19659452,-6.046818,-2.7308052,1.365247
0.1417964,-0.14348677,-0.1904738,-5.858558,-2.645785,1.3227419
0.1373818,-0.13901956,-0.18454373,-5.676162,-2.5634131,1.2815605
0.13310473,-0.13469148,-0.17879835,-5.499447,-2.4836068,1.2416619
0.12896085,-0.1304982,-0.17323191,-5.328235,-2.406286,1.2030059
0.12494601,-0.12643552,-0.16783883,-5.162356,-2.331373,1.1655537
0.12105622,-0.12249935,-0.1626137,-5.001642,-2.258793,1.1292679
0.117287554,-0.11868576,-0.1575513,-4.845934,-2.1884735,1.0941122
0.113636255,-0.11499093,-0.15264654,-4.695074,-2.1203437,1.0600511
0.11009865,-0.111411154,-0.1478945,-4.548912,-2.0543356,1.0270507
0.10667121,-0.10794285,-0.14329045,-4.4073014,-1.9903827,0.9950779
0.10335048,-0.10458254,-0.13882975,-4.2701,-1.9284211,0.9641007
0.100133166,-0.10132687,-0.13450795,-4.137171,-1.868389,0.93408805
0.09701602,-0.09817256,-0.13032073,-4.008381,-1.8102261,0.9050099
0.09399593,-0.09511647,-0.12626387,-3.8836007,-1.7538741,0.87683713
0.09106988,-0.09215553,-0.122333325,-3.7627058,-1.6992767,0.84954154
0.088234924,-0.08928678,-0.118525155,-3.645575,-1.6463792,0.8230958
0.08548823,-0.08650735,-0.11483556,-3.532091,-1.5951287,0.79747343
0.08282706,-0.08381445,-0.11126083,-3.4221401,-1.5454737,0.7726488
0.08024874,-0.0812054,-0.10779739,-3.3156123,-1.4973648,0.748597
0.07775069,-0.078677565,-0.10444179,-3.2124014,-1.4507535,0.7252941
0.075330414,-0.07622844,-0.10119065,-3.1124034,-1.4055934,0.70271665
0.072985485,-0.07385556,-0.09804073,-3.0155187,-1.3618393,0.6808421
0.07071356,-0.071556546,-0.094988875,-2.9216502,-1.3194474,0.65964854
0.068512365,-0.069329105,-0.09203202,-2.8307042,-1.2783751,0.63911474
0.06637969,-0.067171015,-0.08916723,-2.7425892,-1.2385815,0.6192202
0.06431341,-0.065080106,-0.08639162,-2.6572175,-1.2000268,0.599945
0.06231146,-0.063054286,-0.083702415,-2.5745034,-1.1626723,0.58126986
0.06037183,-0.06109153,-0.081096925,-2.4943643,-1.1264806,0.5631761
0.058492582,-0.05918988,-0.07857255,-2.41672,-1.0914156,0.54564565
0.05667183,-0.057347424,-0.076126754,-2.3414927,-1.0574422,0.52866083
0.054907765,-0.05556233,-0.0737571,-2.2686071,-1.0245264,0.5122048
0.053198613,-0.0538328,-0.07146121,-2.1979907,-0.9926352,0.49626106
0.051542666,-0.05215711,-0.069236785,-2.1295724,-0.9617368,0.48081362
0.049938265,-0.050533585,-0.067081615,-2.063284,-0.93180025,0.46584705
0.04838381,-0.0489606,-0.06499353,-1.999059,-0.9027956,0.45134637
0.04687774,-0.04743658,-0.062970445,-1.9368333,-0.8746938,0.43729708
0.04541856,-0.045959998,-0.06101033,-1.8765446,-0.8474668,0.42368516
