ax,ay,az,gx,gy,gz
-0.8827353,1.6572877,-2.2145658,-1.6091055,183.16258,-82.06529
-1.0710659,2.0302243,-2.2676604,-15.877336,180.57603,-85.50954
-1.2691453,2.1287174,-2.314306,-31.595047,179.20418,-85.47026
-1.550149,1.7867904,-2.7142467,-41.44683,176.64786,-84.986946
-1.8796237,1.3701175,-3.2220685,-43.03578,171.56346,-84.98183
-2.2487285,0.86072016,-3.6390917,-41.600525,162.87798,-82.25111
-2.5185218,0.38619196,-3.8859968,-43.14604,150.29358,-72.43688
-2.705321,-0.18485698,-4.0663276,-45.117985,138.04901,-60.71857
-2.8433433,-0.8117563,-4.3198094,-43.606876,128.09387,-51.524933
-2.9348898,-1.4387944,-4.6460185,-37.858944,118.52681,-46.82942
-2.916898,-1.991936,-4.887973,-30.644201,108.535835,-43.816307
-2.767431,-2.4482088,-5.031248,-23.618652,98.34376,-38.658463
-2.5071764,-2.7452886,-5.0713916,-16.372356,89.31007,-31.99235
-2.2650526,-2.855324,-5.1239133,-8.884099,80.63042,-24.889366
-2.0548725,-2.8253264,-5.1743956,-1.7535088,72.04356,-18.102972
-1.8988065,-2.7236855,-5.2341766,5.6808457,63.863483,-12.281982
-1.8097409,-2.5736527,-5.3269944,13.853317,55.49535,-7.635885
-1.7373847,-2.3118489,-5.3936644,21.454903,46.682205,-3.6403284
-1.6131244,-1.9766067,-5.397517,27.430063,38.0399,0.43874967
-1.4849763,-1.6116748,-5.383374,31.681421,29.83659,4.5784965
-1.3985182,-1.2293686,-5.382065,34.619835,22.04124,8.136955
-1.318003,-0.77075833,-5.3460984,35.9938,14.18254,9.34589
-1.2094905,-0.26809728,-5.2390885,36.2461,6.8285947,8.523765
-1.0537428,0.2350005,-5.063718,34.985195,0.06117934,6.305575
-0.8680134,0.68594503,-4.8566675,32.87925,-6.130657,3.5832968
-0.6417846,1.1257586,-4.5923347,29.961946,-11.641834,0.8265027
-0.37762013,1.576446,-4.2640266,25.119822,-15.682442,-1.3405857
-0.14939925,1.9970402,-3.920371,18.82312,-18.628786,-3.1346912
0.013227223,2.3173907,-3.602156,11.759515,-20.586393,-5.0498424
0.12839293,2.5055628,-3.32491,4.3416805,-21.93801,-7.2168665
0.2417707,2.563893,-3.0695078,-3.161074,-22.609303,-9.369909
0.38105878,2.4519618,-2.8424013,-9.730366,-22.282883,-11.591333
0.50407994,2.2726307,-2.6495657,-15.193572,-21.344683,-13.606761
0.5867864,2.0350769,-2.488774,-19.676731,-20.227032,-15.58388
0.6409309,1.7454801,-2.3421412,-23.162548,-19.161821,-17.59314
0.67740387,1.4109848,-2.2034566,-25.653923,-18.252369,-19.24801
0.7187662,1.0692981,-2.0580504,-27.10063,-17.294239,-19.932821
0.74807423,0.7542826,-1.9142429,-27.832788,-16.26016,-19.93608
0.75756854,0.4774162,-1.7814229,-27.857555,-15.10218,-19.609852
0.746834,0.23233737,-1.6637754,-27.405802,-13.840252,-19.113733
0.71773064,0.008936278,-1.5668248,-26.263304,-12.587817,-18.655958
0.68427265,-0.18878263,-1.4773328,-24.776043,-11.282405,-18.135614
0.6575574,-0.3808139,-1.4081213,-23.061556,-9.832897,-17.386522
0.626923,-0.56838864,-1.365193,-21.064173,-8.401097,-16.273863
0.59041977,-0.7391096,-1.3406856,-18.891308,-7.079494,-14.65322
0.54960877,-0.8923528,-1.3328431,-16.478682,-5.8302526,-12.574508
0.4971235,-1.0285406,-1.3423404,-13.588326,-4.695739,-10.377204
0.42986122,-1.1435913,-1.3832803,-10.478358,-3.7392151,-8.277518
0.35482422,-1.254378,-1.4560281,-7.05377,-3.020737,-6.197368
0.27579874,-1.3622493,-1.5529941,-3.2842727,-2.566527,-4.1682715
0.19904222,-1.46204,-1.6716807,0.783045,-2.348226,-2.131775
0.12201652,-1.5473862,-1.821142,5.39856,-2.783582,-0.23302469
0.06181625,-1.593542,-1.9866698,10.332046,-3.7427158,1.6690133
0.018048659,-1.5825473,-2.1459758,15.222225,-5.1307106,3.8020494
-0.017598303,-1.5190234,-2.2977674,20.009396,-6.9927926,6.1711717
-0.047180805,-1.3935513,-2.4379652,24.592154,-9.372497,8.706894
-0.06795711,-1.2068876,-2.5570037,28.662577,-12.520432,11.399021
-0.059306484,-0.94762516,-2.638346,32.21189,-16.028687,14.247932
-0.021889877,-0.6280969,-2.6855094,34.982006,-19.736296,17.068556
0.04149322,-0.23744808,-2.689825,36.657684,-23.387697,19.433096
0.11631638,0.18340695,-2.657933,37.00938,-26.650618,21.042168
0.18958937,0.58052284,-2.6170819,36.06744,-29.623331,21.412434
0.28028747,0.93416387,-2.5668244,34.314003,-32.547924,21.627787
0.39081025,1.2613696,-2.491315,31.534773,-35.1314,22.081724
0.4952541,1.5588733,-2.4148588,27.89265,-37.21181,22.504341
0.56909686,1.8182546,-2.3655758,23.496864,-38.972324,22.461786
0.62370354,2.0183861,-2.343284,18.287945,-40.485302,21.54631
0.68257606,2.1571178,-2.3376765,12.735596,-41.740192,20.306402
0.7611869,2.2104812,-2.3064203,7.0014534,-42.49288,19.092585
0.82495475,2.2240815,-2.2699602,1.056321,-42.83698,17.798725
0.8672394,2.1913476,-2.239427,-4.733497,-42.98497,16.060186
0.908725,2.1169665,-2.1955993,-10.420476,-42.8913,13.88253
0.94398093,1.9762012,-2.1123524,-16.082268,-42.471245,11.79623
0.97233516,1.7889154,-2.0005763,-21.338835,-41.85209,9.72638
1.0042887,1.5609559,-1.8759644,-25.908504,-40.941982,7.6761346
1.0400382,1.2990959,-1.7577085,-29.629484,-39.8202,5.8320565
1.0657067,1.0161575,-1.646314,-32.297123,-38.596115,4.563303
1.0879818,0.73831797,-1.5313108,-34.228348,-37.2846,3.8447516
1.103034,0.49154994,-1.4145801,-35.598095,-35.832684,3.6059532
1.1038527,0.28218442,-1.3054106,-36.41162,-34.233387,3.6962519
1.0838525,0.10988556,-1.2119896,-36.7451,-32.626125,3.899001
1.0501733,-0.03413346,-1.1304559,-36.510628,-31.045683,4.024135
1.0094604,-0.15559079,-1.0581497,-35.938095,-29.483397,4.172112
0.9549951,-0.2486291,-0.99646336,-35.167103,-27.980831,4.497619
0.88951814,-0.31493476,-0.94740385,-34.25972,-26.578167,4.9603696
0.8126009,-0.35418802,-0.9104322,-33.258667,-25.410109,5.4217324
0.7434115,-0.37477008,-0.878093,-32.1919,-24.457474,5.84348
0.69772637,-0.38371724,-0.84483975,-31.074879,-23.54094,6.18861
0.6628073,-0.38670468,-0.815059,-29.895805,-22.577044,6.381132
0.6347018,-0.38433215,-0.78757244,-28.773357,-21.592136,6.6191826
0.59937495,-0.3745479,-0.773395,-27.62918,-20.81248,6.962483
0.56156707,-0.35351896,-0.7653662,-26.521282,-20.28498,7.5013213
0.53199965,-0.3241722,-0.7503921,-25.433163,-19.83341,7.9925117
0.50950086,-0.29080975,-0.73423326,-24.285908,-19.464905,8.294368
0.49447003,-0.25940892,-0.7193359,-23.075623,-19.203487,8.491212
0.48410425,-0.2339406,-0.70431477,-21.664948,-19.085857,8.643688
0.47778583,-0.21227705,-0.68932986,-19.913336,-19.090239,8.800889
0.4719791,-0.18367024,-0.6710667,-18.155897,-19.161242,8.842493
0.4572312,-0.1779311,-0.6500979,-17.58858,-18.562511,8.566192
0.44294748,-0.17237261,-0.6297891,-17.03912,-17.982626,8.298588
0.42911306,-0.16698895,-0.61011916,-16.506943,-17.42098,8.0394
0.41571352,-0.16177453,-0.5910675,-15.991495,-16.876991,7.788361
0.4027349,-0.15672392,-0.5726143,-15.49224,-16.35009,7.545208
0.3901638,-0.1518319,-0.55474055,-15.00866,-15.839733,7.3096895
0.3779872,-0.14709337,-0.53742766,-14.540256,-15.345392,7.0815616
0.36619255,-0.14250349,-0.52065784,-14.086543,-14.866556,6.8605895
0.35476765,-0.1380575,-0.5044138,-13.647055,-14.402732,6.6465445
0.34370077,-0.13375083,-0.48867872,-13.221338,-13.953443,6.4392076
0.33298054,-0.12957907,-0.47343656,-12.808957,-13.518227,6.238365
0.322596,-0.12553793,-0.45867166,-12.40949,-13.096639,6.0438113
0.3125365,-0.12162329,-0.44436893,-12.022525,-12.688247,5.8553476
0.30279177,-0.11783113,-0.4305137,-11.647668,-12.292633,5.6727805
0.29335186,-0.1141576,-0.4170919,-11.284537,-11.909395,5.4959245
0.28420714,-0.11059894,-0.40408978,-10.932761,-11.53814,5.324599
0.27534828,-0.10715152,-0.39149415,-10.591983,-11.178493,5.158629
0.2667663,-0.10381186,-0.3792922,-10.261855,-10.830084,4.997846
0.25845248,-0.10057654,-0.36747146,-9.942042,-10.492562,4.8420873
0.25039837,-0.09744229,-0.35602,-9.63222,-10.165585,4.691194
0.24259579,-0.09440593,-0.3449262,-9.332074,-9.848819,4.545014
0.23503686,-0.09146438,-0.3341788,-9.041301,-9.541944,4.4033976
0.22771391,-0.08861466,-0.32376695,-8.759604,-9.244649,4.266203
0.22061954,-0.08585389,-0.31368005,-8.486701,-8.9566345,4.1332903
0.21374658,-0.08317928,-0.30390796,-8.222315,-8.6776085,4.0045257
0.20708807,-0.080588125,-0.2944408,-7.9661775,-8.407289,3.879779
0.20063728,-0.078077815,-0.285269,-7.718032,-8.145402,3.7589242
0.19438773,-0.075645804,-0.27638328,-7.477627,-7.891685,3.6418395
0.18833311,-0.073289655,-0.26777473,-7.24472,-7.645881,3.5284064
0.18246731,-0.07100698,-0.25943464,-7.0190763,-7.4077435,3.418511
0.17678441,-0.06879549,-0.25135463,-6.8004694,-7.177031,3.3120425
0.1712787,-0.066652946,-0.24352653,-6.588678,-6.953512,3.2088933
0.16594464,-0.0645772,-0.23594248,-6.3834896,-6.736962,3.1089602
0.16077685,-0.06256616,-0.22859485,-6.184697,-6.527162,3.0121422
0.15577015,-0.06061781,-0.22147624,-5.9921017,-6.3239017,2.9183419
0.1509195,-0.058730178,-0.21457951,-5.805508,-6.1269765,2.827465
0.14622,-0.056901377,-0.20789771,-5.62473,-5.936188,2.7394207
0.14166696,-0.055129565,-0.20142414,-5.449586,-5.751345,2.6541197
0.13725579,-0.053412963,-0.19515227,-5.279899,-5.5722623,2.5714767
0.13298208,-0.051749848,-0.18907583,-5.115499,-5.3987594,2.4914088
0.1288415,-0.05013855,-0.1831887,-4.9562216,-5.230662,2.4138358
0.12482993,-0.04857745,-0.177485,-4.801906,-5.0678015,2.3386793
0.12094333,-0.047064986,-0.17195898,-4.652398,-4.9100146,2.2658641
0.11717781,-0.045599636,-0.1666051,-4.5075474,-4.757143,2.1953173
0.11352957,-0.044179928,-0.16141799,-4.3672085,-4.6090336,2.126968
0.10999498,-0.042804442,-0.15639244,-4.231241,-4.4655375,2.0607474
0.106570475,-0.0414718,-0.15152344,-4.099509,-4.3265104,1.9965897
0.10325263,-0.040180665,-0.14680608,-3.9718792,-4.191814,1.9344301
0.10003812,-0.03892974,-0.14223564,-3.8482249,-4.061312,1.8742064
0.09692372,-0.037717775,-0.13780753,-3.7284212,-3.9348748,1.8158584
0.093906306,-0.03654355,-0.13351734,-3.6123488,-3.812375,1.7593274
0.09098286,-0.035405897,-0.12936075,-3.499891,-3.69369,1.704557
0.08815046,-0.03430367,-0.12533359,-3.3909352,-3.578701,1.651492
0.08540625,-0.033235762,-0.12143184,-3.2853723,-3.4672928,1.6000795
0.0827475,-0.03220111,-0.11765158,-3.1830964,-3.3593535,1.550268
0.08017153,-0.031198677,-0.11398904,-3.084005,-3.2547755,1.5020075
0.077675775,-0.030227454,-0.11044054,-2.9879994,-3.1534536,1.4552497
0.075257726,-0.029286474,-0.10700253,-2.894983,-3.0552866,1.4099478
0.07291497,-0.028374793,-0.10367156,-2.8048627,-2.9601762,1.3660564
0.07064515,-0.027491497,-0.1004443,-2.7175486,-2.8680272,1.3235316
0.06844601,-0.026635703,-0.09731753,-2.6329527,-2.778747,1.2823308
0.06631534,-0.025806552,-0.0942881,-2.5509908,-2.6922467,1.2424128
0.064251,-0.025003217,-0.091353,-2.4715807,-2.6084394,1.2037376
0.062250935,-0.024224894,-0.08850928,-2.394643,-2.5272415,1.1662664
0.060313135,-0.0234708,-0.08575409,-2.3201008,-2.4485714,1.129962
0.058435667,-0.022740185,-0.08308467,-2.247879,-2.3723507,1.0947877
0.05661665,-0.022032315,-0.08049837,-2.1779058,-2.2985027,1.0607085
0.05485426,-0.021346483,-0.07799257,-2.1101108,-2.2269537,1.0276903
0.053146735,-0.020682003,-0.075564794,-2.0444264,-2.1576324,0.9957
0.05149237,-0.020038208,-0.073212594,-1.9807872,-2.0904691,0.9647056
0.04988951,-0.019414455,-0.070933625,-1.9191289,-2.0253966,0.9346761
0.048336543,-0.018810121,-0.06872559,-1.85939,-1.9623499,0.9055814
0.046831924,-0.018224599,-0.06658631,-1.8015109,-1.9012659,0.87739253
0.045374144,-0.017657306,-0.06451361,-1.7454337,-1.8420835,0.8500811
0.043961745,-0.017107671,-0.06250544,-1.6911021,-1.7847434,0.8236199
0.04259331,-0.016575148,-0.060559787,-1.6384618,-1.7291883,0.79798245
0.04126748,-0.016059201,-0.0586747,-1.5874603,-1.6753626,0.7731431
0.039982922,-0.015559317,-0.056848295,-1.5380464,-1.6232126,0.74907696
0.038738348,-0.015074993,-0.055078745,-1.4901707,-1.5726858,0.72576
0.03753252,-0.014605745,-0.053364277,-1.4437853,-1.523732,0.70316887
0.036364228,-0.014151105,-0.05170318,-1.398844,-1.476302,0.681281
0.0352323,-0.013710617,-0.050093792,-1.3553015,-1.4303485,0.6600745
