ax,ay,az,gx,gy,gz
-6.6382422,-1.2400112,-7.6646147,-24.247494,-19.920181,-19.309267
-7.198452,-2.4688141,-8.410946,-23.832256,-37.532696,-19.589302
-7.1391664,-3.3365748,-8.646551,-25.282541,-54.240475,-12.588138
-6.7983537,-4.1315694,-8.667714,-25.279226,-69.36653,-0.88507545
-6.303041,-4.7184477,-8.534193,-20.7851,-80.5964,12.488465
-5.8072267,-5.0803003,-8.335077,-11.194117,-88.641624,18.623596
-5.177767,-5.310619,-7.9772487,-0.88505304,-94.46695,22.220238
-4.498196,-5.3239875,-7.5292196,6.8578444,-99.57715,27.680885
-3.8531907,-5.2397823,-7.06634,12.413467,-104.260544,34.223484
-3.2602844,-5.14914,-6.6135926,17.609125,-107.84684,39.44807
-2.7111464,-4.9629493,-6.114048,23.344889,-110.69931,43.21508
-2.1115077,-4.4887667,-5.5122643,28.106413,-112.625496,46.149105
-1.540602,-3.9183211,-4.9115562,31.920536,-113.13315,48.08616
-1.0534831,-3.3816752,-4.3571,34.756905,-112.25989,49.127033
-0.6617279,-2.891923,-3.8383331,37.093594,-110.84345,50.283886
-0.2938032,-2.3130536,-3.3065999,37.564186,-109.565186,52.285233
0.11367881,-1.6219817,-2.7221196,36.949276,-107.601074,53.58667
0.49606246,-0.93490416,-2.179353,35.61866,-104.380005,53.56461
0.79884166,-0.30332318,-1.7231543,33.851177,-100.0757,52.059372
1.0190947,0.27659327,-1.3411212,31.833378,-95.33048,49.628464
1.1870111,0.83201885,-1.0065076,28.633821,-90.345634,46.718964
1.3180959,1.3468107,-0.7402109,24.62348,-85.175766,43.407635
1.4055039,1.7904648,-0.55472463,20.117886,-79.94318,39.436253
1.446372,2.1402483,-0.45048347,15.508023,-74.77947,34.77432
1.4385836,2.3961523,-0.41667643,11.022222,-69.85379,29.641724
1.3850224,2.5777462,-0.43432075,6.5869493,-65.5005,24.319008
1.2976688,2.6909108,-0.48586234,1.9673928,-61.814693,19.206085
1.2077436,2.7506254,-0.5487031,-2.8271544,-58.68921,14.292219
1.1208948,2.763216,-0.60874695,-7.8018894,-55.87795,9.579039
1.023112,2.7118444,-0.6684766,-12.632209,-53.39858,4.8394613
0.9157185,2.5963447,-0.71769917,-17.09884,-51.470192,0.42018077
0.8109149,2.3950825,-0.73231876,-21.494204,-49.994312,-3.1631522
0.70626426,2.1021678,-0.71065485,-25.849085,-49.004787,-5.8285227
0.6226379,1.6833332,-0.6571968,-29.472265,-48.326805,-7.9918756
0.60253537,1.1675115,-0.5677518,-31.982716,-47.72052,-9.840861
0.6617791,0.6168366,-0.4358247,-33.037224,-46.558773,-10.721824
0.791329,0.07409199,-0.2747459,-33.29974,-44.899403,-10.556396
0.951491,-0.43315488,-0.119252585,-32.73271,-42.671745,-9.803756
1.1212744,-0.8907079,0.02749927,-31.096827,-39.750614,-8.938498
1.2752061,-1.2749149,0.16558982,-28.553722,-36.228214,-7.9622107
1.3960531,-1.5558376,0.295764,-25.21948,-32.242653,-6.5005083
1.4786623,-1.6759756,0.4344858,-21.825489,-28.21797,-4.664682
1.5537057,-1.6919428,0.5711608,-18.700998,-24.041424,-2.8319352
1.6233046,-1.6624941,0.68349147,-15.684178,-19.568272,-1.3908933
1.6795404,-1.6123555,0.7423108,-12.672062,-14.865012,-0.20142548
1.7063138,-1.5485075,0.7467828,-9.841368,-10.14045,0.8787901
1.691185,-1.4628558,0.6980537,-7.2159324,-5.5855007,1.887043
1.6473117,-1.3687133,0.6164916,-4.8122735,-1.2637159,2.799913
1.577919,-1.263951,0.4967695,-2.7524521,2.826816,3.603418
1.4686136,-1.1626798,0.3399011,-0.92915326,6.56344,4.1248217
1.320294,-1.0674785,0.16526452,0.7428485,9.633688,4.4138703
1.1413999,-0.95905787,-0.012756032,2.139527,12.086023,4.6897526
0.95490766,-0.8491798,-0.18768412,3.3220563,13.998583,4.8776765
0.760324,-0.74532765,-0.35540512,4.30989,15.42713,4.9976325
0.56489325,-0.648816,-0.5105616,5.0850806,16.353672,5.193992
0.37949497,-0.55051094,-0.6491159,5.6000977,16.680101,5.3952346
0.21137922,-0.4386251,-0.7668673,5.8394194,16.681543,5.557013
0.046683162,-0.33264995,-0.87630016,5.798079,16.350882,5.5909324
-0.11459588,-0.24206881,-0.9855699,5.5488405,15.748917,5.563819
-0.27561644,-0.17418484,-1.1040187,5.123575,14.828379,5.519754
-0.43547422,-0.13945527,-1.2287176,4.598318,13.315797,5.715175
-0.5928137,-0.12641671,-1.354494,4.140887,11.432988,5.9432807
-0.74532926,-0.1218787,-1.4797432,3.7762766,9.193531,6.072738
-0.892254,-0.12475232,-1.6053092,3.5128028,6.643732,5.9635367
-1.026123,-0.13968916,-1.735959,3.3880053,3.8260133,5.7697015
-1.144987,-0.16223972,-1.876566,3.2145517,0.5557663,5.78827
-1.2389522,-0.183576,-2.0279107,2.9237626,-2.990755,5.992023
-1.3172032,-0.19040361,-2.168481,2.4689891,-6.827545,6.38023
-1.3834982,-0.18904936,-2.2788086,1.8599162,-10.944705,6.925007
-1.4368927,-0.18943043,-2.36239,1.0805078,-15.25496,7.595556
-1.479657,-0.1975677,-2.420931,0.27459508,-19.750036,8.154358
-1.4898107,-0.17392552,-2.425798,-0.7452045,-24.340494,8.888698
-1.470923,-0.13512424,-2.3783953,-2.2565398,-29.04277,10.034844
-1.402103,-0.11777197,-2.2753394,-4.2659154,-33.746964,11.867207
-1.2843171,-0.14391437,-2.1259623,-6.3949375,-38.368267,13.939134
-1.1036148,-0.2066056,-1.9339106,-8.09313,-42.664528,15.562765
-0.80264074,-0.2758503,-1.6805046,-9.189872,-46.081642,16.40984
-0.77729106,-0.26713815,-1.6274294,-8.89963,-44.62625,15.89157
-0.7527638,-0.2587087,-1.5760763,-8.618804,-43.218082,15.390116
-0.72903043,-0.25055203,-1.5263852,-8.347068,-41.855488,14.904891
-0.7060634,-0.24265873,-1.4782985,-8.0841055,-40.53689,14.435333
-0.6838362,-0.23501976,-1.4317613,-7.8296146,-39.260773,13.980905
-0.6623237,-0.22762637,-1.3867201,-7.5833063,-38.02569,13.541085
-0.6415015,-0.22047022,-1.3431242,-7.344901,-36.83023,13.115378
-0.6213462,-0.21354328,-1.3009247,-7.114132,-35.67306,12.703307
-0.6018353,-0.2068378,-1.2600744,-6.8907413,-34.552895,12.304411
-0.58294725,-0.2003464,-1.220528,-6.674482,-33.468483,11.918248
-0.5646612,-0.19406188,-1.1822422,-6.4651146,-32.418633,11.544394
-0.5469572,-0.18797737,-1.1451749,-6.262411,-31.402199,11.182437
-0.5298158,-0.18208626,-1.1092857,-6.0661507,-30.418072,10.831985
-0.5132186,-0.17638215,-1.0745357,-5.87612,-29.465183,10.492659
-0.49714762,-0.1708589,-1.0408876,-5.6921144,-28.542507,10.16409
-0.4815856,-0.16551058,-1.0083052,-5.5139365,-27.649052,9.845928
-0.46651593,-0.16033146,-0.9767535,-5.3413954,-26.783863,9.537831
-0.45192254,-0.15531603,-0.946199,-5.174308,-25.94602,9.239471
-0.43778995,-0.15045895,-0.91660935,-5.012496,-25.134632,8.950534
-0.42410323,-0.14575513,-0.88795316,-4.8557897,-24.348843,8.6707115
-0.41084796,-0.14119957,-0.86020035,-4.7040224,-23.587824,8.39971
-0.3980102,-0.13678752,-0.8333217,-4.5570364,-22.850777,8.137244
-0.38557655,-0.13251433,-0.80728906,-4.414676,-22.136927,7.8830404
-0.37353396,-0.12837556,-0.7820753,-4.2767944,-21.445532,7.636832
-0.36186993,-0.12436688,-0.75765413,-4.1432467,-20.775871,7.398363
-0.35057232,-0.12048414,-0.7340001,-4.013894,-20.127247,7.167386
-0.33962944,-0.116723314,-0.7110888,-3.8886032,-19.49899,6.9436607
-0.32902998,-0.1130805,-0.6888965,-3.7672439,-18.890446,6.7269564
-0.31876296,-0.109551944,-0.6674002,-3.649691,-18.300991,6.5170493
-0.3088178,-0.10613402,-0.6465779,-3.5358238,-17.730015,6.3137226
-0.29918432,-0.1028232,-0.62640804,-3.4255247,-17.176931,6.116768
-0.28985262,-0.09961608,-0.60687006,-3.3186808,-16.641174,5.9259825
-0.28081307,-0.09650939,-0.5879438,-3.2151823,-16.122192,5.741171
-0.2720565,-0.09349994,-0.56961,-3.1149235,-15.619454,5.5621443
-0.2635739,-0.09058466,-0.5518498,-3.0178015,-15.132447,5.3887196
-0.25535664,-0.08776057,-0.5346452,-2.9237177,-14.660673,5.2207193
-0.24739636,-0.08502479,-0.51797855,-2.832576,-14.203653,5.0579724
-0.23968492,-0.082374536,-0.50183296,-2.7442834,-13.76092,4.9003134
-0.2322145,-0.07980711,-0.486192,-2.6587505,-13.332024,4.747582
-0.22497748,-0.077319905,-0.4710397,-2.57589,-12.916528,4.5996227
-0.21796654,-0.074910395,-0.4563608,-2.495618,-12.514012,4.4562855
-0.21117458,-0.07257614,-0.4421403,-2.4178529,-12.124068,4.317425
-0.20459469,-0.07031477,-0.42836386,-2.3425162,-11.7463,4.1829
-0.19822021,-0.068124,-0.4150175,-2.2695315,-11.380325,4.052575
-0.1920447,-0.06600162,-0.40208772,-2.1988246,-11.025774,3.9263182
-0.18606192,-0.063945465,-0.38956147,-2.1303246,-10.682287,3.8040013
-0.18026583,-0.061953474,-0.3774261,-2.063962,-10.349519,3.6855013
-0.17465056,-0.06002363,-0.36566928,-1.9996697,-10.027132,3.5706983
-0.16921046,-0.058153983,-0.35427925,-1.937383,-9.714802,3.4594762
-0.16394004,-0.05634265,-0.34324443,-1.8770391,-9.412213,3.3517234
-0.15883398,-0.054587808,-0.33255377,-1.8185769,-9.119061,3.247331
-0.15388714,-0.052887686,-0.32219648,-1.7619379,-8.835051,3.1461937
-0.14909454,-0.05124057,-0.31216213,-1.7070647,-8.5598955,3.04821
-0.14445134,-0.049644805,-0.30244058,-1.6539023,-8.293318,2.9532807
-0.1399529,-0.048098788,-0.2930221,-1.6023971,-8.03505,2.8613107
-0.13559467,-0.046600956,-0.28389716,-1.5524973,-7.7848334,2.7722075
-0.13137226,-0.04514981,-0.27505666,-1.5041528,-7.542415,2.6858814
-0.12728146,-0.04374389,-0.26649165,-1.4573148,-7.3075514,2.6022456
-0.12331813,-0.04238178,-0.25819355,-1.4119366,-7.0800066,2.5212162
-0.1194783,-0.041062113,-0.25015405,-1.3679723,-6.8595524,2.4427116
-0.11575811,-0.039783563,-0.24236502,-1.3253778,-6.645967,2.366653
-0.112153836,-0.038544852,-0.23481867,-1.2841105,-6.4390364,2.2929642
-0.108661845,-0.03734473,-0.22750743,-1.2441288,-6.2385526,2.2215712
-0.10527864,-0.036181998,-0.22042394,-1.2053927,-6.044314,2.1524022
-0.10200083,-0.035055485,-0.21356112,-1.1678632,-5.856127,2.085388
-0.09882512,-0.03396406,-0.20691207,-1.1315027,-5.673801,2.020461
-0.09574833,-0.032906633,-0.20047013,-1.0962749,-5.4971547,1.9575567
-0.09276737,-0.03188214,-0.19422884,-1.0621443,-5.32601,1.8966116
-0.08987925,-0.03088956,-0.18818195,-1.0290767,-5.1601963,1.8375646
-0.08708109,-0.02992789,-0.18232337,-0.99703896,-4.9995465,1.7803566
-0.08437007,-0.028996171,-0.17664726,-0.965999,-4.8438997,1.7249303
-0.08174348,-0.028093468,-0.17114791,-0.9359257,-4.6931005,1.6712301
-0.07919868,-0.027218876,-0.16581981,-0.90678895,-4.546997,1.6192023
-0.07673313,-0.02637152,-0.16065764,-0.8785595,-4.4054437,1.5687945
-0.07434435,-0.02555055,-0.15565622,-0.8512091,-4.268298,1.5199565
-0.07202996,-0.024755144,-0.15081054,-0.8247104,-4.135423,1.4726392
-0.069787644,-0.023984505,-0.14611574,-0.7990368,-4.0066857,1.4267952
-0.06761514,-0.023237864,-0.14156713,-0.77416265,-3.8819566,1.3823788
-0.06551028,-0.022514468,-0.13716014,-0.75006294,-3.7611115,1.3393455
-0.06347096,-0.021813598,-0.13289037,-0.72671366,-3.6440287,1.2976519
-0.061495133,-0.02113455,-0.12875356,-0.70409137,-3.5305915,1.2572565
-0.059580825,-0.020476643,-0.124745525,-0.6821734,-3.4206862,1.2181188
-0.057726115,-0.01983922,-0.12086229,-0.66093785,-3.3142028,1.1801996
-0.055929154,-0.019221643,-0.117099956,-0.64036345,-3.2110348,1.1434611
-0.054188136,-0.018623292,-0.11345476,-0.6204296,-3.1110785,1.1078664
-0.052501325,-0.018043572,-0.10992304,-0.60111636,-3.0142343,1.0733798
-0.050867025,-0.017481899,-0.10650128,-0.5824044,-2.9204051,1.0399668
-0.04928361,-0.016937712,-0.10318605,-0.56427497,-2.829497,1.0075942
-0.047749486,-0.016410468,-0.09997403,-0.54670995,-2.741419,0.9762293
-0.04626312,-0.015899636,-0.096861996,-0.52969176,-2.6560833,0.9458409
-0.044823032,-0.015404709,-0.09384685,-0.5132034,-2.573404,0.9163985
-0.043427773,-0.014925188,-0.090925574,-0.4972283,-2.4932988,0.8878727
-0.04207595,-0.014460595,-0.08809523,-0.48175055,-2.415687,0.860235
-0.04076621,-0.014010467,-0.08535301,-0.46675462,-2.3404915,0.8334576
-0.039497245,-0.01357435,-0.08269615,-0.4522255,-2.267637,0.8075138
-0.03826778,-0.01315181,-0.080121994,-0.4381487,-2.1970503,0.7823776
-0.03707659,-0.012742423,-0.07762797,-0.42451012,-2.1286612,0.7580239
-0.03592248,-0.012345781,-0.07521159,-0.41129607,-2.0624008,0.7344284
-0.034804296,-0.011961485,-0.07287043,-0.3984934,-1.998203,0.71156734
-0.03372092,-0.011589153,-0.07060215,-0.38608927,-1.9360038,0.68941796
-0.032671273,-0.011228411,-0.06840448,-0.37407124,-1.8757408,0.6679581
-0.0316543,-0.010878899,-0.066275224,-0.36242735,-1.8173536,0.64716625
-0.030668981,-0.0105402665,-0.06421224,-0.35114592,-1.760784,0.6270216
