ax,ay,az,gx,gy,gz
-5.6636877,-0.51364106,-4.502768,-12.761934,-5.881871,-19.420176
-6.3556666,-0.7977864,-5.036522,-11.857632,-19.10294,-20.14194
-6.845694,-1.1940569,-5.478121,-8.558227,-40.287453,-15.703921
-6.763024,-1.851841,-5.73367,-12.170797,-57.454723,-1.1462098
-6.405892,-2.4088726,-5.8959227,-18.367882,-69.49332,16.56596
-6.0702963,-3.0104494,-5.979011,-19.469402,-76.63879,24.652466
-5.778948,-3.5915706,-6.0400968,-14.983142,-80.75365,24.548779
-5.451972,-4.128845,-6.112091,-8.275845,-84.99466,25.506002
-5.039712,-4.5356174,-6.101176,-2.1097865,-90.34996,30.687458
-4.5774527,-4.6848965,-5.943666,3.5704944,-96.26111,37.70232
-4.0549755,-4.564768,-5.6333704,8.907753,-101.6858,44.279408
-3.478096,-4.2185383,-5.200763,13.961347,-105.76095,48.45203
-2.8919919,-3.7787023,-4.6959743,19.144238,-107.38649,49.09873
-2.3375783,-3.2072687,-4.1035,23.572102,-108.268936,49.7428
-1.7620091,-2.4842517,-3.474067,25.405075,-108.78296,51.706158
-1.1805918,-1.7466097,-2.856253,25.346933,-108.2346,53.436817
-0.6533991,-1.0830333,-2.3000884,24.360151,-106.083466,53.621086
-0.2334598,-0.5209202,-1.8307877,22.749092,-102.017685,51.734497
0.058314107,-0.066256896,-1.45373,20.672705,-97.44646,49.417393
0.26861086,0.33943528,-1.1478689,18.280048,-92.91257,47.08277
0.42849305,0.72721654,-0.9020925,15.644779,-88.569305,44.510174
0.55846304,1.0899993,-0.70779496,12.7171135,-84.245445,41.17413
0.6688611,1.4100102,-0.5506131,9.530212,-79.70966,36.885727
0.7654703,1.6944069,-0.43399745,6.1949806,-75.122574,32.232056
0.83396393,1.936752,-0.35131413,2.7144117,-70.585526,27.193861
0.8689936,2.121641,-0.29093522,-1.0050799,-66.342125,22.189713
0.8783595,2.2454367,-0.25307032,-5.027215,-62.511215,17.40352
0.88243586,2.309616,-0.24299079,-9.264188,-58.979088,12.786515
0.89163274,2.3208294,-0.27313593,-13.304606,-55.516663,8.048819
0.89460254,2.2784214,-0.32200268,-16.993399,-52.2231,2.884381
0.88252586,2.164223,-0.37049943,-20.41239,-49.16038,-2.0959857
0.8314397,1.9792006,-0.41015097,-23.674582,-46.57152,-6.252458
0.75106055,1.7320249,-0.44428256,-26.315401,-44.7077,-9.60273
0.6886418,1.4252616,-0.47374582,-28.390574,-43.249043,-12.483193
0.64850014,1.0761232,-0.48952278,-29.736538,-42.005577,-15.146192
0.6212815,0.70053595,-0.47774184,-30.365055,-40.754112,-17.505068
0.57406855,0.29630816,-0.41912696,-30.255407,-39.65363,-19.562374
0.5381146,-0.123759106,-0.31799492,-29.777073,-38.960922,-19.873703
0.5619085,-0.5531312,-0.19553106,-29.075914,-38.326397,-18.963364
0.6461593,-0.96262616,-0.06171759,-27.657862,-37.116898,-17.854822
0.76360464,-1.3326615,0.09004628,-25.215687,-34.90459,-17.122208
0.86699915,-1.6431017,0.24421838,-21.955378,-31.894451,-16.3066
0.9392925,-1.8530082,0.3856324,-18.487669,-28.542131,-14.626338
0.99730206,-1.9385387,0.50789267,-15.258779,-25.22339,-12.734879
1.0602232,-1.982411,0.62458956,-12.02232,-21.668053,-10.986026
1.1155025,-1.986532,0.7332668,-8.92154,-17.918154,-9.1598835
1.1663617,-1.9371213,0.81896067,-6.188824,-13.874224,-7.215258
1.2067864,-1.8411517,0.8611141,-3.387074,-9.485842,-5.7892137
1.2186586,-1.7023484,0.8444721,-0.81816214,-5.0400424,-4.757374
1.192767,-1.5599376,0.7889205,1.535563,-0.792516,-3.8055935
1.1218802,-1.4187235,0.69532996,3.7214096,3.0384154,-2.9732177
1.0138824,-1.2824719,0.57305336,5.587599,6.3798795,-2.2671041
0.88346475,-1.156177,0.4255589,7.005646,9.129427,-1.4654622
0.7262831,-1.04371,0.25304,8.037434,11.347269,-0.74876887
0.5666978,-0.93651855,0.07534194,8.721505,13.08835,-0.29330444
0.4084001,-0.83406514,-0.09594655,9.231327,14.471262,-0.14062995
0.24531859,-0.73630095,-0.2599045,9.563996,15.490636,-0.061755057
0.07325063,-0.64551026,-0.4245257,9.564619,15.927116,0.21831377
-0.109870195,-0.5687529,-0.60311276,9.3438835,15.8654,0.6458821
-0.2930313,-0.5073612,-0.793432,8.995782,15.320803,1.080114
-0.47064343,-0.4618093,-0.98542076,8.650047,14.341371,1.4573921
-0.64825827,-0.41879153,-1.16868,8.308512,12.89199,1.8649728
-0.8240286,-0.36582875,-1.3378438,7.8880997,10.8203945,2.2564116
-0.99185705,-0.30389377,-1.4898787,7.32083,8.318514,2.6973014
-1.1473278,-0.23916253,-1.6313208,6.4784803,5.474419,3.372469
-1.2970098,-0.18415445,-1.7759298,5.451263,2.2002094,4.0088882
-1.4284384,-0.1486403,-1.916078,4.28679,-1.5164049,4.3459406
-1.5188303,-0.14081407,-2.0260918,3.0425475,-5.669819,4.7887588
-1.5465891,-0.14548284,-2.0951052,1.6939201,-9.83759,5.7937007
-1.5512897,-0.1492301,-2.1546345,0.18219742,-13.9748955,7.113381
-1.5474596,-0.17358018,-2.2054942,-1.438517,-18.073473,8.352191
-1.5286856,-0.23394161,-2.2348578,-2.7900367,-22.212643,9.433426
-1.4772538,-0.26982573,-2.2227004,-4.114345,-26.362295,10.581645
-1.3962446,-0.258382,-2.1512868,-5.567312,-30.415926,11.701717
-1.3009146,-0.24094643,-2.0355227,-7.3167434,-34.305542,12.752171
-1.1831352,-0.26420712,-1.8928193,-9.219463,-37.996426,13.994227
-1.0194077,-0.32619345,-1.7329903,-11.071679,-41.385532,15.6067295
-0.8025468,-0.38947943,-1.5529681,-12.684374,-44.215218,17.180292
-0.53201085,-0.434556,-1.3189908,-14.017487,-46.41,18.242477
-0.25528628,-0.4723094,-1.0394924,-15.132314,-47.833282,18.821922
0.01823681,-0.5257297,-0.73735756,-15.99002,-48.620296,19.230747
0.017662708,-0.5091796,-0.7141453,-15.486649,-47.089714,18.625357
0.017107066,-0.49316153,-0.6916793,-14.999461,-45.608337,18.039429
0.016569251,-0.47765744,-0.6699342,-14.527905,-44.174496,17.472303
0.016048662,-0.46264994,-0.64888555,-14.071454,-42.78658,16.923342
0.015544719,-0.4481223,-0.62850994,-13.629597,-41.44304,16.391932
0.015056862,-0.43405837,-0.6087847,-13.201844,-40.142387,15.877486
0.014584554,-0.4204427,-0.5896882,-12.787725,-38.88319,15.379437
0.014127279,-0.4072604,-0.5711995,-12.386786,-37.66407,14.897239
0.013684537,-0.39449707,-0.55329835,-11.998591,-36.483696,14.430367
0.01325585,-0.3821389,-0.5359655,-11.622719,-35.340794,13.978316
0.012840754,-0.37017256,-0.5191822,-11.258763,-34.23413,13.540598
0.012438806,-0.3585852,-0.50293046,-10.906335,-33.16251,13.116742
0.0120495735,-0.34736443,-0.48719287,-10.565056,-32.124798,12.706295
0.011672642,-0.3364983,-0.47195268,-10.234564,-31.11988,12.308822
0.011307614,-0.32597527,-0.4571937,-9.914507,-30.146696,11.923898
0.010954102,-0.31578425,-0.44290036,-9.6045475,-29.204212,11.551119
0.010611733,-0.30591446,-0.4290576,-9.304359,-28.291441,11.19009
0.010280149,-0.29635555,-0.41565084,-9.013626,-27.40742,10.840434
0.009959001,-0.28709754,-0.4026661,-8.732044,-26.551222,10.501783
0.009647955,-0.2781307,-0.39008975,-8.459319,-25.721956,10.173785
0.009346686,-0.26944578,-0.37790877,-8.195168,-24.91876,9.856097
0.009054882,-0.26103365,-0.3661104,-7.939314,-24.140795,9.548389
0.008772241,-0.25288567,-0.35468253,-7.6914935,-23.387257,9.250342
0.008498468,-0.24499337,-0.34361327,-7.45145,-22.657364,8.961649
0.008233283,-0.23734862,-0.3328912,-7.218936,-21.950367,8.682011
0.007976411,-0.22994354,-0.32250527,-6.993711,-21.265533,8.4111395
0.0077275895,-0.22277051,-0.3124448,-6.775544,-20.602161,8.148756
0.007486562,-0.21582218,-0.30269948,-6.5642114,-19.959568,7.894592
0.007253081,-0.20909141,-0.2932593,-6.3594956,-19.337095,7.648386
0.0070269085,-0.20257132,-0.2841146,-6.1611876,-18.734108,7.409887
0.006807813,-0.19625525,-0.27525604,-5.9690847,-18.149988,7.17885
0.0065955706,-0.19013675,-0.26667458,-5.782991,-17.584139,6.9550405
0.0063899653,-0.18420956,-0.2583615,-5.6027164,-17.035984,6.7382293
0.0061907875,-0.17846768,-0.25030825,-5.4280777,-16.504967,6.528196
0.0059978347,-0.17290525,-0.24250671,-5.258897,-15.990544,6.324727
0.0058109113,-0.16751662,-0.23494895,-5.095002,-15.492196,6.127616
0.005629827,-0.16229632,-0.22762728,-4.9362273,-15.009415,5.9366617
0.0054543978,-0.15723908,-0.22053427,-4.7824116,-14.541712,5.751672
0.0052844468,-0.15233974,-0.21366274,-4.6333985,-14.0886135,5.5724583
0.0051198015,-0.14759335,-0.20700574,-4.4890375,-13.64966,5.398839
0.0049602953,-0.14299512,-0.20055652,-4.3491826,-13.224408,5.2306395
0.004805767,-0.13854039,-0.19430858,-4.2136927,-12.8124275,5.0676894
0.0046560606,-0.13422465,-0.1882556,-4.08243,-12.413302,4.9098234
0.0045110243,-0.13004357,-0.18239143,-3.9552627,-12.026629,4.756883
0.004370513,-0.1259929,-0.17671022,-3.8320622,-11.652018,4.608713
0.004234384,-0.122068584,-0.1712062,-3.7127042,-11.28909,4.4651647
0.0041025,-0.11826664,-0.16587383,-3.5970688,-10.937482,4.326093
0.0039747288,-0.11458326,-0.16070773,-3.485039,-10.596837,4.191358
0.0038509413,-0.111014724,-0.15570271,-3.3765023,-10.266812,4.0608244
0.003731013,-0.10755744,-0.15085372,-3.2713492,-9.947078,3.9343596
0.0036148233,-0.104207925,-0.1461559,-3.1694741,-9.637309,3.8118372
0.003502255,-0.10096282,-0.1416045,-3.0707743,-9.337196,3.6931338
0.0033931953,-0.09781885,-0.13719496,-2.975151,-9.046438,3.5781302
0.0032875345,-0.09477286,-0.13292283,-2.8825076,-8.76474,3.4667108
0.0031851663,-0.0918218,-0.12878384,-2.7927513,-8.491821,3.3587632
0.0030859879,-0.08896269,-0.12477382,-2.7057917,-8.2274065,3.2541795
0.0029898998,-0.08619267,-0.120888755,-2.6215417,-7.9712305,3.1528544
0.0028968053,-0.083508946,-0.11712473,-2.5399165,-7.723036,3.0546863
0.0028066114,-0.080908835,-0.11347797,-2.4608345,-7.4825735,2.9595764
0.002719227,-0.07838973,-0.10994481,-2.384216,-7.249603,2.8674295
0.0026345649,-0.07594909,-0.10652172,-2.3099844,-7.023889,2.7781532
0.0025525398,-0.07358448,-0.103205256,-2.238065,-6.805206,2.6916578
0.0024730698,-0.07129352,-0.0999921,-2.1683857,-6.5933347,2.6078565
0.002396075,-0.06907392,-0.09687901,-2.1008768,-6.3880625,2.5266652
0.0023214784,-0.066923454,-0.09386289,-2.0354705,-6.1891837,2.448003
0.002249205,-0.06483996,-0.09094071,-1.9721012,-5.996499,2.3717904
0.0021791824,-0.06282135,-0.08810952,-1.9107054,-5.8098154,2.2979517
0.0021113406,-0.060865607,-0.08536652,-1.8512217,-5.6289454,2.2264123
0.0020456114,-0.05897077,-0.08270893,-1.7935904,-5.4537077,2.1571007
0.001981929,-0.05713494,-0.0801341,-1.7377537,-5.2839274,2.0899475
0.0019202298,-0.055356275,-0.07763945,-1.6836559,-5.119434,2.0248854
0.0018604517,-0.053632997,-0.075222485,-1.6312425,-4.9600625,1.9618495
0.001802535,-0.051963378,-0.072880775,-1.5804613,-4.8056536,1.9007763
0.0017464217,-0.05034575,-0.07061198,-1.5312612,-4.6560526,1.8416047
0.0016920556,-0.048778486,-0.06841383,-1.483593,-4.5111094,1.7842755
0.0016393823,-0.04726002,-0.06628412,-1.437409,-4.37068,1.7287314
0.001588349,-0.045788836,-0.06422073,-1.3926631,-4.234622,1.6749166
0.0015389046,-0.044363454,-0.062221568,-1.3493103,-4.102801,1.6227775
0.0014909996,-0.042982455,-0.06028466,-1.3073072,-3.9750836,1.5722616
0.0014445861,-0.041644447,-0.05840805,-1.2666119,-3.8513427,1.5233185
0.0013996176,-0.0403481,-0.056589868,-1.2271836,-3.7314544,1.4758992
0.0013560492,-0.039092112,-0.054828294,-1.1889828,-3.6152987,1.4299562
0.0013138371,-0.037875224,-0.05312156,-1.1519713,-3.5027592,1.3854436
0.0012729393,-0.03669622,-0.05146796,-1.1161121,-3.3937232,1.3423166
0.0012333146,-0.035553925,-0.049865842,-1.0813693,-3.288082,1.3005323
0.0011949235,-0.03444719,-0.0483136,-1.047708,-3.1857293,1.260049
0.0011577277,-0.03337491,-0.04680968,-1.0150948,-3.086563,1.2208258
0.0011216898,-0.03233601,-0.045352582,-0.98349667,-2.990484,1.1828238
0.0010867737,-0.031329453,-0.043940842,-0.9528823,-2.897396,1.1460047
0.0010529446,-0.03035423,-0.042573053,-0.923221,-2.807206,1.1103319
0.0010201687,-0.029409366,-0.041247845,-0.89448303,-2.7198234,1.0757695
0.000988413,-0.028493915,-0.039963886,-0.86663973,-2.6351612,1.0422832
0.0009576459,-0.027606962,-0.0387199,-0.83966315,-2.5531344,1.0098392
0.0009278366,-0.026747622,-0.03751464,-0.8135264,-2.4736612,0.97840524
0.0008989552,-0.02591503,-0.036346894,-0.7882032,-2.396662,0.94794977
0.0008709729,-0.025108358,-0.035215504,-0.76366836,-2.3220596,0.91844237
0.00084386166,-0.024326798,-0.03411933,-0.7398972,-2.2497797,0.88985354
0.00081759435,-0.023569565,-0.033057284,-0.7168661,-2.1797497,0.86215466
0.00079214474,-0.022835905,-0.032028295,-0.6945519,-2.1118996,0.83531797
