ax,ay,az,gx,gy,gz
1.3136483,0.80909824,-7.8346167,-36.011234,-25.080227,-4.8827715
1.1918403,0.53508294,-8.613823,-36.79634,-44.16024,-14.828652
1.4578575,-0.41569802,-8.854961,-29.61904,-52.19762,-24.691788
1.8202077,-1.7384676,-9.32647,-16.242006,-55.15303,-30.032808
2.236289,-3.0354772,-9.876866,3.3287635,-57.09631,-30.056128
2.618523,-3.5871415,-10.379647,22.777342,-59.374393,-27.566973
2.9039028,-3.743836,-10.869252,37.376007,-63.705822,-24.599392
3.1096296,-3.9294648,-11.3018875,48.66342,-69.36055,-22.773672
3.3120368,-4.2359962,-11.649519,59.05709,-75.43055,-20.78974
3.6068463,-4.6155663,-11.831101,66.788246,-79.67809,-16.96198
3.8439665,-4.9733176,-11.809452,70.242485,-83.296326,-8.912512
4.0017157,-5.1533504,-11.424826,71.43687,-86.410736,2.9609895
3.9877896,-4.9477754,-10.632875,72.76572,-89.29386,13.517544
3.8870575,-4.268457,-9.428338,74.185295,-90.4807,19.985268
3.6917937,-3.0164156,-7.8525224,70.70984,-90.79383,26.140734
3.382401,-1.7092537,-6.2625055,63.317204,-90.83646,30.900528
3.0389712,-0.6218014,-4.773265,55.076954,-90.53664,32.909676
2.7887347,0.107669234,-3.4697044,46.292892,-89.7541,33.490246
2.6831565,0.48551357,-2.387707,39.15151,-87.10049,32.768097
2.6858814,0.6135144,-1.5841779,33.981266,-82.70456,31.433794
2.6703584,0.6746371,-1.0169429,30.016905,-77.37822,30.0727
2.612737,0.71264267,-0.6440843,27.103556,-71.95954,28.508928
2.521871,0.73742753,-0.4246943,24.794477,-66.98001,26.975544
2.4332194,0.764701,-0.29715693,22.97319,-62.4065,25.443573
2.3596232,0.80873406,-0.2565422,21.795002,-57.99478,23.743443
2.2920306,0.8952779,-0.28665325,20.763823,-53.743717,22.047726
2.2099447,1.0144072,-0.38730448,19.80966,-49.88648,20.112337
2.1083028,1.1426547,-0.54943794,19.136755,-46.70574,18.01075
2.004549,1.3162171,-0.7586235,18.239056,-44.486755,15.752706
1.8823868,1.5821788,-1.0018623,16.760893,-43.044563,13.364551
1.7572563,1.9248799,-1.2259227,14.5096245,-42.171886,10.54616
1.6197574,2.2822976,-1.4338471,11.8256645,-41.585926,7.1070704
1.4568831,2.6228216,-1.6438016,9.202844,-41.362816,2.7384915
1.2840605,2.9159966,-1.872039,6.6492167,-42.008106,-2.7278464
1.1104261,3.1242309,-2.1041164,3.769425,-43.74019,-8.609323
0.97935426,3.1660554,-2.2752006,0.6461427,-46.378532,-14.800754
0.94212365,2.9228935,-2.3751953,-1.8252888,-50.120922,-20.73475
1.1299108,2.4184568,-2.3159542,-2.977404,-54.244495,-25.760368
1.5800822,1.79241,-2.039026,-4.2386875,-56.200577,-28.209673
2.0790553,1.1615263,-1.5994682,-6.0878654,-55.424374,-28.740437
2.4630506,0.5813479,-1.154339,-8.861766,-52.195686,-27.4347
2.7037435,0.07354487,-0.74062604,-11.714132,-47.087444,-24.701265
2.6075985,0.070929624,-0.7142895,-11.297579,-45.413017,-23.82289
2.5156274,0.068427905,-0.68909615,-10.899109,-43.811283,-22.982647
2.4275782,0.066032864,-0.66497713,-10.51763,-42.277847,-22.178232
2.34322,0.06373823,-0.64186925,-10.152143,-40.808697,-21.407541
2.2623415,0.06153824,-0.61971456,-9.801732,-39.400143,-20.668638
2.1847482,0.05942761,-0.59845966,-9.465553,-38.048805,-19.95975
2.1102605,0.057401463,-0.57805556,-9.142832,-36.751553,-19.279234
2.038713,0.055455294,-0.55845684,-8.832849,-35.50551,-18.625582
1.9699528,0.053584937,-0.5396216,-8.53494,-34.308006,-17.99739
1.9038377,0.05178653,-0.52151096,-8.248492,-33.156567,-17.393366
1.8402358,0.05005649,-0.50408876,-7.972934,-32.0489,-16.812304
1.7790247,0.048391476,-0.4873214,-7.707732,-30.982868,-16.25308
1.7200898,0.046788383,-0.47117758,-7.4523935,-29.956478,-15.714654
1.6633244,0.0452443,-0.45562807,-7.206454,-28.967873,-15.196049
1.6086287,0.04375652,-0.44064552,-6.969482,-28.015314,-14.696352
1.5559094,0.04232249,-0.4262043,-6.741072,-27.097172,-14.214711
1.5050786,0.040939838,-0.4122804,-6.5208445,-26.21192,-13.750323
1.456054,0.03960631,-0.39885128,-6.308442,-25.358124,-13.302437
1.408758,0.038319807,-0.38589567,-6.1035295,-24.534433,-12.870343
1.3631177,0.03707834,-0.37339363,-5.9057903,-23.739578,-12.453376
1.3190643,0.035880037,-0.36132622,-5.714926,-22.972359,-12.050905
1.2765325,0.03472312,-0.34967566,-5.5306544,-22.23164,-11.662337
1.235461,0.033605933,-0.33842507,-5.35271,-21.516354,-11.287109
1.1957915,0.032526877,-0.32755855,-5.180839,-20.825483,-10.924691
1.1574687,0.031484455,-0.31706095,-5.0148034,-20.158068,-10.574576
1.1204404,0.030477243,-0.30691794,-4.854376,-19.513195,-10.236287
1.0846567,0.029503886,-0.29711586,-4.699341,-18.89,-9.909369
1.0500704,0.028563099,-0.28764176,-4.549494,-18.287657,-9.59339
1.0166364,0.027653657,-0.2784833,-4.404639,-17.705381,-9.287939
0.9843118,0.026774392,-0.26962876,-4.2645907,-17.142427,-8.992623
0.95305574,0.02592419,-0.2610669,-4.129172,-16.598083,-8.707069
0.9228292,0.025101995,-0.25278705,-3.9982135,-16.071669,-8.430922
0.8935949,0.024306789,-0.24477902,-3.8715541,-15.562534,-8.163838
0.86531717,0.023537604,-0.23703302,-3.7490392,-15.07006,-7.9054947
0.83796203,0.022793513,-0.22953972,-3.6305213,-14.593652,-7.655579
0.81149673,0.022073627,-0.22229019,-3.515859,-14.132742,-7.413794
0.7858902,0.0213771,-0.21527588,-3.404917,-13.686788,-7.1798534
0.7611124,0.020703115,-0.2084886,-3.2975657,-13.255265,-6.9534845
0.73713464,0.020050893,-0.20192046,-3.1936805,-12.837677,-6.734425
0.71392936,0.019419683,-0.19556393,-3.0931423,-12.433542,-6.522423
0.69147015,0.018808769,-0.18941177,-2.9958365,-12.042401,-6.317237
0.6697316,0.018217456,-0.18345702,-2.901653,-11.663811,-6.1186347
0.6486894,0.017645083,-0.177693,-2.810486,-11.297346,-5.9263935
0.62831986,0.01709101,-0.17211325,-2.722234,-10.942598,-5.740299
0.6086006,0.016554624,-0.16671164,-2.636799,-10.5991745,-5.560145
0.5895099,0.016035333,-0.16148219,-2.5540874,-10.266697,-5.385733
0.57102674,0.015532572,-0.15641917,-2.474008,-9.944801,-5.2168717
0.55313104,0.015045789,-0.15151708,-2.396474,-9.633136,-5.0533776
0.5358035,0.014574459,-0.1467706,-2.3214011,-9.331365,-4.895074
0.51902527,0.014118073,-0.1421746,-2.2487085,-9.039162,-4.741789
0.5027784,0.01367614,-0.13772416,-2.178318,-8.756212,-4.5933585
0.4870456,0.013248189,-0.13341452,-2.1101546,-8.482215,-4.449624
0.47180998,0.012833764,-0.1292411,-2.0441453,-8.216877,-4.3104324
0.45705548,0.012432424,-0.12519945,-1.9802206,-7.9599175,-4.175636
0.44276646,0.012043747,-0.12128532,-1.9183125,-7.711065,-4.045092
0.42892787,0.011667321,-0.11749457,-1.858356,-7.470057,-3.9186635
0.41552517,0.011302753,-0.11382322,-1.8002881,-7.2366405,-3.7962172
0.40254435,0.01094966,-0.11026743,-1.7440478,-7.0105705,-3.677625
0.38997182,0.010607673,-0.10682348,-1.6895765,-6.791612,-3.562763
0.3777945,0.010276437,-0.1034878,-1.6368176,-6.579536,-3.4515116
0.36599973,0.0099556055,-0.100256905,-1.585716,-6.3741226,-3.3437552
0.3545753,0.009644848,-0.09712745,-1.536219,-6.1751585,-3.2393823
0.34350938,0.009343843,-0.094096206,-1.4882753,-5.9824386,-3.1382844
0.33279055,0.0090522785,-0.09116004,-1.4418353,-5.795763,-3.0403578
0.32240775,0.008769855,-0.08831592,-1.3968512,-5.61494,-2.945501
0.31235033,0.008496282,-0.08556093,-1.3532768,-5.4397836,-2.853617
0.30260795,0.008231278,-0.08289224,-1.3110673,-5.270114,-2.7646112
0.29317063,0.007974572,-0.0803071,-1.2701795,-5.1057568,-2.6783922
0.2840287,0.007725901,-0.0778029,-1.2305716,-4.946544,-2.594872
0.27517283,0.007485011,-0.07537704,-1.1922029,-4.792313,-2.5139651
0.26659396,0.0072516566,-0.07302706,-1.1550345,-4.6429067,-2.435589
0.25828338,0.007025599,-0.07075057,-1.1190283,-4.4981723,-2.359664
0.25023258,0.0068066083,-0.06854525,-1.0841478,-4.3579626,-2.2861123
0.2424334,0.006594462,-0.06640885,-1.0503575,-4.2221346,-2.2148595
0.23487791,0.006388944,-0.064339206,-1.0176228,-4.0905514,-2.1458328
0.22755845,0.0061898464,-0.062334213,-0.98591083,-3.963078,-2.0789626
0.22046758,0.005996967,-0.06039184,-0.9551892,-3.839586,-2.014181
0.21359813,0.0058101104,-0.05851012,-0.9254269,-3.7199502,-1.951422
0.20694315,0.005629087,-0.056687143,-0.89659375,-3.6040492,-1.8906223
0.20049588,0.005453714,-0.05492107,-0.86866057,-3.4917657,-1.8317204
0.19424982,0.0052838144,-0.05321011,-0.84159917,-3.3829868,-1.7746568
0.18819867,0.005119216,-0.051552538,-0.8153822,-3.2776017,-1.7193736
0.1823363,0.004959753,-0.04994668,-0.7899831,-3.1755047,-1.6658152
0.1766568,0.004805264,-0.048390917,-0.76537627,-3.0765927,-1.6139276
0.17115444,0.0046555935,-0.04688368,-0.741537,-2.9807656,-1.5636584
0.16582368,0.004510591,-0.045423444,-0.7184411,-2.8879268,-1.5149568
0.16065915,0.00437011,-0.044008743,-0.6960655,-2.7979832,-1.4677739
0.15565564,0.004234009,-0.04263815,-0.67438745,-2.7108438,-1.422062
0.15080811,0.004102151,-0.041310288,-0.6533853,-2.626421,-1.3777754
0.14611171,0.0039744033,-0.04002382,-0.6330378,-2.54463,-1.3348693
0.14156169,0.0038506375,-0.03877745,-0.6133246,-2.4653885,-1.2933005
0.13715348,0.0037307292,-0.037569925,-0.59422576,-2.3886166,-1.2530273
0.13288264,0.003614558,-0.036400035,-0.5757221,-2.3142374,-1.2140092
0.1287449,0.0035020066,-0.035266597,-0.5577951,-2.242176,-1.1762071
0.1247361,0.0033929627,-0.03416848,-0.54042673,-2.1723602,-1.1395828
0.1208522,0.0032873163,-0.03310458,-0.5235995,-2.1047194,-1.1040998
0.117089316,0.0031849614,-0.032073826,-0.50729656,-2.0391862,-1.0697222
0.11344366,0.0030857953,-0.031075185,-0.4915015,-1.9756948,-1.0364156
0.10991157,0.0029897187,-0.030107655,-0.47619855,-1.9141812,-1.0041466
0.10648951,0.0028966349,-0.029170264,-0.4613723,-1.8545839,-0.97288287
0.10317405,0.0028064505,-0.028262071,-0.44700783,-1.796843,-0.942593
0.09996186,0.0027190754,-0.027382169,-0.43309084,-1.7409006,-0.9132466
0.096849725,0.0026344217,-0.026529673,-0.4196073,-1.6867007,-0.8848142
0.09383451,0.0025524045,-0.025703728,-0.40654373,-1.6341889,-0.85726744
0.09091321,0.0024729418,-0.024903506,-0.393887,-1.5833125,-0.83057857
0.08808289,0.0023959538,-0.024128208,-0.38162446,-1.5340205,-0.8047208
0.08534071,0.0023213634,-0.023377052,-0.3697438,-1.4862638,-0.77966845
0.08268392,0.002249096,-0.02264929,-0.35823312,-1.4399941,-0.7553962
0.08010987,0.002179079,-0.02194419,-0.3470809,-1.3951653,-0.7318798
0.07761598,0.0021112422,-0.021261048,-0.33627594,-1.3517326,-0.7090957
0.07519974,0.0020455178,-0.020599177,-0.32580742,-1.3096522,-0.6870211
0.072858736,0.0019818398,-0.019957915,-0.31566492,-1.2688822,-0.6656338
0.07059063,0.0019201448,-0.01933662,-0.3058382,-1.2293816,-0.6449125
0.06839315,0.0018603707,-0.018734671,-0.29631746,-1.191111,-0.6248364
0.06626408,0.0018024577,-0.018151466,-0.28709316,-1.154032,-0.60538536
0.06420131,0.001746348,-0.017586417,-0.27815607,-1.1181074,-0.5865399
0.062202755,0.0016919852,-0.017038962,-0.26949722,-1.0833013,-0.5682813
0.06026643,0.0016393149,-0.016508551,-0.26110798,-1.0495789,-0.5505911
0.05839039,0.0015882845,-0.015994655,-0.2529799,-1.0169065,-0.5334517
0.056572758,0.0015388428,-0.015496759,-0.24510491,-0.98525125,-0.5168459
0.054811716,0.0014909405,-0.0150143625,-0.23747508,-0.95458156,-0.5007571
0.053105496,0.0014445294,-0.014546985,-0.2300828,-0.9248667,-0.48516917
0.0514524,0.0013995633,-0.014094158,-0.22292064,-0.89607686,-0.47006655
0.049850766,0.001355997,-0.013655429,-0.21598147,-0.8681834,-0.45543408
0.048298992,0.0013137871,-0.013230357,-0.20925832,-0.8411583,-0.44125718
0.04679553,0.0012728912,-0.01281852,-0.20274447,-0.8149745,-0.42752162
0.04533887,0.0012332684,-0.012419503,-0.19643341,-0.7896058,-0.41421366
0.043927558,0.0011948792,-0.012032907,-0.19031881,-0.7650269,-0.40131998
0.042560183,0.001157685,-0.011658347,-0.18439457,-0.74121314,-0.38882768
0.041235372,0.0011216486,-0.011295447,-0.17865475,-0.7181407,-0.3767243
0.039951805,0.0010867341,-0.010943844,-0.17309362,-0.69578654,-0.36499768
0.03870819,0.0010529065,-0.010603187,-0.1677056,-0.6741283,-0.35363612
0.037503295,0.001020132,-0.010273134,-0.1624853,-0.6531442,-0.34262824
0.036335908,0.0009883776,-0.009953355,-0.15742752,-0.63281333,-0.33196303
0.035204858,0.00095761183,-0.009643531,-0.15252718,-0.61311543,-0.32162982
0.034109015,0.0009278037,-0.009343352,-0.14777939,-0.5940306,-0.31161827
0.03304729,0.0008989235,-0.009052517,-0.14317939,-0.57553995,-0.3019184
0.03201861,0.0008709423,-0.008770735,-0.13872257,-0.5576249,-0.29252043
