ax,ay,az,gx,gy,gz
-2.8018436,2.0927463,-5.872781,-43.22403,-2.8854809,-7.7127976
-2.94867,2.2972715,-6.3803225,-40.92125,-15.876599,-12.122596
-2.8353453,2.1423874,-6.502052,-32.213787,-25.73652,-17.002209
-2.6332946,2.0091171,-6.5211344,-21.548306,-32.181446,-20.744287
-2.507354,1.8818305,-6.560964,-11.504091,-37.92262,-23.72042
-2.4447403,1.7588996,-6.6298137,-2.7721672,-43.44442,-26.562475
-2.3805501,1.5782212,-6.75858,5.5943856,-49.90134,-29.557396
-2.2750473,1.2145169,-6.9658556,14.064707,-56.907284,-31.534193
-2.0704281,0.77836126,-7.0859423,23.194906,-63.835236,-32.21592
-1.7313592,0.34761572,-7.037254,32.62701,-69.8361,-31.166252
-1.3645674,0.012140363,-6.849094,42.17681,-74.81643,-29.283934
-1.037998,-0.1801656,-6.578479,50.931885,-78.99267,-27.476187
-0.8036717,-0.33142632,-6.2812634,59.560764,-81.06131,-26.291233
-0.65137327,-0.5530098,-6.048968,68.47367,-82.67828,-24.092928
-0.52515626,-0.6894505,-5.752899,77.28088,-84.815865,-20.542912
-0.31361204,-0.60813844,-5.265281,84.36453,-87.15707,-16.588066
0.021247605,-0.39970914,-4.6083384,86.61834,-88.04581,-11.672059
0.31806076,-0.17775778,-3.9011595,86.9732,-87.366196,-7.827849
0.49747333,-0.057076916,-3.2724097,86.941414,-85.957344,-4.189701
0.59412456,0.12975565,-2.6504815,86.60623,-84.3355,-1.1435075
0.6863807,0.40870655,-1.9886568,85.31744,-82.42096,1.3416505
0.7925369,0.72844344,-1.299672,81.90349,-79.43921,3.5937316
0.8714828,1.0906814,-0.5891841,77.46079,-75.46066,5.167073
0.9229773,1.4412342,0.065986365,72.16224,-70.61657,6.01295
0.96676034,1.7563678,0.6487512,66.06204,-65.191185,6.3527365
1.0151368,2.0085616,1.1364315,59.489468,-59.2954,6.276462
1.0635798,2.1753616,1.5090566,52.9688,-53.151745,5.905913
1.1243649,2.2695537,1.7662889,46.563942,-46.78715,5.146489
1.1985482,2.3269773,1.9545949,40.29018,-40.33032,4.2861376
1.2659253,2.3598552,2.073839,34.068977,-33.945145,3.4586759
1.3191051,2.3756816,2.1195261,27.862827,-27.665768,2.6329587
1.3497397,2.3643017,2.0874012,21.799427,-21.5061,1.8702025
1.3459082,2.3248293,1.9452717,16.45205,-15.72587,1.2824109
1.3003998,2.2782996,1.7273947,12.100002,-10.659273,0.59695727
1.2235295,2.2189865,1.4575527,8.946897,-6.2560925,-0.56634855
1.129537,2.1471958,1.152974,7.114729,-2.6190212,-2.221136
1.028531,2.0766497,0.83371645,6.4762597,-0.09604233,-4.198597
0.9586264,2.0104778,0.52395463,6.1521273,1.8988503,-5.8505077
0.89755595,1.956508,0.22433697,5.951834,3.4278085,-7.064265
0.8188827,1.9257377,-0.07291829,5.7922306,4.5589767,-7.92856
0.7126596,1.9194112,-0.37712115,5.708479,5.19388,-8.739763
0.58238816,1.9327763,-0.68438816,5.8211684,5.20461,-9.759585
0.42964453,1.9561116,-0.9903319,5.954939,4.1144633,-11.129333
0.26579064,1.9657718,-1.2904363,6.2615466,2.2837353,-12.540772
0.09285837,1.9718349,-1.5810688,6.693964,-0.17815107,-13.926223
-0.09145019,1.9950883,-1.8450613,7.1570425,-3.2198048,-15.620516
-0.2784076,2.0364008,-2.0737274,7.565192,-6.9617906,-17.99492
-0.44298896,2.0645456,-2.2655303,7.9651327,-11.085598,-20.582695
-0.57878727,2.0581174,-2.4339726,8.349065,-15.728994,-23.497639
-0.6517909,2.0037644,-2.5545719,8.8440695,-20.513973,-26.46928
-0.6590156,1.9163175,-2.6114168,9.449471,-25.120785,-29.331335
-0.6147471,1.8139434,-2.5963671,10.004971,-29.269766,-31.892792
-0.5142668,1.702499,-2.48708,10.355846,-33.026543,-34.208015
-0.3625135,1.5803086,-2.2985113,10.293584,-36.299007,-36.12358
-0.15236783,1.4360274,-2.0288022,9.491577,-38.871502,-37.26428
0.085584335,1.2657723,-1.7028538,8.062467,-40.686596,-37.460594
0.3276192,1.074662,-1.344891,6.460672,-41.75512,-37.083767
0.57267433,0.8675486,-0.9628613,5.0487623,-41.782906,-36.150467
0.8065987,0.6777208,-0.57435995,3.753228,-40.958267,-34.969448
1.0273577,0.50600606,-0.20028213,2.3546093,-39.34978,-33.4805
1.2268198,0.34223017,0.13575628,0.73372346,-37.116013,-31.679243
1.4014808,0.17751363,0.42079774,-0.7829909,-34.106216,-29.523827
1.5423726,0.018071385,0.6268004,-2.2094839,-30.676376,-27.159304
1.6433806,-0.13296127,0.76242465,-3.3249454,-27.042253,-24.598969
1.7032125,-0.26677537,0.8325831,-4.011321,-23.41704,-21.857496
1.728893,-0.38420552,0.84550434,-4.5998063,-19.897913,-18.946983
1.7266852,-0.49457228,0.7937307,-5.017687,-16.48849,-15.859479
1.6977755,-0.61803836,0.6552192,-5.0641475,-13.282102,-12.712242
1.6420205,-0.7535784,0.45991656,-4.543759,-10.565557,-9.509035
1.5658739,-0.8857949,0.23377743,-3.3537478,-8.482879,-6.2242064
1.4948434,-1.0033857,0.003137199,-1.7058884,-7.103138,-2.7962027
1.448077,-1.1113195,-0.21590714,0.27154076,-6.2989907,0.9333656
1.4338487,-1.1633862,-0.3924635,2.968536,-5.6473947,4.7528462
1.4193279,-1.1706369,-0.5313305,5.8999734,-5.0288687,8.49105
1.3843755,-1.1202154,-0.62759256,8.826069,-4.500245,12.19933
1.3172448,-0.98559123,-0.67298424,11.467117,-4.0797086,15.620164
1.2315978,-0.77607393,-0.6684957,13.232852,-3.5609818,18.597523
1.1110902,-0.51020694,-0.6281803,14.285735,-3.074543,21.159952
0.9620228,-0.20692785,-0.5656331,14.957765,-2.767593,22.891993
0.8137128,0.11686589,-0.4802029,15.3771305,-2.5109966,23.769363
0.6712627,0.44513738,-0.38036168,15.442622,-2.403034,24.014639
0.54379046,0.7887411,-0.25254005,14.706686,-2.396548,23.550694
0.45096278,1.1378449,-0.10551718,13.186083,-2.319237,22.661966
0.38158,1.4571041,0.026287727,11.058033,-2.1618817,21.362347
0.328558,1.73984,0.13611937,8.656775,-1.9386222,19.584682
0.2913303,1.9914297,0.23009872,6.1329923,-1.5691704,17.327213
0.26627544,2.2129252,0.30127478,3.440739,-0.9893124,14.76253
0.23511812,2.3958359,0.3143467,0.43990213,-0.38006815,11.770327
0.19849363,2.5336077,0.28063092,-2.6185257,0.05668698,8.469555
0.16438082,2.6196156,0.20389213,-5.5988617,0.28635243,4.9906054
0.13448352,2.6516433,0.09541222,-8.287673,0.25827295,1.3199792
0.11843554,2.6382833,-0.026412617,-10.568228,-0.038405553,-2.4234664
0.12790659,2.5822115,-0.149012,-12.579757,-0.47471985,-6.115218
0.161204,2.484324,-0.26923472,-14.395878,-1.002277,-9.6959
0.2093088,2.3253405,-0.38775355,-16.09923,-1.5876107,-12.701383
0.26427555,2.107457,-0.50281143,-17.542652,-2.080034,-14.829408
0.3257304,1.8215094,-0.60751784,-18.015081,-2.2745214,-15.642364
0.4084391,1.472502,-0.68154436,-17.484465,-2.146204,-15.092423
0.49988526,1.172453,-0.69477606,-16.640627,-1.804512,-13.489879
0.48426905,1.135826,-0.67307156,-16.120779,-1.7481399,-13.06846
0.46914405,1.1003512,-0.6520497,-15.617285,-1.6935408,-12.660298
0.45449448,1.0659914,-0.6316887,-15.129618,-1.640658,-12.264966
0.44030514,1.0327111,-0.6119674,-14.65727,-1.5894367,-11.882052
0.4265613,1.0004758,-0.5928652,-14.199754,-1.5398234,-11.511163
0.41324878,0.969252,-0.5743625,-13.756594,-1.4917672,-11.151912
0.4003538,0.9390075,-0.5564402,-13.327334,-1.4452182,-10.803928
0.3878631,0.9097113,-0.5390797,-12.911532,-1.4001286,-10.466855
0.3757638,0.8813331,-0.5222632,-12.508761,-1.356452,-10.140344
0.36404353,0.8538438,-0.5059736,-12.118606,-1.3141435,-9.824061
0.35269025,0.8272153,-0.49019396,-11.740667,-1.2731597,-9.517682
0.34169233,0.8014203,-0.47490826,-11.374558,-1.2334589,-9.220892
0.3310385,0.7764324,-0.46010086,-11.019905,-1.1950003,-8.93339
0.32071796,0.7522261,-0.4457566,-10.676346,-1.1577445,-8.65488
0.31072015,0.7287768,-0.43186095,-10.34353,-1.1216539,-8.385078
0.30103487,0.7060605,-0.41839966,-10.021118,-1.0866915,-8.123713
0.29165232,0.68405426,-0.40535912,-9.708782,-1.0528219,-7.8705153
0.2825629,0.6627356,-0.39272603,-9.406206,-1.0200105,-7.625229
0.27375746,0.64208287,-0.38048756,-9.113082,-0.988224,-7.387605
0.265227,0.62207514,-0.36863133,-8.829113,-0.95743036,-7.157403
0.25696293,0.6026922,-0.3571453,-8.55401,-0.92759824,-6.9343886
0.24895683,0.58391434,-0.3460179,-8.287497,-0.89869744,-6.7183366
0.24120063,0.56572264,-0.33523777,-8.029302,-0.87069875,-6.5090284
0.23368649,0.5480987,-0.3247941,-7.779165,-0.8435738,-6.3062525
0.22640683,0.5310246,-0.3146763,-7.536833,-0.81729525,-6.1098037
0.21935427,0.5144832,-0.30487415,-7.302061,-0.7918366,-5.9194837
0.21252172,0.49845785,-0.2953778,-7.0746126,-0.7671721,-5.7351007
0.20590228,0.4829323,-0.2861776,-6.8542585,-0.74327683,-5.5564685
0.19948927,0.46789095,-0.27726436,-6.6407766,-0.7201268,-5.3834076
0.19327623,0.4533186,-0.268629,-6.4339514,-0.69769865,-5.2157426
0.1872569,0.4392006,-0.26026294,-6.233575,-0.6759698,-5.0533056
0.18142523,0.42552277,-0.2521577,-6.039445,-0.6549184,-4.8959327
0.17577536,0.4122713,-0.24430509,-5.851367,-0.63452315,-4.7434654
0.17030159,0.3994329,-0.23669726,-5.6691513,-0.6147636,-4.5957503
0.16499843,0.3869946,-0.22932653,-5.4926147,-0.59562,-4.4526396
0.15986052,0.37494397,-0.22218552,-5.32158,-0.5770729,-4.313988
0.15488274,0.36326885,-0.21526705,-5.155875,-0.55910385,-4.1796584
0.15006007,0.35195753,-0.20856415,-4.9953337,-0.54169476,-4.049514
0.14538766,0.34099865,-0.2020701,-4.839794,-0.524828,-3.9234242
0.14086083,0.3303812,-0.1957784,-4.6891007,-0.5084868,-3.8012636
0.13647503,0.3200946,-0.18968269,-4.5431027,-0.49265474,-3.6829085
0.13222586,0.3101284,-0.1837769,-4.4016523,-0.47731584,-3.5682404
0.12810905,0.30047265,-0.17805506,-4.2646084,-0.4624548,-3.4571447
0.12412049,0.29111767,-0.17251147,-4.1318336,-0.44805667,-3.3495092
0.120256156,0.2820541,-0.16714056,-4.0031943,-0.434107,-3.2452266
0.11651219,0.27327284,-0.16193692,-3.8785617,-0.42059183,-3.1441922
0.11288483,0.26476508,-0.15689535,-3.7578108,-0.40749758,-3.0463045
0.10937044,0.25652227,-0.15201081,-3.640821,-0.39481118,-2.9514654
0.1059655,0.24853618,-0.1472784,-3.5274744,-0.38251984,-2.85958
0.10266661,0.2407988,-0.14269336,-3.4176576,-0.3706113,-2.770556
0.099470444,0.23330238,-0.1382511,-3.311261,-0.35907364,-2.6843045
0.09637381,0.2260394,-0.13394716,-3.2081773,-0.34789523,-2.6007388
0.093373604,0.21900257,-0.12977727,-3.1083038,-0.33706492,-2.5197754
0.09046682,0.21218488,-0.12573722,-3.0115402,-0.32657188,-2.441333
0.087650545,0.20557947,-0.12182296,-2.9177897,-0.31640556,-2.3653333
0.08492197,0.19917974,-0.118030585,-2.8269582,-0.30655578,-2.2917001
0.08227835,0.19297928,-0.114356294,-2.738955,-0.29701272,-2.2203596
0.07971704,0.18697187,-0.11079641,-2.653692,-0.28776675,-2.15124
0.07723548,0.18115151,-0.10734736,-2.5710835,-0.27880868,-2.0842729
0.07483118,0.17551237,-0.104005694,-2.4910471,-0.27012953,-2.0193906
0.07250174,0.1700488,-0.100768074,-2.4135027,-0.2617206,-1.9565285
0.07024483,0.16475533,-0.09763125,-2.3383725,-0.25357348,-1.8956236
0.06805818,0.15962666,-0.094592094,-2.2655814,-0.24568,-1.8366147
0.06593961,0.15465768,-0.09164756,-2.1950564,-0.23803227,-1.779443
0.06388699,0.14984338,-0.088794686,-2.1267273,-0.23062263,-1.7240514
0.061898284,0.14517897,-0.08603063,-2.0605254,-0.22344369,-1.670384
0.059971485,0.14065978,-0.08335263,-1.9963843,-0.21648823,-1.6183876
0.05810467,0.13628127,-0.080758005,-1.9342401,-0.2097493,-1.5680099
0.056295976,0.13203907,-0.07824415,-1.8740306,-0.20322017,-1.5192004
0.054543585,0.12792894,-0.07580855,-1.8156955,-0.1968943,-1.4719105
0.052845746,0.123946756,-0.07344878,-1.7591764,-0.19076535,-1.4260927
0.051200766,0.12008854,-0.07116246,-1.7044168,-0.18482721,-1.3817014
0.049606994,0.116350435,-0.06894732,-1.6513618,-0.17907393,-1.3386918
0.048062835,0.1127287,-0.066801146,-1.5999585,-0.17349975,-1.2970213
0.046566743,0.10921971,-0.06472177,-1.5501554,-0.16809909,-1.256648
0.04511723,0.10581995,-0.06270713,-1.5019026,-0.16286655,-1.2175313
0.043712836,0.10252602,-0.060755204,-1.4551519,-0.15779689,-1.1796324
0.04235216,0.09933463,-0.058864042,-1.4098564,-0.15288505,-1.1429133
0.04103384,0.096242584,-0.05703175,-1.3659711,-0.14812611,-1.1073372
0.03975656,0.093246795,-0.055256493,-1.3234519,-0.14351532,-1.0728686
0.03851904,0.090344265,-0.0535365,-1.2822562,-0.13904805,-1.0394729
