ax,ay,az,gx,gy,gz
-2.658206,0.97455436,-6.78188,-42.614025,0.6654606,41.282192
-2.9535174,0.99144304,-7.7891884,-26.468452,-14.773719,39.09035
-3.0506232,0.9463798,-8.3973255,-10.084117,-33.62925,32.966892
-2.7899952,0.91274816,-8.638871,6.6690764,-48.033424,23.686016
-2.2639735,0.7401535,-8.7999,24.115812,-55.933743,14.701205
-1.7855465,0.50595987,-8.937769,43.50795,-59.62636,6.268467
-1.4193732,0.32998288,-9.036998,62.082054,-61.8049,-0.41052163
-1.157439,0.26690087,-9.071556,77.67402,-65.443436,-4.1863327
-0.9535626,0.18742736,-9.025962,89.40368,-71.727394,-5.005763
-0.6960784,0.103951834,-8.832819,99.30981,-78.34191,-5.098897
-0.38117373,0.09873291,-8.496299,107.43896,-84.03181,-4.845291
-0.018109333,0.15079243,-8.031907,113.33209,-88.83917,-3.5917373
0.32012153,0.24765009,-7.4402065,116.39589,-92.53563,-0.6811566
0.54938537,0.38641128,-6.8043976,117.43588,-95.27522,2.6873808
0.68275964,0.5502533,-6.1177087,117.85843,-97.562195,5.2848306
0.8182456,0.77113587,-5.343509,117.78495,-98.93227,7.0055437
0.9664387,1.0692614,-4.4795303,116.691414,-99.0219,8.069738
1.1144925,1.4113896,-3.5622,114.085205,-97.831985,8.998275
1.2582176,1.7607899,-2.635428,109.77735,-95.1311,10.156013
1.3975595,2.1278753,-1.7345672,104.776924,-91.54699,10.900368
1.5289112,2.4447565,-0.91701424,99.36647,-87.00817,11.1673565
1.6472352,2.7079778,-0.21036686,93.66195,-81.53636,11.069258
1.7534248,2.9351513,0.37978765,87.51242,-75.312256,10.7431555
1.8541007,3.122354,0.84545887,80.611374,-68.36623,10.267154
1.9451188,3.2251585,1.1477884,73.84766,-61.199432,9.7402
2.0194151,3.2704244,1.3419518,67.38056,-53.831585,9.138577
2.080183,3.2858496,1.456503,61.081688,-46.381187,8.468773
2.1417334,3.2789478,1.5027269,54.894558,-38.95829,7.712083
2.2075467,3.249839,1.4924033,48.183197,-31.187956,7.046182
2.255552,3.1801243,1.3928688,41.39962,-23.207731,6.601975
2.2408268,3.0771618,1.1938756,35.873188,-15.555592,6.3083444
2.1529455,2.952728,0.9367662,32.18089,-8.932523,5.7188673
2.039609,2.840881,0.685926,29.57883,-3.3355315,5.09427
1.9301988,2.7830403,0.4569507,27.605196,1.3245969,4.374028
1.8254914,2.7721648,0.23904848,25.729605,5.4543834,3.4148374
1.719433,2.782387,0.0221787,23.976978,9.101129,2.1453176
1.600087,2.8206866,-0.2081662,22.213663,12.07884,0.47824737
1.4603517,2.8671136,-0.4588107,20.331984,14.04526,-1.6426696
1.3016973,2.902437,-0.73079574,18.522848,14.2930975,-4.340401
1.1529589,2.9237022,-1.0106409,16.810005,13.375441,-7.228093
1.025625,2.9507225,-1.2768741,15.134046,11.673577,-10.36951
0.9095239,2.985097,-1.534899,13.562139,9.538333,-14.021666
0.7890283,3.0120122,-1.7966591,12.296343,6.9983478,-18.295767
0.6558814,3.018678,-2.0725212,11.879858,3.5783732,-23.411186
0.52389705,2.9952736,-2.3423252,12.057947,-0.5267591,-28.801952
0.4059247,2.988627,-2.5604043,12.217973,-5.3378916,-34.312454
0.34435084,2.996475,-2.683267,11.473948,-10.517291,-39.351288
0.35126698,3.0013633,-2.7038367,9.910208,-15.195335,-43.58675
0.40846825,2.9761891,-2.6555305,7.516332,-18.645641,-47.34887
0.5253891,2.8696208,-2.5489504,5.8377757,-20.720203,-51.35978
0.6666258,2.7048757,-2.4066567,5.1077223,-22.030502,-55.14652
0.86089396,2.4987772,-2.2279181,4.2152567,-23.544422,-58.130043
1.1459274,2.2285874,-2.0144157,2.273991,-25.461613,-59.648296
1.4848768,1.8849975,-1.7840911,-0.52616185,-26.965664,-59.213276
1.8090017,1.4650714,-1.5732968,-2.8521812,-27.552433,-57.969456
2.0853553,1.03582,-1.384618,-4.176092,-27.140694,-56.253765
2.310726,0.6256724,-1.2130455,-4.5305057,-26.133816,-54.05273
2.4968846,0.2424373,-1.0608468,-4.500043,-24.891272,-50.997063
2.6438687,-0.10939502,-0.9411507,-3.8764784,-23.304407,-47.08776
2.745109,-0.40416604,-0.8721566,-2.7501929,-21.396214,-43.00327
2.822868,-0.66723466,-0.8368433,-1.3583208,-19.45617,-38.60285
2.8862743,-0.8925844,-0.8196453,0.34469867,-17.526697,-33.828495
2.9341934,-1.0808513,-0.82175744,2.3652742,-15.65642,-28.693476
2.9698167,-1.2410115,-0.84878564,4.7352552,-13.947158,-22.881725
3.0026724,-1.3821275,-0.90754277,7.3478956,-12.416397,-16.305279
3.0397692,-1.511202,-0.97367007,10.324059,-10.96531,-8.72062
3.0576591,-1.5787206,-1.0305017,13.926829,-9.336589,-0.5895401
3.0316296,-1.4950097,-1.0613568,17.679321,-7.5676394,6.0660625
2.9844704,-1.3425734,-1.0598444,20.962578,-5.81526,10.774777
2.9363062,-1.1831845,-1.0326179,23.532642,-4.0709114,15.427145
2.8609316,-0.99408215,-1.0056937,25.59345,-2.491566,19.98669
2.7494266,-0.7598095,-0.9851316,27.37822,-1.1373411,24.101912
2.608329,-0.48739615,-0.96115303,28.82684,-0.05463869,27.480278
2.4457772,-0.1735597,-0.9324775,29.75154,0.6594538,29.510435
2.2614124,0.1749905,-0.8985341,30.24372,1.0832729,30.327358
2.0865932,0.5275781,-0.86282176,30.312271,1.2131665,30.23488
1.9430202,0.8742584,-0.818759,30.017756,1.1883135,29.499031
1.8283105,1.2113342,-0.7652337,29.289463,1.2992227,28.27052
1.7219929,1.5389565,-0.7178311,27.97428,1.6010367,26.245983
1.6118646,1.8401481,-0.6918886,26.328333,1.7776258,23.582659
1.507277,2.1117043,-0.67733747,24.299051,1.7293111,20.486183
1.4059016,2.346368,-0.6760361,22.069988,1.4250752,17.01487
1.3116862,2.547125,-0.67751354,19.63994,0.9155698,13.138676
1.2405201,2.7259412,-0.67004657,16.608614,0.44545752,8.795854
1.185772,2.8695593,-0.66960526,13.026206,-0.05562644,4.3140693
1.1414723,2.9581237,-0.6921635,9.000626,-0.7572615,-0.14132245
1.11045,2.9944313,-0.73713183,4.8353715,-1.7353072,-4.3836265
1.1009941,2.997931,-0.79327685,0.39697006,-3.0650923,-8.310757
1.1249796,2.9664857,-0.8555674,-4.985218,-4.9324045,-11.533048
1.190041,2.840235,-0.9368756,-10.599928,-7.00625,-14.350684
1.307451,2.6183116,-1.0235596,-15.478107,-8.662437,-17.107573
1.4896225,2.3034697,-1.1133196,-19.058685,-9.526474,-19.809557
1.7245916,1.905724,-1.1988909,-20.92289,-9.2435465,-22.29412
1.9637989,1.4684612,-1.2756219,-21.45423,-8.245728,-23.46055
2.1676052,1.0412644,-1.3214926,-21.924854,-7.26418,-23.238338
2.318443,0.64850944,-1.3470578,-22.393972,-6.31935,-21.904665
2.4210038,0.29628217,-1.3505574,-22.63076,-5.224939,-19.949038
2.4890766,-0.012993155,-1.3333186,-22.42705,-3.8769825,-17.364481
2.5297265,-0.2618442,-1.3016868,-21.97803,-2.4494345,-14.029821
2.450699,-0.25366428,-1.2610226,-21.291445,-2.372915,-13.591536
2.3741572,-0.24574167,-1.2216375,-20.626455,-2.2988026,-13.167036
2.3000214,-0.2380681,-1.1834905,-19.98237,-2.22702,-12.75588
2.2282145,-0.23063561,-1.1465418,-19.35852,-2.1574922,-12.35764
2.1586623,-0.22343647,-1.1107533,-18.754257,-2.0901477,-11.971906
2.0912929,-0.21646325,-1.0760878,-18.168957,-2.0249164,-11.598275
2.0260363,-0.20970875,-1.0425098,-17.602015,-1.9617311,-11.236363
1.9628257,-0.20316602,-1.0099843,-17.052847,-1.9005266,-10.885798
1.9015958,-0.1968283,-0.97847813,-16.520887,-1.8412403,-10.546219
1.8422841,-0.19068913,-0.9479588,-16.005592,-1.783811,-10.217277
1.7848294,-0.18474217,-0.9183952,-15.506432,-1.7281799,-9.898634
1.7291731,-0.17898136,-0.8897569,-15.022895,-1.6742901,-9.589965
1.6752584,-0.17340082,-0.8620147,-14.554488,-1.6220865,-9.290955
1.6230301,-0.16799483,-0.83514035,-14.100734,-1.5715159,-9.001297
1.5724349,-0.16275787,-0.8091063,-13.661168,-1.5225267,-8.720697
1.5234215,-0.15768465,-0.78388613,-13.235344,-1.4750689,-8.448871
1.47594,-0.15276998,-0.7594542,-12.822828,-1.4290944,-8.185538
1.429942,-0.14800888,-0.73578566,-12.4232025,-1.3845564,-7.930434
1.385381,-0.1433965,-0.7128565,-12.03606,-1.3414097,-7.6832995
1.3422116,-0.13892817,-0.6906434,-11.66101,-1.2996106,-7.4438834
1.3003902,-0.13459937,-0.669124,-11.297669,-1.2591166,-7.2119427
1.2598746,-0.13040572,-0.6482764,-10.945672,-1.2198868,-6.987243
1.2206235,-0.12634297,-0.6280795,-10.604663,-1.1818815,-6.769557
1.1825973,-0.122407,-0.6085129,-10.274295,-1.1450623,-6.558665
1.1457577,-0.11859384,-0.5895569,-9.954236,-1.109392,-6.354353
1.1100675,-0.11489965,-0.5711922,-9.644162,-1.0748345,-6.1564155
1.0754905,-0.111320704,-0.5534004,-9.343761,-1.041355,-5.9646525
1.0419921,-0.107853375,-0.53616357,-9.05273,-1.0089198,-5.7788706
1.0095383,-0.104494184,-0.51946425,-8.770774,-0.9774961,-5.598882
0.9780965,-0.10123974,-0.5032857,-8.497611,-0.94705224,-5.4245067
0.947635,-0.09808677,-0.48761156,-8.2329645,-0.9175576,-5.2555676
0.9181232,-0.095032096,-0.47242606,-7.9765687,-0.8889825,-5.0918956
0.8895313,-0.09207264,-0.45771396,-7.728165,-0.8612981,-4.933326
0.8618307,-0.08920544,-0.4434604,-7.487505,-0.83447665,-4.779699
0.8349934,-0.08642759,-0.4296511,-7.254345,-0.8084912,-4.6308594
0.8089925,-0.083736315,-0.4162722,-7.0284514,-0.78331554,-4.486659
0.78380185,-0.08112891,-0.40331018,-6.8095975,-0.7589244,-4.346952
0.7593962,-0.07860275,-0.39075208,-6.5975633,-0.7352934,-4.2115984
0.7357509,-0.076155305,-0.37858528,-6.3921356,-0.7123986,-4.0804625
0.71284235,-0.07378411,-0.36679754,-6.193108,-0.69021714,-3.9534118
0.69064754,-0.07148679,-0.35537702,-6.0002813,-0.66872674,-3.8303196
0.6691441,-0.06926104,-0.3443123,-5.813462,-0.6479058,-3.711062
0.64831054,-0.06710462,-0.33359227,-5.6324615,-0.6277335,-3.5955193
0.62812597,-0.065015376,-0.32320616,-5.4570994,-0.6081896,-3.4835758
0.60857004,-0.06299121,-0.31314355,-5.2872,-0.5892544,-3.3751192
0.5896233,-0.061030082,-0.30339438,-5.122592,-0.57090896,-3.2700408
0.5712666,-0.059130043,-0.29394883,-4.963111,-0.5531349,-3.168235
0.55348164,-0.057289176,-0.28479746,-4.808597,-0.5359145,-3.0696
0.5362506,-0.05550564,-0.27593112,-4.658895,-0.5192303,-2.9740367
0.51955616,-0.05377765,-0.26734087,-4.5138555,-0.5030657,-2.8814497
0.50338155,-0.05210347,-0.25901815,-4.373332,-0.48740453,-2.7917457
0.4877107,-0.050481427,-0.2509546,-4.237185,-0.47223103,-2.7048354
0.4725278,-0.048909895,-0.24314216,-4.1052775,-0.45753005,-2.6206312
0.4578177,-0.047387294,-0.23557298,-3.9774776,-0.4432868,-2.5390494
0.44356564,-0.04591211,-0.22823949,-3.853657,-0.4294871,-2.4600077
0.42975736,-0.044482857,-0.22113435,-3.7336917,-0.41611707,-2.3834271
0.416379,-0.043098103,-0.21425045,-3.617462,-0.40316337,-2.309231
0.40341723,-0.04175647,-0.20758086,-3.504851,-0.39061296,-2.2373452
0.390859,-0.040456608,-0.20111896,-3.3957465,-0.37845334,-2.1676974
0.3786918,-0.039197218,-0.19485824,-3.2900388,-0.3666723,-2.1002183
0.3669034,-0.037977036,-0.18879245,-3.1876223,-0.35525808,-2.03484
0.355482,-0.036794845,-0.18291551,-3.0883946,-0.3441992,-1.9714973
0.34441623,-0.03564946,-0.17722154,-2.992256,-0.33348465,-1.9101266
0.33369496,-0.034539733,-0.17170484,-2.8991106,-0.32310367,-1.8506666
0.32330745,-0.033464555,-0.16635989,-2.808865,-0.31304586,-1.7930578
0.31324336,-0.03242285,-0.16118135,-2.721429,-0.3033012,-1.7372425
0.30349258,-0.031413577,-0.15616402,-2.6367152,-0.2938599,-1.6831647
0.29404536,-0.030435726,-0.15130289,-2.5546386,-0.28471252,-1.6307706
0.28489223,-0.029488314,-0.1465931,-2.4751172,-0.2758499,-1.5800076
0.27602407,-0.028570397,-0.14202991,-2.3980713,-0.2672632,-1.5308248
0.26743197,-0.027681056,-0.1376088,-2.3234239,-0.25894383,-1.4831731
0.25910735,-0.0268194,-0.13332531,-2.2511003,-0.25088343,-1.4370049
0.25104186,-0.025984569,-0.12917517,-2.1810284,-0.24307394,-1.392274
0.24322748,-0.025175724,-0.12515423,-2.1131377,-0.23550758,-1.3489355
0.23565635,-0.024392061,-0.12125846,-2.0473604,-0.22817674,-1.3069462
0.22832091,-0.02363279,-0.11748396,-1.9836308,-0.22107412,-1.266264
0.22121382,-0.022897158,-0.11382696,-1.921885,-0.21419261,-1.2268481
0.21432796,-0.022184424,-0.1102838,-1.8620613,-0.20752531,-1.1886593
0.20765646,-0.021493878,-0.10685094,-1.8040999,-0.20106556,-1.1516593
0.20119263,-0.020824827,-0.10352494,-1.7479428,-0.19480689,-1.115811
0.19493002,-0.020176604,-0.100302465,-1.6935338,-0.18874304,-1.0810786
