ax,ay,az,gx,gy,gz
-1.9354721,0.31363922,-7.743706,49.66045,-55.43141,-6.9909725
-1.7155958,0.27140555,-8.098814,64.70611,-66.1279,-14.129414
-1.3172629,0.2609332,-8.141209,72.810104,-71.95752,-17.177057
-1.0040896,0.23695838,-8.157315,75.41116,-76.410934,-17.006168
-0.84089833,0.0787257,-8.221772,76.536766,-80.169266,-16.239988
-0.80781716,-0.17823473,-8.2842,77.910706,-84.17425,-15.400791
-0.76088595,-0.46080118,-8.290879,81.634926,-88.180565,-15.554681
-0.6514455,-0.74269426,-8.206322,86.908,-92.84583,-15.617177
-0.4265449,-0.9669046,-7.9524293,92.00018,-97.435165,-14.396668
-0.1247488,-1.0687848,-7.5298266,96.095566,-100.81521,-12.668978
0.12436604,-1.1548048,-7.0912623,99.42358,-103.96491,-10.360044
0.35195118,-1.2190057,-6.609385,102.026726,-107.27579,-7.2326794
0.601433,-1.2060984,-6.0614967,104.16688,-110.306496,-3.8687623
0.85191905,-1.0997126,-5.44008,106.01495,-112.03276,-1.8554724
1.1015489,-0.8944346,-4.6728926,107.61168,-112.15557,-1.1547099
1.3406082,-0.64861965,-3.849711,108.33802,-110.56495,-0.79167
1.5486721,-0.37797692,-3.011342,107.77914,-107.69132,-0.13597392
1.7171555,-0.07344583,-2.176951,105.66177,-103.916794,0.88681686
1.8556145,0.2765838,-1.3523599,101.50995,-99.10766,1.7995902
1.9779196,0.66800356,-0.52653545,96.3953,-93.55839,2.3393455
2.0986662,1.0512406,0.23894669,90.10368,-86.835434,2.6170287
2.2067797,1.3833007,0.88337463,82.64683,-79.348656,3.0165107
2.2851105,1.6414543,1.3644773,74.312546,-71.71664,3.5947149
2.3349173,1.8186991,1.6865271,65.76125,-64.413376,4.00853
2.3943396,1.9039555,1.870538,57.546627,-57.32978,4.298679
2.473979,1.9328938,1.9732434,49.84598,-50.222206,4.691801
2.5498056,1.9288011,2.000744,42.77839,-43.12394,5.085167
2.615113,1.9020567,1.9582055,36.27943,-36.131695,5.420014
2.6652775,1.8426261,1.846489,30.608887,-29.279467,5.7411838
2.683878,1.7551525,1.6582797,25.934858,-22.73218,5.9187713
2.6771736,1.6691688,1.4364084,22.22177,-16.454624,5.8809276
2.6385121,1.5981188,1.1834683,19.266245,-10.5350685,5.7037296
2.5570495,1.5490887,0.8984625,16.917221,-5.289197,5.499875
2.4304416,1.5334811,0.5913667,14.8557,-1.0884173,5.326462
2.2527924,1.5514042,0.24894278,12.932438,2.2675402,4.9845
2.0497236,1.5810784,-0.11403394,11.277276,4.7386494,4.003231
1.8364539,1.6025585,-0.4856373,10.245926,6.3923697,2.2981906
1.6206539,1.6344155,-0.8432214,9.787754,7.118335,0.106980085
1.4065578,1.7130003,-1.1653743,9.34262,6.7132006,-2.729832
1.1864482,1.8356419,-1.4573015,8.634977,5.6441936,-6.0758963
0.95880705,1.9602747,-1.7342275,7.836173,3.8156204,-10.028036
0.74265504,2.082908,-1.9741249,7.095322,1.3295195,-14.533152
0.5578269,2.1999388,-2.1624103,6.3155885,-1.5913903,-19.238363
0.4104026,2.3026133,-2.2991393,5.1434608,-4.7966475,-23.846926
0.3060857,2.3658736,-2.3880017,3.7991638,-7.98486,-28.162857
0.23991892,2.3900638,-2.4471807,2.587568,-11.342713,-32.29574
0.22273277,2.3865066,-2.4523864,1.3058671,-14.606311,-36.12543
0.23838176,2.355381,-2.4129307,-0.5433992,-17.871317,-39.34739
0.2803389,2.2718027,-2.3732471,-2.9491875,-21.715244,-42.05123
0.4351694,2.0518367,-2.3242466,-5.2434664,-25.800629,-44.304855
0.7152014,1.7345697,-2.21051,-6.699053,-29.335733,-46.034264
1.104914,1.3676867,-2.0105653,-7.4246902,-31.550854,-47.11333
1.5261478,0.97733444,-1.7533113,-7.7924466,-32.238144,-47.20733
1.8868436,0.57777184,-1.49475,-8.063124,-31.474394,-45.797478
2.1253679,0.19879909,-1.2909901,-8.352059,-30.389252,-43.615078
2.3047512,-0.16133845,-1.1318578,-8.499409,-29.225218,-40.81207
2.449413,-0.50206417,-0.9983233,-8.312256,-27.939047,-37.446953
2.5692499,-0.81589496,-0.8859346,-7.58977,-26.327309,-33.63734
2.662121,-1.0876762,-0.801192,-6.14144,-24.159153,-29.551418
2.7185009,-1.2963481,-0.75372714,-4.446369,-21.734037,-25.481464
2.7501872,-1.4723258,-0.7426271,-2.5949645,-19.263597,-21.394432
2.7624598,-1.6267867,-0.7658358,-0.61852133,-16.935003,-17.163752
2.758696,-1.7587165,-0.8156111,1.5495615,-14.795863,-12.794147
2.73994,-1.8661622,-0.8871406,4.1839657,-12.891994,-8.341294
2.7158432,-1.9406726,-0.97529364,7.171735,-11.157543,-3.8037126
2.6910279,-1.9785398,-1.0619787,10.386763,-9.531297,0.73968244
2.6624403,-1.9695811,-1.1414264,13.75476,-8.022852,5.044734
2.6291559,-1.9182173,-1.2070259,17.100746,-6.629818,9.149703
2.593924,-1.8295847,-1.2557292,20.197828,-5.3927703,13.21611
2.5496676,-1.6855012,-1.2852651,22.975245,-4.3995013,17.253496
2.496665,-1.4992863,-1.2936941,24.915808,-3.841589,21.44786
2.4318762,-1.2874547,-1.2909058,26.118578,-3.6981084,25.755312
2.3514783,-1.0656054,-1.2828751,26.76606,-4.053593,30.17622
2.2664342,-0.82676923,-1.264484,27.107664,-4.890988,34.74767
2.1814573,-0.53285867,-1.2132121,27.474771,-5.6892676,38.753365
2.0897043,-0.18211126,-1.1268148,27.967014,-6.028777,41.250862
1.9831151,0.21694173,-1.0119395,28.335146,-5.755206,41.718075
1.8754454,0.6210149,-0.89217913,28.097574,-5.226471,40.65496
1.7854688,0.9965789,-0.7773458,26.771849,-4.689836,38.56512
1.7140739,1.3375081,-0.6811735,24.626917,-4.2610245,35.979103
1.6625001,1.6415015,-0.60499233,21.843641,-3.8729627,33.007397
1.6255265,1.913413,-0.5452744,18.598595,-3.382122,29.462791
1.5993679,2.1574557,-0.5023877,15.0028305,-2.6497943,25.246847
1.5781356,2.3679512,-0.4846444,11.340167,-1.7663264,20.281607
1.5589343,2.523288,-0.49917114,7.706591,-1.0204614,15.216506
1.5424509,2.6436074,-0.52573097,3.8748689,-0.5591039,10.263521
1.5404595,2.7324367,-0.5562448,-0.48390722,-0.27529424,5.468642
1.5512671,2.7725117,-0.6049834,-5.0541096,0.03008505,0.6523703
1.5696946,2.7517397,-0.6814235,-9.306632,0.27793106,-4.3550944
1.6227618,2.6224725,-0.79188186,-12.8310175,0.37442747,-9.717933
1.7291851,2.3868206,-0.9103933,-15.335311,0.412413,-15.591226
1.9101436,2.0182278,-1.023331,-16.97851,0.5218116,-20.953386
2.1279113,1.5438923,-1.1201082,-18.076746,0.7251905,-24.61152
2.320828,1.0170356,-1.2081287,-18.393457,0.7387965,-25.327272
2.4600368,0.49994877,-1.2766002,-17.67869,0.6011323,-24.06721
2.5592308,0.09553907,-1.2832112,-16.076065,0.6472233,-21.940321
2.6162477,-0.22580102,-1.2187085,-14.598407,1.630663,-19.426374
2.5344772,-0.21874365,-1.180618,-14.142136,1.5796969,-18.819206
2.4552827,-0.21190858,-1.1437273,-13.700237,1.5303363,-18.231163
2.3785806,-0.20528865,-1.1079978,-13.272247,1.4825292,-17.661629
2.3042912,-0.19887693,-1.073392,-12.85772,1.4362259,-17.11001
2.232337,-0.19266677,-1.0398742,-12.456223,1.391378,-16.57573
2.1626434,-0.1866517,-1.0074092,-12.067339,1.3479391,-16.058235
2.0951378,-0.1808255,-0.97596365,-11.690665,1.3058641,-15.556988
2.0297508,-0.17518213,-0.94550484,-11.325811,1.2651095,-15.07147
1.9664147,-0.16971576,-0.9160014,-10.972403,1.2256331,-14.601182
1.9050642,-0.16442077,-0.8874229,-10.630073,1.1873944,-14.1456375
1.8456362,-0.15929171,-0.85974,-10.2984705,1.1503539,-13.704368
1.7880698,-0.15432331,-0.83292425,-9.977256,1.1144738,-13.276921
1.732306,-0.14951049,-0.8069481,-9.666099,1.079717,-12.862859
1.6782875,-0.14484832,-0.7817851,-9.36468,1.0460483,-12.461757
1.6259594,-0.14033201,-0.7574094,-9.072695,1.0134331,-12.073205
1.575268,-0.13595699,-0.73379624,-8.789842,0.981838,-11.696808
1.5261618,-0.13171875,-0.7109214,-8.515834,0.9512309,-11.33218
1.4785907,-0.12761304,-0.6887617,-8.250392,0.9215807,-10.978951
1.4325064,-0.123635635,-0.66729456,-7.993246,0.89285713,-10.636763
1.3878621,-0.1197825,-0.6464982,-7.7441354,0.86503106,-10.305266
1.3446124,-0.11604974,-0.62635154,-7.502806,0.8380742,-9.984125
1.3027134,-0.11243356,-0.606834,-7.269014,0.8119593,-9.673014
1.2621228,-0.10893029,-0.5879259,-7.042522,0.78665984,-9.371616
1.2227993,-0.105536394,-0.56960815,-6.823101,0.7621502,-9.079629
1.1847034,-0.10224844,-0.5518622,-6.610529,0.7384056,-8.796755
1.1477962,-0.09906308,-0.53467,-6.4045906,0.715402,-8.522709
1.1120408,-0.09597713,-0.51801425,-6.2050786,0.69311625,-8.257215
1.0774008,-0.09298745,-0.50187814,-6.0117908,0.6715257,-8.000003
1.0438414,-0.09009103,-0.4862454,-5.8245325,0.6506087,-7.7508154
1.0113287,-0.08728495,-0.47110024,-5.643115,0.6303441,-7.5093994
0.9798299,-0.08456638,-0.4564274,-5.4673553,0.61071146,-7.275512
0.94931334,-0.08193258,-0.44221207,-5.2970757,0.591691,-7.0489182
0.9197483,-0.07938091,-0.42843997,-5.132106,0.5732636,-6.8293896
0.89110494,-0.076908775,-0.41509727,-4.9722786,0.5554107,-6.6167045
0.8633545,-0.07451371,-0.40217045,-4.817434,0.5381143,-6.41065
0.836469,-0.0721933,-0.3896466,-4.6674156,0.521357,-6.2110176
0.8104215,-0.069945216,-0.37751305,-4.522073,0.50512207,-6.017607
0.78518575,-0.06776719,-0.36575764,-4.38126,0.48939303,-5.830225
0.7607364,-0.065657035,-0.3543686,-4.244835,0.47415417,-5.6486816
0.7370489,-0.06361263,-0.3433344,-4.112661,0.45939016,-5.4727955
0.71409947,-0.061631933,-0.33264402,-3.9846053,0.44508615,-5.302389
0.6918651,-0.059712943,-0.32228673,-3.8605397,0.43122783,-5.1372924
0.6703234,-0.057853736,-0.3122521,-3.740339,0.41780123,-4.9773393
0.64945275,-0.05605245,-0.30253008,-3.623883,0.40479293,-4.822369
0.6292323,-0.05430728,-0.2931109,-3.5110545,0.39218986,-4.6722264
0.6096417,-0.052616466,-0.28398517,-3.4017408,0.37997934,-4.5267606
0.5906612,-0.05097832,-0.27514365,-3.2958322,0.3681492,-4.3858256
0.572272,-0.0493912,-0.2665775,-3.193222,0.35668752,-4.2492805
0.5544556,-0.04785351,-0.2582782,-3.093808,0.34558278,-4.116988
0.53719395,-0.04636371,-0.25023735,-2.99749,0.33482394,-3.9888163
0.52046996,-0.04492031,-0.24244693,-2.9041717,0.32440016,-3.8646357
0.5042668,-0.04352186,-0.23489912,-2.8137596,0.31430098,-3.7443228
0.48856822,-0.04216696,-0.22758636,-2.726163,0.30451632,-3.6277564
0.4733585,-0.04085425,-0.22050132,-2.6412942,0.29503638,-3.5148199
0.45862243,-0.03958242,-0.2136369,-2.5590682,0.2858516,-3.4054003
0.44434518,-0.03835019,-0.20698625,-2.4794028,0.27695286,-3.299388
0.43051252,-0.037156332,-0.20054267,-2.4022179,0.2683312,-3.1966765
0.4171106,-0.03599965,-0.19429974,-2.3274364,0.259978,-3.0971632
0.40412593,-0.03487898,-0.1882512,-2.2549832,0.25188488,-3.0007486
0.3915456,-0.033793204,-0.18239097,-2.184786,0.24404375,-2.907336
0.37935692,-0.032741237,-0.17671321,-2.1167746,0.23644677,-2.8168318
0.36754775,-0.03172202,-0.17121223,-2.0508807,0.22908631,-2.7291453
0.35610628,-0.030734537,-0.16588253,-1.9870383,0.22195503,-2.6441891
0.345021,-0.029777799,-0.16071874,-1.9251834,0.21504577,-2.5618777
0.33428085,-0.028850846,-0.15571573,-1.8652545,0.20835161,-2.4821293
0.32387507,-0.027952753,-0.15086849,-1.8071914,0.20186587,-2.4048634
0.31379327,-0.02708262,-0.14617215,-1.7509358,0.19558205,-2.3300033
0.30402532,-0.026239578,-0.14162202,-1.6964316,0.18949386,-2.2574735
0.2945615,-0.02542278,-0.13721354,-1.6436244,0.18359521,-2.1872017
0.28539228,-0.02463141,-0.13294232,-1.592461,0.1778802,-2.1191177
0.2765085,-0.023864677,-0.12880404,-1.5428905,0.17234309,-2.0531533
0.2679013,-0.023121813,-0.12479462,-1.4948632,0.16697837,-1.9892426
0.25956205,-0.022402076,-0.12091,-1.448331,0.16178066,-1.9273212
0.25148243,-0.021704745,-0.11714631,-1.4032474,0.15674475,-1.8673276
0.2436543,-0.02102912,-0.11349979,-1.3595672,0.1518656,-1.8092016
0.23606986,-0.020374529,-0.10996679,-1.3172468,0.14713836,-1.752885
0.22872153,-0.019740315,-0.10654377,-1.2762438,0.14255828,-1.6983216
0.22160195,-0.019125845,-0.1032273,-1.2365172,0.13812076,-1.6454568
0.214704,-0.018530503,-0.10001408,-1.1980274,0.13382138,-1.5942376
0.20802078,-0.017953692,-0.09690088,-1.1607356,0.12965584,-1.5446128
0.20154561,-0.017394839,-0.093884595,-1.1246048,0.12561998,-1.4965328
0.195272,-0.016853381,-0.09096221,-1.0895987,0.12170974,-1.4499495
0.18919368,-0.016328778,-0.08813079,-1.0556823,0.117921226,-1.4048163
