ax,ay,az,gx,gy,gz
-2.2836573,1.5836507,-4.237311,13.650125,6.380967,-8.489168
-2.7002528,1.8115684,-4.7674704,17.062998,-5.500198,-10.784229
-2.9919899,2.0272596,-5.093393,20.858906,-13.604813,-17.082336
-3.3724234,2.0193622,-5.488906,25.061296,-22.93007,-27.498573
-3.735189,1.8277048,-5.894787,32.279747,-32.45963,-36.752987
-4.051409,1.5988811,-6.396091,43.290825,-44.501564,-44.458202
-4.143838,1.2709109,-6.8613687,58.838272,-59.54508,-47.974117
-4.0536304,0.74136686,-7.373159,71.13324,-73.492325,-47.53691
-4.0062284,0.1544658,-7.9757404,85.28621,-87.8536,-45.76757
-3.990517,-0.23513469,-8.452622,98.851166,-101.89069,-44.481396
-3.9601543,-0.3560069,-8.757761,109.84122,-116.41723,-42.786083
-3.7780993,-0.3550586,-8.885461,119.33976,-131.50151,-40.751053
-3.3935332,-0.22189751,-8.814958,128.08224,-145.4097,-39.275024
-2.9814174,0.09039849,-8.61842,135.22346,-157.72455,-39.38733
-2.5159318,0.43444297,-8.31836,139.45418,-168.30826,-41.68143
-1.9263581,0.65089756,-7.9158735,143.01953,-175.9088,-44.54005
-1.1746736,0.9742801,-7.33163,144.08195,-180.15009,-44.82432
-0.21772128,1.4974887,-6.3988857,141.87653,-181.58455,-42.4976
0.82385176,2.042272,-5.2654166,136.38342,-178.57097,-38.09011
1.7992275,2.5457838,-4.11932,128.06007,-171.29906,-32.652225
2.5690749,3.0312364,-3.1355784,117.78102,-160.88411,-27.404787
3.0677247,3.3864934,-2.4267743,107.475204,-148.63925,-23.119303
3.3141017,3.548584,-1.9800766,97.72803,-136.66466,-19.31784
3.5180242,3.64199,-1.6125741,87.96406,-124.8839,-15.353833
3.7039068,3.6877623,-1.3014772,78.42845,-113.1593,-11.534719
3.8730516,3.6692672,-1.0468446,69.2092,-100.979515,-8.033504
4.005699,3.6229672,-0.8680489,60.362843,-87.9599,-5.033458
4.0273614,3.5463173,-0.8174446,52.416027,-75.61087,-2.937366
3.9969428,3.428438,-0.82203335,45.46444,-64.46163,-1.5308403
3.9678242,3.2859802,-0.82329804,38.494225,-54.098278,0.13600849
3.9598384,3.1399934,-0.81616235,31.78885,-43.97116,2.3244965
3.9776669,3.013003,-0.800287,25.843855,-32.98823,4.6835895
3.9203706,2.8841763,-0.88948154,22.078676,-22.627712,6.6334925
3.7998183,2.7782507,-1.0158321,19.18602,-13.582984,8.033979
3.679009,2.6919105,-1.1323053,16.05641,-5.816572,9.646688
3.592162,2.6364422,-1.2157692,12.308115,1.4044887,11.856179
3.5201797,2.648226,-1.2901367,7.913531,8.551572,13.677016
3.374499,2.6812167,-1.4339745,5.402968,14.643816,14.675881
3.1921518,2.748538,-1.5696688,3.432754,19.757122,14.977094
2.9867198,2.8818004,-1.6872398,1.1490861,23.658974,14.728517
2.7536743,3.0576224,-1.7983463,-1.7895848,26.479504,13.835051
2.4911458,3.2337267,-1.9310567,-4.803664,27.843842,12.06015
2.2550228,3.4214573,-2.0538075,-8.177103,28.403381,10.075119
2.0539806,3.602061,-2.1631527,-11.927228,28.344467,7.760775
1.8670412,3.7449677,-2.2743452,-15.551637,27.909948,4.989689
1.6837687,3.867914,-2.3840387,-19.019829,27.22642,1.7896854
1.486587,3.9548972,-2.5050848,-22.222778,25.94117,-2.0472705
1.2796824,4.003741,-2.636477,-24.927204,23.977543,-6.3564076
1.0949358,4.011455,-2.7686446,-27.438078,21.403706,-10.8176775
0.93321335,3.9468176,-2.9114964,-29.83326,18.24446,-15.086302
0.80312,3.7964337,-3.0632863,-31.721373,14.7100935,-19.052755
0.7303876,3.5810196,-3.193664,-32.574097,11.528836,-22.553225
0.6931925,3.2745082,-3.3173153,-32.340244,8.811069,-25.72693
0.66823906,2.9029472,-3.4380815,-31.01076,6.284765,-28.529581
0.68559,2.5127382,-3.5183804,-29.085686,3.6441674,-30.305998
0.7627608,2.158675,-3.52246,-27.092512,0.91748804,-30.929329
0.89186853,1.8327792,-3.4610846,-25.009436,-1.3224405,-30.476252
1.0387608,1.4665825,-3.3733816,-22.597569,-2.8233247,-29.599472
1.1630435,1.0725691,-3.2950604,-19.586172,-3.698171,-28.297478
1.2846037,0.6711885,-3.2196848,-15.936254,-4.3272114,-26.111338
1.4070098,0.30465224,-3.1387167,-11.439592,-4.8528004,-22.933683
1.5373772,0.014478722,-3.0398164,-6.4695635,-5.0159283,-18.73225
1.6567161,-0.12469888,-2.9145246,-1.6664157,-4.774934,-14.801154
1.7515868,-0.22514829,-2.7867575,3.118429,-4.219503,-11.489961
1.8219332,-0.34537882,-2.6790779,8.206361,-3.5044456,-7.799571
1.8585396,-0.38482872,-2.581849,13.159818,-3.0489638,-3.8862898
1.8825583,-0.34887636,-2.4759352,17.520628,-3.1781504,0.46920416
1.9167706,-0.22673951,-2.3422158,21.251854,-3.5001967,4.835747
1.9719973,0.03296505,-2.1375237,23.947353,-3.4274058,7.848897
2.0331564,0.31892776,-1.8957088,25.719679,-2.559081,9.904902
2.0514593,0.5622814,-1.698821,26.80915,-1.3135383,11.942938
2.0291243,0.85463315,-1.5227743,26.725237,0.102210246,13.387415
1.9707559,1.1579928,-1.380205,25.905685,1.4498523,14.439164
1.8865594,1.4512019,-1.2745229,24.466578,2.604044,15.061383
1.7763304,1.7081122,-1.2124788,22.829134,3.6217306,15.094698
1.6680311,1.9063323,-1.1878755,21.243341,4.6601977,14.665318
1.5715792,2.060877,-1.1887331,19.77684,5.8673925,13.692327
1.4905192,2.126984,-1.2266093,18.188385,6.983267,12.953372
1.4258156,2.1533327,-1.2729125,16.541689,8.114937,12.573536
1.380862,2.0854416,-1.2327796,16.020157,7.8590865,12.177113
1.3373599,2.0197427,-1.1939427,15.515464,7.6114974,11.79349
1.2952594,1.9561607,-1.1563569,15.027032,7.371885,11.422227
1.2545123,1.8946226,-1.1199796,14.554303,7.1399755,11.0629
1.2150729,1.8350592,-1.0847695,14.096743,6.9155083,10.715103
1.1768966,1.7774036,-1.0506872,13.653838,6.6982303,10.378446
1.1399409,1.7215914,-1.0176946,13.225094,6.4878993,10.052552
1.1041648,1.6675608,-0.9857552,12.810037,6.284282,9.737062
1.069529,1.6152523,-0.95483375,12.408208,6.0871553,9.431627
1.0359957,1.5646086,-0.9248965,12.019168,5.896302,9.135914
1.0035281,1.5155746,-0.8959107,11.642494,5.7115154,8.849599
0.9720912,1.4680971,-0.86784506,11.277777,5.532594,8.572373
0.94165105,1.422125,-0.8406693,10.924623,5.359346,8.303937
0.91217494,1.3776088,-0.8143541,10.582654,5.1915846,8.044002
0.88363135,1.3345009,-0.7888715,10.251504,5.0291305,7.7922907
0.8559899,1.2927555,-0.7641943,9.9308195,4.871811,7.548535
0.82922125,1.2523283,-0.7402963,9.620261,4.719459,7.312476
0.8032971,1.2131765,-0.7171523,9.319501,4.5719132,7.0838647
0.7781902,1.1752589,-0.6947378,9.028222,4.429019,6.8624597
0.7538741,1.1385356,-0.67302936,8.746118,4.2906256,6.648029
0.73032343,1.1029682,-0.6520042,8.472893,4.1565886,6.440347
0.70751345,1.0685196,-0.6316404,8.2082615,4.0267673,6.2391977
0.6854206,1.0351539,-0.61191666,7.951949,3.9010267,6.0443716
0.6640217,1.0028362,-0.5928126,7.703689,3.7792363,5.855666
0.6432947,0.9715334,-0.5743084,7.4632235,3.6612701,5.6728854
0.6232182,0.9412129,-0.5563848,7.2303042,3.5470057,5.4958405
0.6037713,0.91184336,-0.53902346,7.00469,3.4363253,5.324349
0.5849342,0.8833946,-0.52220637,6.78615,3.329115,5.1582336
0.5666873,0.85583735,-0.5059163,6.5744576,3.225264,4.997324
0.549012,0.82914335,-0.49013647,6.3693967,3.1246662,4.841455
0.53189015,0.8032851,-0.47485074,6.170757,3.0272183,4.690466
0.51530427,0.7782363,-0.4600435,5.9783344,2.9328208,4.5442033
0.49923733,0.7539713,-0.44569957,5.7919326,2.8413768,4.4025173
0.48367295,0.7304653,-0.43180433,5.611362,2.7527933,4.2652636
0.4685953,0.7076943,-0.41834357,5.4364376,2.6669798,4.1323013
0.453989,0.6856352,-0.40530366,5.2669816,2.583849,4.0034957
0.4398392,0.6642655,-0.39267126,5.102822,2.5033164,3.878716
0.42613155,0.64356357,-0.3804336,4.9437914,2.4253001,3.7578351
0.41285208,0.6235083,-0.3685782,4.789729,2.3497207,3.6407304
0.39998734,0.60407937,-0.35709307,4.640478,2.2765021,3.527283
0.38752434,0.5852572,-0.34596658,4.4958873,2.2055695,3.417378
0.37545037,0.56702256,-0.33518744,4.355811,2.1368515,3.310904
0.36375332,0.54935706,-0.32474473,4.2201066,2.0702784,3.2077537
0.35242128,0.53224295,-0.31462795,4.0886374,2.0057828,3.1078224
0.34144285,0.5156628,-0.30482686,3.9612706,1.9432999,3.0110092
0.33080694,0.49959996,-0.2953315,3.8378773,1.8827662,2.9172165
0.32050282,0.48403817,-0.2861324,3.7183332,1.824121,2.8263497
0.31052005,0.46896175,-0.27722016,3.6025178,1.7673048,2.7383168
0.30084863,0.4543555,-0.2685859,3.490314,1.7122605,2.6530294
0.29147878,0.44020474,-0.26022086,3.3816092,1.6589326,2.5704017
0.28240108,0.42649516,-0.25211665,3.2762935,1.6072674,2.49035
0.27360636,0.41321298,-0.24426508,3.1742613,1.557213,2.412794
0.26508582,0.40034488,-0.23665826,3.0754097,1.5087188,2.3376558
0.25683087,0.38787785,-0.22928856,2.9796393,1.4617362,2.2648594
0.2488332,0.3757994,-0.22214855,2.8868537,1.4162179,2.1943321
0.24108477,0.36409736,-0.21523106,2.7969599,1.3721184,2.1260028
0.2335778,0.35276,-0.20852913,2.7098672,1.3293929,2.0598025
0.22630475,0.3417759,-0.20203604,2.6254885,1.2879988,1.9956653
0.21925831,0.33113405,-0.19574526,2.5437388,1.2478945,1.9335264
0.21243143,0.32082376,-0.18965048,2.4645364,1.2090397,1.8733236
0.20581722,0.31083468,-0.18374558,2.3878012,1.1713954,1.8149964
0.19940907,0.3011568,-0.17802462,2.3134568,1.1349238,1.7584862
0.19320054,0.29178038,-0.1724819,2.2414281,1.0995884,1.7037363
0.1871854,0.28269607,-0.16711181,2.171643,1.0653536,1.6506919
0.18135764,0.27389467,-0.161909,2.1040318,1.0321852,1.5992998
0.17571138,0.26536745,-0.15686825,2.0385263,1.00005,1.5495083
0.17024097,0.2571058,-0.15198448,1.9750612,0.96891546,1.5012677
0.16494095,0.24910145,-0.14725283,1.9135727,0.9387507,1.4545295
0.15980598,0.24134639,-0.14266853,1.853999,0.9095254,1.4092469
0.15483093,0.23383284,-0.138227,1.7962807,0.8812102,1.3653744
0.15001081,0.22655328,-0.1339238,1.7403598,0.8537768,1.3228683
0.1453408,0.2195004,-0.12975459,1.6861802,0.82719773,1.2816858
0.1408162,0.21266714,-0.1257152,1.633688,0.80144626,1.2417858
0.1364325,0.20604667,-0.1218016,1.5828301,0.7764967,1.2031281
0.1321853,0.19963235,-0.118009865,1.5335559,0.75232404,1.1656742
0.12807034,0.19341776,-0.11433619,1.485816,0.72890407,1.1293865
0.12408351,0.18739666,-0.11077691,1.4395626,0.7062133,1.0942287
0.12022082,0.18156303,-0.107328445,1.3947493,0.684229,1.0601656
0.11647839,0.17591105,-0.10398736,1.3513312,0.66292924,1.0271631
0.112852484,0.17043504,-0.10075029,1.3092651,0.6422926,0.9951881
0.10933947,0.16512953,-0.097614005,1.2685087,0.62229854,0.9642086
0.105935834,0.1599892,-0.09457537,1.2290211,0.6029269,0.9341937
0.102638155,0.1550089,-0.09163134,1.190763,0.5841584,0.9051132
0.09944315,0.15018365,-0.08877896,1.153696,0.56597424,0.8769381
0.096347615,0.14550863,-0.08601539,1.1177828,0.54835624,0.84964013
0.09334845,0.14097916,-0.08333785,1.0829879,0.53128666,0.82319206
0.09044266,0.13659069,-0.08074367,1.0492761,0.5147485,0.79756737
0.08762733,0.13233884,-0.078230254,1.0166138,0.49872527,0.77274036
0.08489964,0.12821937,-0.075795084,0.9849685,0.48320082,0.7486863
0.082256876,0.124228135,-0.073435724,0.9543082,0.46815965,0.7253811
0.07969637,0.12036115,-0.07114981,0.92460245,0.45358676,0.7028014
0.07721559,0.11661455,-0.06893506,0.8958214,0.4394675,0.6809246
0.074812025,0.11298458,-0.066789255,0.8679364,0.4257878,0.6597288
0.072483286,0.10946762,-0.064710245,0.8409194,0.41253394,0.6391929
0.07022704,0.10606013,-0.062695965,0.8147434,0.39969268,0.61929625
0.06804104,0.10275872,-0.06074438,0.78938234,0.38725117,0.600019
0.06592308,0.09956008,-0.05885355,0.7648107,0.37519693,0.5813418
0.063871056,0.09646102,-0.05702158,0.741004,0.36351797,0.563246
0.061882906,0.09345842,-0.05524664,0.71793836,0.35220253,0.54571354
0.059956644,0.0905493,-0.05352695,0.69559073,0.34123936,0.5287269
0.058090348,0.08773073,-0.051860794,0.67393875,0.33061746,0.51226896
