ax,ay,az,gx,gy,gz
-3.5936692,3.5973055,-6.903699,-9.820999,21.695652,-46.66497
-4.558196,3.9649923,-8.124074,-13.982462,-12.459241,-62.875824
-5.0428815,3.7319922,-9.066079,-13.38898,-42.497112,-73.34646
-5.234105,3.4450796,-9.791669,-12.068737,-71.43555,-80.77699
-5.3956795,3.05617,-10.576034,-7.8811274,-102.175804,-88.33447
-5.5433497,2.6621106,-11.383618,0.09964473,-133.8612,-96.573975
-5.481642,2.3184075,-12.06805,13.1351185,-166.7451,-104.03733
-5.1805916,1.9013976,-12.58277,27.737204,-196.54356,-109.2641
-4.7073274,1.5547458,-12.888593,43.969364,-221.36182,-112.24088
-4.122455,1.3447146,-13.070677,59.560818,-242.3478,-113.65262
-3.6361685,1.1813229,-13.38691,76.50429,-263.12964,-114.99573
-2.9782884,1.0296655,-13.640208,97.067474,-283.12134,-114.174965
-1.737129,1.2010881,-13.201521,113.491455,-297.42517,-109.95405
-0.2789763,1.9120228,-12.012852,120.53207,-303.12064,-106.423584
1.0799924,2.4338212,-10.715396,124.61484,-301.7989,-105.60532
2.3029683,2.7351449,-9.443759,128.93611,-295.29166,-105.35122
3.5223384,3.121076,-8.010899,127.04817,-282.65585,-100.85319
4.6506653,3.410438,-6.5310106,120.13333,-265.7125,-91.80256
5.4528008,3.6934474,-5.3570514,111.27681,-246.6598,-80.4935
5.8995485,4.002869,-4.506977,102.15788,-227.46532,-70.22489
6.143583,4.2238874,-3.8680706,93.69373,-208.76508,-62.25005
6.3131957,4.354823,-3.3112397,85.445595,-189.08167,-56.378036
6.4999175,4.351466,-2.8088057,77.04124,-168.11505,-51.31046
6.7288527,4.284426,-2.3591409,67.70247,-145.24625,-46.23637
6.906783,4.212478,-2.130369,59.45083,-121.68568,-41.09278
6.8876867,4.110372,-2.150427,52.794643,-100.8536,-36.675343
6.7673883,3.9754992,-2.2070072,46.410534,-83.66779,-32.839108
6.659743,3.8365633,-2.1882179,38.74996,-68.263374,-28.74605
6.6364994,3.7084239,-2.104923,30.250013,-52.61794,-24.398705
6.650659,3.5815823,-2.092645,22.162544,-36.22186,-20.066622
6.5149565,3.4364405,-2.2967107,17.384773,-21.112253,-16.401957
6.2339187,3.2631276,-2.5591671,15.857843,-8.846678,-13.854577
5.971426,3.1878836,-2.7219646,14.417106,1.571169,-11.3093195
5.741604,3.1782343,-2.8336377,12.44204,10.814382,-9.045452
5.5195594,3.1798563,-2.9482543,10.572204,19.041286,-7.475834
5.2883043,3.205797,-3.0873833,9.531183,26.084024,-6.324306
4.991652,3.278575,-3.2354054,8.886759,30.637835,-6.013546
4.648109,3.4750903,-3.352326,7.395907,33.01011,-6.3613424
4.312086,3.779547,-3.410922,4.334863,33.89913,-8.034402
4.0249324,4.0717607,-3.4431393,0.5050455,34.12141,-11.036983
3.793979,4.2545714,-3.4575803,-2.2688882,34.09037,-15.224963
3.6434648,4.372818,-3.4308715,-3.645623,33.984104,-20.029713
3.5564332,4.5229225,-3.3549912,-5.3152456,33.967175,-25.047333
3.4610465,4.6941986,-3.3013098,-8.057653,33.79385,-30.428354
3.3233163,4.8211403,-3.332975,-12.082388,32.752018,-35.953762
3.1489651,4.85731,-3.4698904,-16.854649,30.428257,-41.47025
2.949947,4.809391,-3.6890361,-21.200426,26.401236,-47.59344
2.7780483,4.6483836,-3.927679,-24.16601,21.763233,-54.150383
2.7009592,4.3988676,-4.1340976,-26.721554,16.59087,-59.82057
2.6924505,4.0415864,-4.316772,-29.072746,11.44471,-63.708725
2.660057,3.632522,-4.509767,-29.953138,6.4990177,-66.885475
2.6049805,3.2122104,-4.700339,-28.251383,1.2908667,-70.230896
2.5910168,2.7795806,-4.8158827,-25.264502,-4.1637845,-73.149414
2.6749713,2.3570251,-4.819013,-21.807228,-9.358593,-74.99997
2.8896062,1.894198,-4.690279,-18.401665,-12.859934,-74.343254
3.074691,1.4278818,-4.5669103,-14.768981,-15.144689,-71.47087
3.1792374,0.9730766,-4.4932218,-10.329472,-17.045092,-66.565704
3.247397,0.5392598,-4.4659476,-5.44027,-19.012836,-60.145542
3.3245168,0.16302912,-4.4372983,-0.36929905,-21.183273,-52.14084
3.4506545,-0.07778258,-4.329407,4.5055895,-23.147371,-43.337032
3.6366918,-0.14083776,-4.0711274,8.243079,-23.86655,-35.26002
3.7959032,-0.1619986,-3.7834332,11.33364,-23.03006,-28.302195
3.868396,-0.22094703,-3.5564485,14.772405,-21.90112,-21.394917
3.948864,-0.23000927,-3.3086076,17.598406,-20.821009,-13.405724
4.04967,-0.1971912,-3.044952,19.76575,-19.499128,-3.7447278
4.1146054,-0.034456197,-2.7898467,21.518112,-17.814747,6.113685
4.0994596,0.3459042,-2.5242376,22.455929,-15.502939,11.664635
4.004144,0.7027004,-2.308932,23.051632,-13.099346,15.009154
3.8900282,0.97414374,-2.153592,23.200407,-11.119615,17.991728
3.7710254,1.2342086,-2.018851,23.258554,-9.418271,20.720776
3.6619415,1.4988542,-1.893025,23.015505,-7.8824387,23.084887
3.559053,1.810106,-1.7683219,22.14203,-6.2093077,23.472572
3.4323518,2.089635,-1.694102,20.96795,-4.5798626,22.209753
3.2702117,2.2962406,-1.6896904,19.586714,-3.668049,19.983849
3.1088638,2.45542,-1.7155819,18.047789,-3.6117857,17.024748
2.9991236,2.5570185,-1.7341391,15.985593,-4.0498843,14.062036
2.921415,2.590085,-1.7576863,13.487082,-4.732252,11.549063
2.8593733,2.5438135,-1.7866577,11.599938,-5.155297,9.033042
2.8002596,2.480773,-1.80456,10.808264,-5.002247,6.049762
2.745455,2.4212546,-1.8066547,10.342424,-4.4943175,2.822434
2.68278,2.3377306,-1.8006799,9.710859,-3.9085615,-0.05842449
2.6127748,2.2376316,-1.80154,8.459834,-3.5818408,-2.1951087
2.5305805,2.167239,-1.7448661,8.1937,-3.469161,-2.1260536
2.4510238,2.099105,-1.6900108,7.9361053,-3.3600972,-2.0592146
2.3740153,2.0331533,-1.6369123,7.686761,-3.2545264,-1.9945161
2.2994688,1.9693103,-1.5855118,7.4453893,-3.152331,-1.9318864
2.227302,1.9075053,-1.5357519,7.2117224,-3.0533981,-1.8712559
2.1574354,1.8476701,-1.487578,6.985503,-2.9576182,-1.8125578
2.0897925,1.7897394,-1.4409374,6.766484,-2.8648868,-1.755728
2.0242996,1.7336498,-1.3957791,6.5544257,-2.7751029,-1.7007043
1.9608855,1.6793408,-1.3520545,6.3490996,-2.6881688,-1.6474274
1.8994821,1.6267538,-1.3097161,6.150283,-2.6039913,-1.5958397
1.8400234,1.5758321,-1.2687185,5.957763,-2.5224795,-1.5458858
1.7824458,1.5265216,-1.2290181,5.771334,-2.4435465,-1.4975122
1.7266879,1.4787694,-1.1905724,5.590797,-2.3671083,-1.4506676
1.6726907,1.4325252,-1.1533406,5.415961,-2.293084,-1.405302
1.620397,1.3877398,-1.1172835,5.2466407,-2.2213948,-1.3613678
1.5697517,1.3443662,-1.082363,5.082658,-2.1519654,-1.3188186
1.5207018,1.3023589,-1.0485424,4.92384,-2.084723,-1.2776095
1.4731957,1.2616737,-1.0157864,4.7700214,-2.019597,-1.2376975
1.4271839,1.2222683,-0.98406065,4.621041,-1.9565198,-1.1990409
1.3826184,1.1841016,-0.95333225,4.4767437,-1.8954252,-1.1615994
1.339453,1.1471338,-0.92356914,4.3369794,-1.83625,-1.1253343
1.297643,1.1113268,-0.8947406,4.201604,-1.7789327,-1.0902077
1.2571448,1.0766435,-0.8668167,4.070476,-1.7234141,-1.0561835
1.2179171,1.043048,-0.8397686,3.9434614,-1.6696367,-1.0232264
1.179919,1.0105058,-0.81356853,3.8204286,-1.6175455,-0.9913026
1.1431118,0.97898334,-0.7881895,3.7012513,-1.5670866,-0.9603792
1.1074575,0.9484483,-0.7636054,3.5858073,-1.5182083,-0.93042445
1.0729196,0.91886944,-0.73979115,3.473978,-1.4708605,-0.90140766
1.0394628,0.89021635,-0.71672225,3.3656492,-1.4249947,-0.87329906
1.0070529,0.86245984,-0.6943752,3.2607098,-1.3805641,-0.84607005
0.9756567,0.8355715,-0.67272717,3.159053,-1.3375232,-0.81969273
0.94524235,0.80952406,-0.6517561,3.060575,-1.2958283,-0.7941403
0.91577876,0.7842909,-0.6314406,2.9651759,-1.2554369,-0.7693866
0.88723606,0.7598463,-0.61176,2.8727582,-1.2163078,-0.74540657
0.85958517,0.7361656,-0.5926944,2.783228,-1.1784012,-0.72217584
0.83279806,0.7132246,-0.57422435,2.6964948,-1.1416789,-0.6996708
0.8068475,0.69100004,-0.5563312,2.6124704,-1.1061035,-0.6778686
0.78170735,0.6694695,-0.5389967,2.5310695,-1.071639,-0.6567472
0.757352,0.6486111,-0.52220345,2.45221,-1.0382503,-0.6362852
0.7337569,0.6284038,-0.5059343,2.375812,-1.0059038,-0.6164619
0.7108981,0.6088271,-0.4901729,2.301798,-0.97456694,-0.59725726
0.68875265,0.5898613,-0.47490332,2.230094,-0.9442078,-0.5786518
0.667298,0.5714871,-0.46011013,2.1606266,-0.91479576,-0.56062686
0.6465127,0.55368614,-0.44577837,2.0933263,-0.8863013,-0.5431642
0.6263757,0.53644043,-0.43189365,2.0281253,-0.8586955,-0.52624613
0.60686666,0.5197325,-0.41844192,1.9649575,-0.83195066,-0.50985575
0.58796597,0.5035456,-0.40540966,1.9037594,-0.80603975,-0.4939764
0.5696545,0.48786333,-0.39278373,1.8444694,-0.7809368,-0.47859222
0.55191404,0.47267,-0.38055143,1.7870278,-0.75661635,-0.4636876
0.53472656,0.4579503,-0.36870044,1.7313769,-0.7330541,-0.44924763
0.51807475,0.4436894,-0.35721886,1.6774606,-0.7102263,-0.43525773
0.501942,0.42987296,-0.34609511,1.6252247,-0.68810993,-0.42170388
0.486312,0.41648713,-0.33531803,1.5746168,-0.66668284,-0.4085724
0.47116908,0.40351844,-0.32487682,1.5255859,-0.6459235,-0.39585015
0.456498,0.39095384,-0.31476092,1.4780828,-0.625811,-0.38352436
0.44228408,0.37878075,-0.30496025,1.4320599,-0.60632515,-0.37158257
0.428513,0.36698693,-0.2954649,1.3874708,-0.58744645,-0.3600129
0.41517094,0.35556054,-0.2862654,1.344271,-0.5691559,-0.3488036
0.4022445,0.3444901,-0.27735248,1.3024169,-0.5514351,-0.33794355
0.38972077,0.33376452,-0.26871723,1.2618666,-0.5342664,-0.3274218
0.37758714,0.32337305,-0.26035094,1.2225795,-0.5176325,-0.3172278
0.36583146,0.31330526,-0.25224525,1.1845161,-0.50151664,-0.30735135
0.35444194,0.30355102,-0.24439202,1.1476382,-0.4859028,-0.29778248
0.34340715,0.2941006,-0.2367834,1.1119089,-0.47077525,-0.28851166
0.33271602,0.28494453,-0.22941175,1.0772924,-0.45611885,-0.27952957
0.32235786,0.2760736,-0.22226967,1.043754,-0.44191888,-0.27082723
0.3123223,0.2674789,-0.21535,1.01126,-0.42816114,-0.2623959
0.30259922,0.2591519,-0.20864584,0.979778,-0.41483185,-0.2542271
0.29317895,0.25108418,-0.20215045,0.9492763,-0.40191764,-0.24631271
0.284052,0.2432677,-0.19585732,0.91972446,-0.38940558,-0.23864476
0.27520928,0.23569462,-0.18976013,0.89109284,-0.3772831,-0.23121558
0.26664189,0.22835734,-0.18385282,0.8633527,-0.36553812,-0.22401775
0.25834128,0.22124854,-0.17812945,0.8364764,-0.35415885,-0.21704403
0.2502991,0.21436107,-0.17258428,0.81043684,-0.3431339,-0.21028745
0.24250735,0.20768805,-0.16721177,0.7852081,-0.3324522,-0.20374125
0.23495819,0.2012228,-0.16200653,0.7607649,-0.32210308,-0.19739886
0.22764407,0.19495885,-0.15696336,0.7370827,-0.3120762,-0.19125395
0.22055769,0.18888994,-0.15207721,0.7141379,-0.30236152,-0.18530035
0.21369192,0.18300995,-0.14734317,0.6919074,-0.29294926,-0.17953211
0.20703991,0.17731304,-0.14275654,0.670369,-0.28383005,-0.17394347
0.200595,0.17179349,-0.1383127,0.64950126,-0.27499476,-0.16852881
0.19435075,0.16644579,-0.1340072,0.62928313,-0.26643452,-0.16328274
0.18830088,0.16126457,-0.12983575,0.6096944,-0.2581408,-0.15819997
0.18243937,0.15624465,-0.12579416,0.5907156,-0.25010526,-0.15327545
0.17676033,0.15138102,-0.12187839,0.57232755,-0.24231991,-0.14850424
0.17125809,0.14666879,-0.118084535,0.554512,-0.23477691,-0.14388156
0.16592714,0.14210325,-0.114408776,0.53725106,-0.22746874,-0.13940279
0.16076215,0.13767986,-0.11084745,0.5205275,-0.22038807,-0.13506345
0.15575793,0.13339415,-0.107397,0.5043245,-0.21352784,-0.1308592
0.15090953,0.12924187,-0.10405395,0.48862594,-0.20688117,-0.12678581
0.14621203,0.12521885,-0.100814976,0.47341606,-0.20044139,-0.12283925
0.14166078,0.12132107,-0.09767683,0.45867968,-0.1942021,-0.11901554
0.1372512,0.11754462,-0.09463637,0.44440204,-0.18815704,-0.11531086
0.1329789,0.11388574,-0.09169056,0.43056884,-0.18230015,-0.1117215
0.12883958,0.110340744,-0.08883646,0.41716626,-0.17662558,-0.10824388
0.12482912,0.10690611,-0.0860712,0.4041809,-0.17112766,-0.104874514
0.1209435,0.10357839,-0.08339202,0.39159977,-0.16580088,-0.101610035
0.11717884,0.10035426,-0.080796234,0.37941027,-0.16063993,-0.098447174
