ax,ay,az,gx,gy,gz
-0.7527341,2.6054783,-5.4945955,-48.606804,120.24018,-15.25923
-1.579531,2.5790446,-6.442481,-51.99839,113.6963,-15.869951
-2.116138,2.5218298,-7.210491,-55.45129,93.56167,-19.972235
-2.6091468,2.20558,-8.190091,-52.873642,67.95267,-24.406622
-3.2018306,1.6948329,-9.273491,-43.922447,39.96126,-27.551193
-3.86779,1.0666609,-10.425715,-31.593208,6.995299,-29.708652
-4.3415318,0.44113567,-11.362189,-17.06597,-25.416391,-31.034924
-4.5788474,0.02189793,-12.198974,-2.9254436,-61.730705,-31.000628
-4.690278,-0.25443187,-12.991238,10.914493,-97.87647,-31.399216
-4.729164,-0.3260029,-13.721523,27.16239,-132.08864,-34.617184
-4.6968756,-0.3563171,-14.575596,45.89809,-168.42667,-40.241013
-4.0839925,-0.4699258,-15.001486,65.7327,-201.7043,-43.341835
-2.861616,-0.45101246,-14.573359,78.997696,-226.98764,-39.559036
-1.5309758,0.0067085624,-13.418934,87.52819,-238.86002,-32.534077
-0.49784043,0.6371167,-12.360704,95.82113,-245.15767,-30.631033
0.6239066,1.462037,-11.031179,98.25496,-247.04544,-32.024
1.8188652,1.983976,-9.528417,96.80041,-242.79765,-33.84141
2.8827353,2.219535,-8.089081,91.83899,-231.31583,-32.243866
3.5599318,2.3991525,-6.996375,85.73901,-218.38388,-28.61629
3.974539,2.5218737,-6.1511917,79.66891,-205.44174,-24.302765
4.229482,2.5917897,-5.4660616,73.84642,-192.91008,-20.533813
4.408545,2.5834455,-4.8727493,68.52234,-180.51727,-17.254198
4.530845,2.536602,-4.3589363,63.721607,-167.9776,-14.550725
4.6239457,2.4558594,-3.8887455,59.297943,-155.12584,-11.970351
4.7052574,2.3916621,-3.4618838,54.72411,-141.977,-9.633213
4.8213596,2.3477428,-3.0309389,49.767715,-127.94339,-7.2675915
4.9091463,2.3583808,-2.6869793,44.926994,-113.3716,-5.516775
4.911472,2.3535678,-2.4775755,41.00304,-99.36728,-5.1934595
4.902925,2.3012638,-2.3082235,37.91256,-86.198845,-4.780543
4.9381266,2.2617073,-2.1001472,34.025063,-73.23342,-3.5638568
5.0067043,2.2629619,-1.8825885,29.473892,-59.73297,-2.0133297
5.0598154,2.3011298,-1.7370604,25.04611,-45.533333,-0.7865403
5.0538197,2.327178,-1.707963,20.946428,-31.443962,-0.08575681
4.9577985,2.3418295,-1.8003675,17.030573,-18.720837,0.5645618
4.8245244,2.3549623,-1.9242762,13.29251,-7.5146823,1.1850095
4.685365,2.372701,-2.0503793,9.792723,2.3831947,1.5114028
4.5785413,2.38213,-2.1554353,6.5159554,11.834048,1.6504604
4.4746656,2.393785,-2.3010933,4.078139,20.433567,1.8374128
4.310715,2.4517362,-2.4931374,1.800539,27.802673,1.5530031
4.0794106,2.5582252,-2.7204251,-0.41898468,33.195766,0.42048874
3.822553,2.6771526,-2.9391642,-2.5053358,36.539474,-1.3846703
3.5824482,2.8386028,-3.112487,-4.7121463,38.155987,-4.214047
3.3747268,3.0172343,-3.2488778,-6.7019672,38.563717,-8.543927
3.2060733,3.241793,-3.3263712,-8.736719,38.331577,-13.986086
3.0563366,3.4468706,-3.3829546,-11.289277,37.397976,-19.860569
2.915692,3.604466,-3.4394944,-14.638359,35.809944,-25.448473
2.773428,3.7107935,-3.5252495,-18.34436,33.847126,-30.700544
2.6130023,3.7417371,-3.683354,-21.458145,30.9257,-36.18938
2.4589977,3.6771374,-3.880646,-23.860464,27.332537,-41.656197
2.3160903,3.5623658,-4.0857124,-26.027252,22.736862,-47.00863
2.2084298,3.3574939,-4.2827907,-27.358257,17.327988,-51.600883
2.166094,3.1351306,-4.4308724,-28.740458,11.260691,-55.250328
2.2038743,2.7915668,-4.5151296,-30.14762,5.7054224,-57.339867
2.2477188,2.301755,-4.6065645,-29.822922,1.0289066,-58.656544
2.2289116,1.8039869,-4.7045703,-27.854313,-3.568711,-59.60881
2.198157,1.2905847,-4.7681785,-25.263266,-8.208584,-59.774715
2.1693134,0.7990587,-4.8036537,-21.899654,-12.988351,-58.993286
2.18605,0.34551314,-4.780003,-17.80945,-17.09337,-56.911873
2.2389076,-0.054705188,-4.690586,-13.241649,-20.395298,-53.64483
2.2664998,-0.39552405,-4.61122,-8.034962,-23.456644,-50.054497
2.3281026,-0.67427,-4.5032415,-2.2921932,-25.872753,-46.15264
2.417322,-0.88141114,-4.369594,3.496735,-27.668427,-42.076912
2.5377614,-1.0391107,-4.20068,9.244146,-28.437101,-37.186203
2.7031157,-1.100048,-3.993781,14.484063,-28.67738,-31.374174
2.8684878,-1.1011404,-3.7932458,19.41252,-28.55002,-24.80138
2.9954958,-1.0058682,-3.611051,24.437286,-28.466215,-18.017904
3.121108,-0.75278926,-3.3589919,28.108055,-28.318756,-12.2510605
3.2992613,-0.503076,-3.0231528,30.608261,-26.25299,-6.7434306
3.4605675,-0.21238168,-2.6762786,31.46305,-22.964296,-0.91217303
3.5923698,0.0832219,-2.3687844,30.856815,-18.475824,5.298122
3.6701107,0.39807835,-2.1312666,29.229141,-13.169127,11.338409
3.6932545,0.8290972,-1.9328218,26.05638,-7.4116693,15.544257
3.6472344,1.196014,-1.8275305,22.659016,-1.2378988,17.21941
3.531561,1.158082,-1.7695696,21.940376,-1.1986383,16.67329
3.4196846,1.1213951,-1.7135113,21.245327,-1.1606667,16.145096
3.311469,1.0859087,-1.6592875,20.57302,-1.1239375,15.634187
3.206784,1.05158,-1.6068326,19.922647,-1.0884066,15.139945
3.1055045,1.018368,-1.5560843,19.293434,-1.0540316,14.661782
3.0075111,0.9862337,-1.5069824,18.684633,-1.0207719,14.199133
2.9126892,0.9551394,-1.4594698,18.09554,-0.98858863,13.751458
2.8209293,0.92504907,-1.4134912,17.525465,-0.95744455,13.318238
2.7321253,0.8959282,-1.368994,16.973757,-0.92730385,12.898975
2.6461766,0.8677436,-1.3259275,16.439787,-0.8981322,12.493192
2.5629857,0.84046334,-1.2842427,15.922951,-0.8698966,12.10043
2.4824593,0.8140569,-1.2438931,15.4226675,-0.84256536,11.720246
2.4045076,0.7884947,-1.2048337,14.938381,-0.816108,11.35222
2.3290443,0.7637485,-1.1670212,14.469554,-0.7904952,10.99594
2.2559865,0.73979104,-1.1304137,14.015669,-0.76569873,10.651016
2.1852534,0.71659607,-1.0949714,13.57623,-0.74169147,10.317071
2.1167688,0.69413835,-1.0606556,13.150758,-0.71844727,9.993739
2.0504582,0.6723935,-1.027429,12.738792,-0.6959409,9.680672
1.9862498,0.65133804,-0.995256,12.339888,-0.6741481,9.37753
1.924075,0.6309495,-0.9641019,11.953617,-0.65304554,9.083989
1.8638673,0.61120594,-0.93393344,11.579567,-0.63261056,8.799734
1.8055624,0.59208643,-0.90471846,11.2173395,-0.61282146,8.524465
1.7490985,0.5735706,-0.876426,10.8665495,-0.5936572,8.257886
1.6944162,0.55563897,-0.8490261,10.526826,-0.57509756,7.999718
1.6414574,0.53827256,-0.8224899,10.197812,-0.557123,7.749688
1.5901669,0.52145314,-0.7967896,9.879161,-0.5397146,7.507534
1.5404907,0.5051632,-0.7718982,9.57054,-0.52285415,7.2730017
1.4923772,0.4893856,-0.7477898,9.271626,-0.506524,7.0458465
1.445776,0.47410396,-0.7244392,8.98211,-0.49070722,6.825832
1.4006388,0.45930243,-0.70182216,8.701688,-0.47538733,6.612729
1.3569188,0.4449656,-0.67991525,8.430071,-0.46054843,6.406317
1.3145708,0.4310787,-0.6586958,8.166977,-0.4461752,6.2063828
1.273551,0.41762736,-0.63814193,7.912135,-0.4322528,6.0127196
1.2338173,0.40459773,-0.6182324,7.665283,-0.41876686,5.8251276
1.1953287,0.39197642,-0.59894687,7.426167,-0.40570354,5.6434145
1.1580458,0.37975046,-0.5802654,7.1945405,-0.39304942,5.4673934
1.1219302,0.36790732,-0.56216884,6.970167,-0.38079154,5.2968836
1.086945,0.35643488,-0.54463875,6.7528167,-0.36891735,5.131711
1.0530547,0.34532142,-0.5276572,6.5422673,-0.35741466,4.971707
1.0202243,0.33455557,-0.5112068,6.3383036,-0.3462718,4.8167076
0.98842067,0.3241264,-0.49527082,6.140718,-0.3354774,4.666555
0.9576112,0.31402326,-0.47983304,5.94931,-0.32502043,4.5210967
0.92776465,0.30423588,-0.46487775,5.763883,-0.3148903,4.3801847
0.8988507,0.2947543,-0.45038974,5.584251,-0.3050767,4.243675
0.87083995,0.28556892,-0.43635434,5.4102297,-0.29556963,4.11143
0.84370404,0.27667043,-0.42275727,5.2416434,-0.2863595,3.9833157
0.8174155,0.26804978,-0.40958476,5.0783215,-0.27743694,3.8592012
0.79194754,0.25969824,-0.3968235,4.9200983,-0.26879296,3.7389617
0.7672746,0.25160742,-0.38446054,4.7668138,-0.26041877,3.6224754
0.74337167,0.24376908,-0.37248343,4.6183133,-0.25230592,3.5096242
0.7202146,0.23617531,-0.36088005,4.474446,-0.24444625,3.4002943
0.69777995,0.22881848,-0.34963864,4.3350673,-0.23683177,3.2943754
0.6760452,0.22169113,-0.33874795,4.2000365,-0.22945482,3.1917605
0.6549883,0.21478608,-0.3281969,4.069217,-0.22230795,3.0923464
0.63458806,0.20809637,-0.31797493,3.942478,-0.21538396,2.9960325
0.614824,0.20161526,-0.30807167,3.8196905,-0.20867589,2.902722
0.5956762,0.19533624,-0.2984772,3.7007315,-0.20217696,2.8123205
0.57712525,0.18925296,-0.28918186,3.5854812,-0.19588065,2.7247376
0.55915266,0.18335931,-0.28017625,3.4738233,-0.18978061,2.6398847
0.54174024,0.17764938,-0.27145135,3.3656461,-0.1838707,2.5576768
0.5248705,0.1721174,-0.2629984,3.2608404,-0.178145,2.4780312
0.50852656,0.16675782,-0.2548089,3.1593008,-0.17259774,2.4008677
0.4926919,0.16156527,-0.24687457,3.0609257,-0.16722333,2.3261087
0.47735068,0.15653452,-0.2391875,2.9656157,-0.1620164,2.2536793
0.46248746,0.15166052,-0.23173994,2.8732758,-0.15697171,2.1835067
0.4480873,0.14693837,-0.22452442,2.7838125,-0.1520842,2.1155205
0.4341358,0.14236334,-0.2175337,2.6971366,-0.14734896,2.0496523
0.4206189,0.13793084,-0.21076074,2.6131608,-0.14276122,1.985836
0.4075231,0.13363642,-0.20419878,2.531801,-0.1383164,1.9240077
0.3948352,0.12947576,-0.19784123,2.4529755,-0.13401003,1.8641053
0.38254252,0.1254447,-0.1916817,2.3766053,-0.12983781,1.8060689
0.3706327,0.12153919,-0.18571402,2.3026137,-0.12579553,1.74984
0.35909384,0.11775533,-0.1799322,2.2309268,-0.12187915,1.6953624
0.34791437,0.11408931,-0.17433047,2.1614726,-0.11808475,1.6425816
0.33708304,0.11053747,-0.16890319,2.0941813,-0.11440852,1.5914445
0.32658905,0.10709623,-0.16364492,2.0289855,-0.11084677,1.5418999
0.31642184,0.10376217,-0.15855041,1.9658202,-0.10739595,1.4938983
0.30657125,0.10053193,-0.15361455,1.9046218,-0.10405258,1.4473915
0.29702738,0.097402275,-0.14883238,1.8453292,-0.10081333,1.4023328
0.28778073,0.094370075,-0.14419913,1.7878829,-0.09767494,1.3586773
0.278822,0.091432296,-0.13971016,1.7322253,-0.09463428,1.316381
0.2701422,0.08858599,-0.13536094,1.6783007,-0.0916883,1.2754018
0.26173267,0.085828304,-0.13114716,1.6260552,-0.08883404,1.2356986
0.253585,0.08315649,-0.12706457,1.5754365,-0.08606865,1.1972315
0.245691,0.08056786,-0.12310911,1.5263938,-0.08338937,1.1599622
0.23804277,0.07805983,-0.11927679,1.478878,-0.08079351,1.1238532
0.23063268,0.07562988,-0.115563795,1.4328417,-0.07827847,1.0888685
0.22345328,0.073275596,-0.111966394,1.3882385,-0.075841725,1.054973
0.21649742,0.0709946,-0.108481,1.3450241,-0.07348085,1.0221328
0.20975812,0.068784624,-0.10510411,1.3031552,-0.07119348,0.990315
0.20322861,0.06664345,-0.10183236,1.2625896,-0.06897732,0.9594878
0.1969024,0.06456893,-0.09866246,1.223287,-0.06683015,0.92962027
0.19077313,0.062559,-0.09559125,1.185208,-0.06474984,0.9006826
0.18483467,0.06061164,-0.09261565,1.1483144,-0.062734276,0.87264585
0.1790811,0.058724906,-0.089732684,1.1125693,-0.060781468,0.84548193
0.17350663,0.056896906,-0.08693948,1.0779371,-0.058889452,0.8191636
0.1681057,0.055125818,-0.08423322,1.044383,-0.057056338,0.79366463
0.16287291,0.05340986,-0.0816112,1.0118735,-0.055280287,0.76895946
0.15780301,0.051747322,-0.07907082,0.98037595,-0.053559527,0.74502337
0.15289095,0.05013654,-0.076609515,0.94985896,-0.051892336,0.7218324
0.14813179,0.0485759,-0.07422483,0.92029196,-0.050277043,0.69936335
0.14352079,0.047063846,-0.07191438,0.8916454,-0.048712034,0.67759377
0.13905331,0.045598857,-0.069675855,0.8638905,-0.047195744,0.6565019
0.13472493,0.044179477,-0.06750701,0.8369997,-0.045726653,0.63606656
0.13053127,0.042804275,-0.06540569,0.810946,-0.044303294,0.6162673
0.12646817,0.041471887,-0.06336977,0.78570324,-0.042924244,0.5970845
0.122531526,0.040180974,-0.061397232,0.7612463,-0.04158812,0.5784988
