ax,ay,az,gx,gy,gz
-1.2400112,1.3836489,-1.035464,-3.5509412,-38.396713,25.579323
-0.690163,2.0446758,-0.87515,-16.63237,-48.776207,6.150275
0.24125384,2.0069702,-0.46855882,-21.06027,-51.63325,-5.186797
1.2155261,1.9993885,-0.04221193,-24.197414,-47.121384,-12.53842
1.9793983,2.0249617,0.30134284,-22.626368,-37.11346,-17.32621
2.3185866,2.205352,0.34249312,-21.063751,-26.840431,-19.711216
2.413131,2.4732008,0.23009637,-19.607967,-19.655622,-22.638664
2.4423947,2.9351227,0.05867629,-20.296244,-15.643919,-26.159859
2.5583732,3.2501245,-0.0060442644,-23.092232,-12.883326,-30.259125
2.7393591,3.3982315,0.02085407,-25.987574,-9.16461,-34.612957
2.867206,3.4664874,0.029169183,-29.080154,-4.649097,-38.39257
2.8832128,3.489793,-0.026931101,-31.833166,-0.16809009,-41.78411
2.8089616,3.5088892,-0.13259596,-34.785843,3.1677217,-45.123116
2.7546868,3.4603252,-0.21858488,-37.851612,5.9403386,-48.6637
2.694901,3.3026524,-0.27651346,-40.871304,8.290571,-52.217842
2.6474764,3.0250459,-0.30638283,-43.245117,10.798298,-55.371925
2.5841188,2.7401974,-0.34895816,-44.783722,13.243437,-57.901333
2.4729147,2.5156078,-0.4328588,-46.402737,15.035603,-59.646553
2.3781877,2.26942,-0.5055279,-47.70641,16.619005,-60.762337
2.2671623,1.9853328,-0.5691506,-48.47378,17.94934,-61.761562
2.1168034,1.6734377,-0.63964266,-49.024147,18.77555,-62.70974
1.9322251,1.318405,-0.70426977,-49.03296,18.976301,-63.25314
1.7204641,0.8951868,-0.7496706,-48.243835,18.743538,-63.147835
1.5321106,0.5063796,-0.78565675,-46.951508,18.401161,-62.351727
1.3642746,0.19486545,-0.8316346,-45.45849,17.939928,-61.019753
1.2191658,-0.024341628,-0.8886469,-44.14365,17.407774,-59.505024
1.0735406,-0.1966901,-0.95336676,-43.05743,16.665195,-58.081627
0.89997345,-0.41627297,-1.0030288,-41.947025,15.475333,-56.57603
0.71553195,-0.68394643,-1.023526,-40.4245,14.0519285,-54.93607
0.5371123,-0.9424495,-1.0435507,-38.25476,12.513503,-53.014214
0.38167745,-1.1437901,-1.0748376,-35.90704,10.754135,-50.755436
0.25225857,-1.2991496,-1.1052797,-33.46008,8.824002,-48.06192
0.14659366,-1.4222072,-1.1246384,-31.033983,6.819607,-45.354366
0.056137446,-1.534186,-1.1325336,-28.637455,4.7326536,-42.737476
-0.020761527,-1.653364,-1.125173,-26.164762,2.7829864,-40.129635
-0.09861479,-1.7865508,-1.1141334,-23.722067,0.88530636,-37.175365
-0.15714055,-1.9405048,-1.0937042,-20.899572,-1.0065038,-34.051792
-0.18811627,-2.043594,-1.0868015,-17.949331,-2.8210585,-31.187088
-0.20928636,-2.116777,-1.0924258,-14.95841,-4.6091275,-28.52798
-0.23574948,-2.1578484,-1.0951892,-12.030101,-6.426879,-25.953827
-0.26446962,-2.1821117,-1.0879413,-9.238895,-8.251539,-23.657309
-0.2747119,-2.2128491,-1.0671023,-6.3064766,-9.947898,-21.372456
-0.2528528,-2.2132812,-1.0509189,-3.3735492,-11.159001,-18.235876
-0.21709378,-2.1738741,-1.0467598,-0.6282206,-12.020446,-14.288238
-0.17046925,-2.0547354,-1.0558335,1.621927,-12.716984,-10.098759
-0.13396555,-1.8958682,-1.065187,3.304763,-13.488258,-6.2270365
-0.1083559,-1.7561176,-1.0535141,4.865514,-14.636423,-3.4756646
-0.07346279,-1.6499274,-1.0169007,6.559638,-15.815397,-1.3970555
-0.030829037,-1.5447146,-0.9824006,8.375313,-16.822327,0.47558028
0.01985243,-1.4028,-0.96028125,10.084158,-17.710886,2.6095452
0.08565935,-1.2184533,-0.93791056,11.298267,-18.587461,4.6912427
0.16259438,-1.0058914,-0.90884906,11.871594,-19.4426,6.076262
0.24555792,-0.82569677,-0.8639549,12.3619585,-20.234665,6.713328
0.32590204,-0.6378059,-0.8289973,12.760813,-20.974604,6.597629
0.3976929,-0.42675605,-0.8091539,12.974989,-21.705248,6.007042
0.46684095,-0.19648041,-0.7944632,12.711968,-22.326391,5.426084
0.52120227,0.018000359,-0.7747838,12.159497,-23.055368,4.583315
0.59195226,0.22676346,-0.7450003,11.196909,-23.776,3.3069327
0.6995672,0.43118435,-0.707071,10.083371,-23.930428,1.9785599
0.8183092,0.61804855,-0.6676882,8.838427,-23.467066,0.8703822
0.91948146,0.7917947,-0.6292068,7.417313,-22.684988,-0.27804142
1.0075223,0.93373495,-0.58743966,6.0775676,-21.783947,-1.7817396
1.0960573,1.0613035,-0.5418568,4.867265,-20.843231,-3.5744057
1.2117788,1.2335405,-0.5091016,3.7263067,-19.553211,-5.5964065
1.3387456,1.480686,-0.50411135,2.1257226,-17.879368,-7.8023267
1.4517136,1.722317,-0.51711196,-0.1512205,-16.064743,-10.673736
1.5335413,1.881361,-0.53396565,-2.955254,-14.444725,-14.095125
1.5919392,1.8851564,-0.5276006,-5.96529,-12.916534,-17.020199
1.6728379,1.8652865,-0.5066306,-8.458933,-11.022549,-19.28361
1.7539314,1.9159775,-0.51352996,-11.083226,-8.987606,-21.737892
1.8240767,1.9486777,-0.54516184,-14.092332,-7.055422,-24.922731
1.8678567,1.9068131,-0.5739317,-17.162664,-5.133014,-28.500637
1.8383299,1.7228669,-0.59476465,-19.964827,-3.4796035,-30.925304
1.8040034,1.4833881,-0.5980705,-22.161694,-1.909672,-32.275135
1.764753,1.3202922,-0.6202119,-23.998358,-0.59237415,-33.228764
1.7485902,1.2068994,-0.65387535,-25.81163,0.42492586,-34.89674
1.7436715,1.0536118,-0.67436445,-27.642912,1.3164116,-36.9232
1.7529674,0.80573,-0.65549797,-29.453182,2.5258965,-38.505905
1.7224233,0.47772703,-0.62500036,-30.542194,4.0890265,-39.00687
1.6388599,0.1757257,-0.60951996,-30.92822,5.6997137,-38.286987
1.5133541,-0.032724828,-0.6252869,-30.905657,6.968025,-37.39424
1.3534857,-0.21365109,-0.661795,-30.22478,7.342389,-37.61006
1.1773968,-0.41329813,-0.6998349,-29.037792,7.247718,-38.058975
1.0141575,-0.57692426,-0.73379326,-27.929165,6.8855596,-37.937027
0.88637173,-0.7249413,-0.74743557,-26.806213,6.665389,-37.142033
0.7688262,-0.85588527,-0.75627697,-25.502596,6.72058,-35.881817
0.6395606,-0.9583265,-0.77760947,-24.139063,6.8314734,-34.353447
0.51623434,-1.0097603,-0.81190723,-22.956823,6.6478286,-33.281578
0.41407758,-1.0390205,-0.84570915,-21.942358,6.2518716,-32.278282
0.3297093,-1.051587,-0.8733283,-21.225988,5.637027,-30.86311
0.2660005,-1.0682656,-0.88794744,-20.748419,4.779748,-29.012938
0.23954006,-1.0920559,-0.88845015,-20.387291,4.0108376,-26.734055
0.23204184,-1.0578718,-0.86063933,-19.749115,3.8852878,-25.89721
0.22478083,-1.0247691,-0.83370835,-19.13113,3.7637103,-25.08684
0.21774931,-0.9927126,-0.8076286,-18.532677,3.645975,-24.302082
0.21093982,-0.9616684,-0.7823723,-17.953121,3.5319576,-23.542103
0.20434517,-0.9316035,-0.7579129,-17.391848,3.4215374,-22.806103
0.1979584,-0.9024864,-0.73422444,-16.848269,3.3145978,-22.093302
0.1917728,-0.8742864,-0.71128213,-16.321812,3.2110267,-21.402952
0.1857819,-0.8469741,-0.689062,-15.811925,3.1107156,-20.734333
0.17997943,-0.8205209,-0.6675407,-15.318077,3.0135596,-20.086744
0.17435937,-0.79489917,-0.64669603,-14.839752,2.9194577,-19.459513
0.16891587,-0.77008235,-0.62650615,-14.376454,2.8283122,-18.851986
0.16364327,-0.74604475,-0.60695016,-13.927703,2.7400284,-18.263535
0.15853614,-0.7227615,-0.58800787,-13.493034,2.654515,-17.693548
0.15358919,-0.7002085,-0.56965977,-13.071999,2.5716836,-17.141441
0.14879733,-0.6783626,-0.55188686,-12.664164,2.4914494,-16.606642
0.14415564,-0.65720123,-0.5346709,-12.269109,2.4137292,-16.088602
0.13965935,-0.6367028,-0.5179942,-11.886428,2.3384438,-15.58679
0.13530384,-0.61684614,-0.5018397,-11.515731,2.2655156,-15.100691
0.13108467,-0.59761107,-0.48619086,-11.156636,2.19487,-14.6298065
0.12699752,-0.5789778,-0.47103167,-10.808778,2.126435,-14.173656
0.1230382,-0.56092745,-0.45634666,-10.4718,2.0601406,-13.731774
0.1192027,-0.54344153,-0.44212085,-10.14536,1.9959195,-13.303711
0.115487106,-0.52650225,-0.42833978,-9.829125,1.9337059,-12.889029
0.11188764,-0.5100924,-0.4149894,-9.522774,1.8734367,-12.487308
0.108400635,-0.49419528,-0.4020562,-9.225995,1.8150507,-12.098138
0.105022565,-0.47879475,-0.38952696,-8.938487,1.7584885,-11.721126
0.10175,-0.4638752,-0.37738907,-8.659958,1.7036929,-11.355888
0.098579615,-0.44942153,-0.36563018,-8.390126,1.6506083,-11.002055
0.09550821,-0.43541908,-0.3542384,-8.128718,1.599181,-10.659268
0.09253268,-0.4218537,-0.34320217,-7.87547,1.549359,-10.327182
0.089650005,-0.40871167,-0.33251038,-7.6301255,1.5010917,-10.005459
0.086857274,-0.39597973,-0.3221522,-7.392436,1.4543306,-9.693774
0.08415168,-0.383645,-0.3121172,-7.1621623,1.4090283,-9.391814
0.08153048,-0.371695,-0.3023952,-6.9390717,1.3651391,-9.099273
0.07899104,-0.3601178,-0.29297647,-6.7229395,1.322619,-8.815857
0.07653079,-0.3489016,-0.28385144,-6.5135474,1.2814248,-8.541279
0.07414726,-0.33803514,-0.27501097,-6.3106847,1.2415152,-8.275263
0.07183804,-0.3275075,-0.2664461,-6.1141467,1.2028499,-8.017541
0.06960082,-0.31730807,-0.2581483,-5.9237366,1.16539,-7.767854
0.06743334,-0.30742657,-0.25010914,-5.7392616,1.1290978,-7.5259504
0.06533342,-0.2978531,-0.24232057,-5.5605373,1.0939369,-7.291587
0.06329895,-0.288578,-0.23477474,-5.387383,1.0598719,-7.064528
0.061327875,-0.27959195,-0.22746408,-5.219625,1.0268685,-6.8445454
0.05941823,-0.27088594,-0.22038123,-5.0570946,0.9948936,-6.631418
0.057568092,-0.2624512,-0.2135191,-4.899629,0.963915,-6.4249315
0.055775598,-0.2542793,-0.20687076,-4.74707,0.93390167,-6.2248793
0.054038953,-0.24636197,-0.20042959,-4.5992637,0.9048234,-6.0310593
0.05235641,-0.23869132,-0.19418907,-4.4560623,0.8766511,-5.8432784
0.050726287,-0.23125963,-0.18814296,-4.317322,0.8493564,-5.661347
0.049146943,-0.22405943,-0.18228519,-4.182904,0.82291204,-5.4850826
0.047616795,-0.21708354,-0.1766099,-4.0526724,0.79729134,-5.3143096
0.046134308,-0.21032493,-0.17111138,-3.926498,0.77246875,-5.148855
0.044697996,-0.20377682,-0.16578412,-3.804253,0.7484192,-4.9885545
0.043306418,-0.19743267,-0.16062279,-3.6858158,0.7251188,-4.8332467
0.04195818,-0.19128609,-0.1556222,-3.571067,0.70254403,-4.6827755
0.040651932,-0.18533094,-0.15077734,-3.4598923,0.68067235,-4.5369906
0.039386366,-0.17956126,-0.14608337,-3.3521795,0.65948176,-4.3957458
0.03816021,-0.17397125,-0.14153558,-3.247821,0.6389511,-4.2588997
0.036972236,-0.1685553,-0.13712941,-3.1467125,0.6190598,-4.126315
0.035821255,-0.16330802,-0.13286044,-3.0487523,0.5997879,-3.997859
0.034706116,-0.15822414,-0.12872441,-2.9538426,0.5811161,-3.873403
0.0336257,-0.15329856,-0.12471716,-2.8618884,0.5630257,-3.7528224
0.032578923,-0.14852634,-0.120834686,-2.772797,0.5454986,-3.635996
0.031564742,-0.14390272,-0.117073104,-2.68648,0.52851725,-3.5228076
0.030582137,-0.13942306,-0.113428645,-2.6028504,0.5120646,-3.4131434
0.029630128,-0.13508287,-0.10989766,-2.5218246,0.49612424,-3.3068936
0.02870776,-0.13087781,-0.106476605,-2.4433217,0.48068017,-3.2039518
0.027814107,-0.12680368,-0.103162065,-2.3672628,0.46571696,-3.1042151
0.026948279,-0.1228564,-0.09995072,-2.2935722,0.4512196,-3.0075839
0.026109407,-0.11903201,-0.09683936,-2.2221756,0.4371736,-2.9139607
0.025296653,-0.11532668,-0.09382486,-2.153002,0.4235649,-2.8232527
0.0245092,-0.111736715,-0.09090422,-2.0859818,0.4103799,-2.7353685
0.023746263,-0.10825851,-0.0880745,-2.021048,0.39760533,-2.6502204
0.02300708,-0.10488859,-0.08533288,-1.958136,0.38522848,-2.567723
0.022290906,-0.10162358,-0.082676604,-1.8971825,0.37323695,-2.487794
0.02159703,-0.09846021,-0.080103025,-1.8381264,0.36161876,-2.4103534
0.020924754,-0.09539533,-0.07760957,-1.780909,0.3503622,-2.3353236
0.020273406,-0.09242585,-0.07519373,-1.7254727,0.3394561,-2.2626293
0.019642336,-0.08954882,-0.0728531,-1.6717622,0.32888952,-2.1921983
0.019030912,-0.086761355,-0.07058533,-1.6197237,0.31865188,-2.1239598
0.01843852,-0.08406066,-0.068388164,-1.5693052,0.30873293,-2.0578454
0.01786457,-0.08144404,-0.06625939,-1.5204562,0.29912278,-1.9937892
0.017308487,-0.078908876,-0.06419689,-1.473128,0.28981176,-1.9317272
0.016769715,-0.07645263,-0.062198594,-1.4272729,0.2807906,-1.871597
0.016247714,-0.07407284,-0.0602625,-1.3828453,0.27205026,-1.8133388
0.015741961,-0.07176714,-0.058386676,-1.3398007,0.26358202,-1.756894
0.015251954,-0.0695332,-0.056569245,-1.2980962,0.25537735,-1.7022063
0.014777199,-0.06736881,-0.05480839,-1.2576897,0.24742812,-1.649221
