ax,ay,az,gx,gy,gz
1.613651,1.9791089,-0.30454823,-0.7209156,-24.802954,-0.05545505
2.080755,1.7089002,-0.2552109,4.1299543,-24.762953,-12.388586
2.302203,1.8230101,-0.30103233,12.677384,-25.064482,-23.41514
2.5726657,2.702846,-0.4640663,12.248387,-22.185915,-30.831799
2.8193665,3.3488624,-0.51969403,8.434745,-17.916782,-34.21409
3.0021722,3.6729145,-0.48035806,3.331906,-12.406335,-34.69317
3.080505,3.8713176,-0.43363515,-2.962781,-7.1075377,-35.011852
3.3217194,4.0318785,-0.36104622,-7.476217,-0.11668902,-37.783554
3.516359,4.316665,-0.36891082,-11.466502,6.4083257,-41.845528
3.611979,4.4945655,-0.42688423,-16.379261,11.593911,-45.485413
3.6218681,4.4378014,-0.46112707,-21.853935,15.550843,-48.290813
3.560883,4.1758265,-0.44862393,-26.549376,18.465075,-51.03989
3.5212903,3.7957716,-0.39117473,-29.313965,21.52061,-54.194687
3.497245,3.507208,-0.3603817,-30.870605,24.679562,-57.4712
3.4743226,3.3161047,-0.37718013,-32.584564,27.991867,-60.407005
3.3740866,3.1291828,-0.4435316,-34.402096,30.95783,-62.63761
3.173545,2.8541806,-0.51210237,-36.196365,32.94782,-64.12296
2.9519675,2.439229,-0.53939486,-36.68123,34.303665,-65.89805
2.7571614,2.0746334,-0.56614786,-36.202675,35.225277,-67.848976
2.6068084,1.8059313,-0.6031817,-35.9468,36.13056,-69.41646
2.4402406,1.5656863,-0.6589487,-36.251972,37.222855,-69.77291
2.1852188,1.2631581,-0.719616,-36.80325,37.885292,-69.18012
1.8758975,0.8713001,-0.7601265,-35.855812,37.45078,-69.01624
1.6151441,0.5741672,-0.8026215,-34.0368,36.37807,-69.17761
1.4272635,0.3723548,-0.84803236,-32.39802,35.16625,-68.971085
1.2737097,0.18912227,-0.8945964,-31.176054,34.129196,-68.0443
1.0980719,0.014276415,-0.9510786,-30.478582,32.92498,-66.23914
0.87669545,-0.20240086,-0.9942849,-29.792788,31.31777,-64.36923
0.6580301,-0.45004407,-1.0223503,-28.494032,29.338305,-62.606575
0.47376522,-0.6618652,-1.0502747,-26.838106,27.13671,-60.623756
0.3251368,-0.8042966,-1.0816973,-25.258951,24.971426,-58.102924
0.19529235,-0.9318042,-1.110314,-23.985344,22.862656,-55.12534
0.06337253,-1.071284,-1.1420779,-22.815367,20.665295,-51.971416
-0.06545474,-1.2185661,-1.1655203,-21.779257,18.318995,-48.749863
-0.176661,-1.3771468,-1.176374,-20.64192,15.879602,-45.50558
-0.26593423,-1.5340937,-1.185209,-19.259577,13.463844,-42.102177
-0.33280665,-1.6673762,-1.19738,-17.806269,11.253247,-38.208206
-0.39081445,-1.796219,-1.2127254,-16.180523,9.151613,-34.049984
-0.441965,-1.8926966,-1.2280344,-14.430051,6.961687,-29.911482
-0.47670373,-1.9533337,-1.2340299,-12.773109,4.5645947,-26.130676
-0.4930432,-2.0194695,-1.223131,-10.973721,2.032603,-22.711824
-0.48428914,-2.0996244,-1.2032895,-8.916131,-0.45959532,-19.114395
-0.4304767,-2.143732,-1.183828,-6.81066,-2.6179898,-15.25069
-0.35184208,-2.1346064,-1.1734645,-4.8783813,-4.312417,-11.113409
-0.28576586,-2.0717936,-1.1695632,-3.3553724,-5.8256326,-6.840656
-0.23392715,-2.0037951,-1.1505353,-2.0849726,-7.351792,-2.9548988
-0.20307238,-1.976569,-1.112791,-0.62681234,-9.008806,0.294499
-0.16705717,-2.0015185,-1.0618316,1.2891958,-10.431042,3.527019
-0.11601593,-1.9471543,-1.0326525,3.6945136,-11.619469,6.7238097
-0.04556179,-1.7693537,-1.0299181,5.731751,-12.887211,9.777868
0.054424837,-1.5394229,-1.0195665,7.072048,-14.043813,12.562667
0.15778086,-1.3404881,-0.98823434,7.6499805,-14.84457,14.9556
0.23325497,-1.2341701,-0.9283609,8.387411,-15.372251,16.996592
0.2834399,-1.1280233,-0.8751951,9.537688,-15.949117,18.664463
0.35998333,-0.96510065,-0.82924056,10.960597,-16.59752,19.633398
0.46684238,-0.72857636,-0.79398715,12.035037,-17.15559,20.216156
0.5871347,-0.48055148,-0.7557772,12.430062,-17.301933,20.71545
0.6892833,-0.22893617,-0.72081584,12.544765,-17.194965,21.046705
0.76915103,0.024773223,-0.6894591,12.414095,-17.067915,20.763893
0.8352689,0.24217151,-0.65654564,12.236375,-17.064661,19.779417
0.9119508,0.42065609,-0.61189723,11.991576,-17.023842,18.236853
1.0087563,0.56266564,-0.5528399,11.935283,-16.529654,16.263815
1.107464,0.74491876,-0.5063715,11.667906,-15.683769,14.162136
1.2036648,0.9552805,-0.47956482,11.092903,-14.627016,12.058283
1.2828565,1.1782714,-0.46551865,9.991741,-13.467133,9.985414
1.3449279,1.3718163,-0.45779583,8.557758,-12.3037195,7.850017
1.387554,1.5215505,-0.45187348,6.959243,-11.412569,5.090779
1.4446719,1.6016058,-0.42900413,5.4635386,-10.588629,1.6749387
1.5206289,1.6606382,-0.40077156,3.9518404,-9.562372,-1.9282081
1.5948097,1.7199913,-0.3782348,2.2902517,-8.175344,-5.482792
1.6223571,1.7737052,-0.38736534,0.5480032,-6.6849136,-8.662445
1.5958918,1.7936822,-0.41460258,-1.4974087,-5.729109,-11.429954
1.5597907,1.7686383,-0.4467187,-3.3433952,-5.2196407,-14.450955
1.5526613,1.7291007,-0.4714022,-5.134383,-5.0908875,-17.935781
1.5997471,1.678411,-0.4757295,-6.8627143,-4.711123,-21.528568
1.6607348,1.6036528,-0.47371277,-8.801036,-3.7431023,-24.553738
1.6820502,1.4982032,-0.49155152,-11.007994,-2.3262093,-26.69492
1.5958275,1.3042779,-0.5440248,-13.422663,-1.4951626,-28.384764
1.5053023,1.0331509,-0.5685421,-15.248619,-1.0242661,-30.033253
1.416509,0.7335323,-0.572939,-16.42278,-0.71487015,-31.609158
1.3350877,0.43032512,-0.5656006,-17.164852,-0.42315114,-32.782314
1.261421,0.117746465,-0.55050254,-17.3527,0.22232677,-33.112595
1.1735754,-0.16939938,-0.55171365,-16.989206,1.0659409,-32.896553
1.0410141,-0.36430323,-0.59108317,-16.635458,1.5389924,-32.17896
0.9107193,-0.5261956,-0.6236306,-16.408094,1.552,-31.271486
0.8215807,-0.6796146,-0.6279442,-15.80086,1.5281667,-30.356604
0.7632194,-0.7868348,-0.62490165,-14.875881,1.7062348,-29.091648
0.718701,-0.83238673,-0.62870026,-13.986124,1.9743634,-27.761707
0.6732166,-0.88940644,-0.6301519,-13.193569,2.1937633,-26.42625
0.62363076,-0.97357154,-0.6171413,-12.070438,2.4693072,-24.995533
0.5636209,-1.0438187,-0.59856033,-10.732474,2.6577258,-23.392263
0.5077684,-1.086349,-0.58147657,-9.683499,2.901327,-21.560785
0.46761444,-1.0706241,-0.5751072,-9.091896,3.100902,-19.559961
0.45298195,-1.0371224,-0.5571111,-8.807394,3.0038693,-18.947895
0.4388119,-1.0046794,-0.53968376,-8.531884,2.9099033,-18.355173
0.42508933,-0.973261,-0.52280664,-8.265074,2.8189044,-17.781168
0.41179967,-0.9428337,-0.50646204,-8.006681,2.7307763,-17.225271
0.39892894,-0.9133656,-0.49063268,-7.7564335,2.6454265,-16.6869
0.3864636,-0.8848257,-0.4753019,-7.5140686,2.562765,-16.165483
0.37439066,-0.8571842,-0.46045366,-7.279332,2.4827054,-15.6604805
0.36269745,-0.83041203,-0.44607246,-7.0519795,2.4051638,-15.171363
0.3513718,-0.80448145,-0.43214336,-6.8317733,2.3300598,-14.697619
0.34040195,-0.7793655,-0.41865182,-6.618485,2.2573152,-14.238759
0.32977656,-0.75503814,-0.4055839,-6.4118934,2.1868546,-13.794306
0.31948456,-0.73147416,-0.39292604,-6.211785,2.1186051,-13.3638
0.3095154,-0.70864934,-0.3806652,-6.017953,2.0524964,-12.946797
0.29985878,-0.68654007,-0.36878878,-5.830198,1.9884603,-12.542868
0.29050475,-0.66512364,-0.35728452,-5.6483264,1.9264308,-12.151597
0.28144377,-0.64437807,-0.3461406,-5.472152,1.8663443,-11.772581
0.27266648,-0.62428206,-0.33534566,-5.301494,1.8081393,-11.405435
0.26416394,-0.6048151,-0.3248886,-5.136178,1.7517562,-11.049779
0.2559274,-0.5859573,-0.31475872,-4.976034,1.6971374,-10.705253
0.24794856,-0.5676893,-0.3049457,-4.8209,1.6442269,-10.371503
0.2402192,-0.54999256,-0.29543954,-4.670617,1.592971,-10.048189
0.23273148,-0.53284913,-0.2862306,-4.525032,1.5433174,-9.734983
0.22547777,-0.51624143,-0.27730945,-4.3839974,1.4952158,-9.431566
0.21845071,-0.50015265,-0.26866704,-4.2473693,1.4486171,-9.1376295
0.21164317,-0.48456648,-0.26029462,-4.115009,1.4034741,-8.852875
0.20504823,-0.4694671,-0.25218368,-3.9867828,1.359741,-8.577014
0.19865923,-0.45483917,-0.244326,-3.8625605,1.3173734,-8.309767
0.19246969,-0.44066793,-0.23671363,-3.742216,1.2763286,-8.050862
0.18647334,-0.42693904,-0.22933887,-3.6256285,1.2365649,-7.80004
0.18066412,-0.4136386,-0.22219427,-3.512679,1.198042,-7.557045
0.17503618,-0.40075314,-0.21527259,-3.403254,1.1607214,-7.3216324
0.16958381,-0.38826972,-0.20856687,-3.2972429,1.124565,-7.093564
0.16430154,-0.3761757,-0.20207033,-3.1945388,1.0895364,-6.87261
0.15918401,-0.3644589,-0.19577642,-3.095038,1.0556005,-6.658548
0.15422608,-0.3531075,-0.18967877,-2.9986403,1.0227228,-6.4511614
0.14942275,-0.34211007,-0.18377128,-2.9052484,0.9908705,-6.2502418
0.14476918,-0.3314555,-0.17804798,-2.8147683,0.9600111,-6.0555863
0.1402607,-0.32113314,-0.1725031,-2.7271092,0.9301139,-5.8669996
0.13589275,-0.31113252,-0.16713108,-2.6421826,0.9011487,-5.684292
0.13166095,-0.30144364,-0.1619265,-2.5599031,0.8730863,-5.507279
0.12756105,-0.29205674,-0.15688413,-2.4801881,0.84589845,-5.335783
0.12358892,-0.28296235,-0.1519989,-2.4029574,0.819558,-5.169632
0.119740576,-0.27415138,-0.14726593,-2.3281336,0.79403836,-5.0086584
0.11601214,-0.265615,-0.14268042,-2.255641,0.76931393,-4.852701
0.11239988,-0.25734454,-0.13823779,-2.1854074,0.7453599,-4.701603
0.10890017,-0.2493318,-0.13393357,-2.1173618,0.7221521,-4.5552125
0.10550948,-0.24156867,-0.12976345,-2.0514362,0.6996674,-4.4133825
0.10222443,-0.2340474,-0.12572326,-1.9875644,0.67788315,-4.2759714
0.09904171,-0.22676042,-0.12180891,-1.9256824,0.6567775,-4.1428404
0.09595813,-0.21970043,-0.11801649,-1.8657279,0.6363293,-4.0138564
0.092970595,-0.21286033,-0.1143422,-1.8076409,0.616518,-3.8888903
0.09007612,-0.2062333,-0.110782355,-1.7513632,0.5973238,-3.7678165
0.08727179,-0.19981267,-0.10733338,-1.6968381,0.57872736,-3.6505136
0.0845548,-0.193592,-0.10399182,-1.6440114,0.56071013,-3.536864
0.08192243,-0.18756506,-0.100754336,-1.5928297,0.543254,-3.4267538
0.07937203,-0.18172581,-0.09761767,-1.5432421,0.52634156,-3.3200727
0.07690106,-0.17606843,-0.09457868,-1.4951986,0.50995576,-3.216714
0.07450704,-0.1705872,-0.09163434,-1.4486513,0.49408022,-3.1165738
0.072187565,-0.16527666,-0.08878168,-1.4035535,0.47869906,-3.019552
0.06994032,-0.16013148,-0.08601784,-1.3598598,0.46379682,-2.9255512
0.067763045,-0.15514652,-0.08334007,-1.3175268,0.44935864,-2.8344774
0.06565357,-0.15031677,-0.080745675,-1.2765119,0.43537,-2.7462397
0.06360978,-0.14563742,-0.078232065,-1.2367742,0.42181695,-2.6607492
0.061629616,-0.14110376,-0.075796716,-1.1982737,0.40868586,-2.5779207
0.05971111,-0.13671125,-0.07343719,-1.1609719,0.39596364,-2.497671
0.05785234,-0.13245551,-0.07115114,-1.1248314,0.38363752,-2.41992
0.056051437,-0.12833227,-0.06893625,-1.0898163,0.37169516,-2.3445897
0.054306608,-0.1243374,-0.06679033,-1.0558913,0.36012462,-2.2716045
0.052616097,-0.1204669,-0.06471121,-1.0230225,0.34891433,-2.200892
0.05097822,-0.116716914,-0.06269683,-0.99117696,0.33805302,-2.1323807
0.049391337,-0.11308367,-0.06074516,-0.9603229,0.32752988,-2.0660026
0.047853854,-0.10956354,-0.058854252,-0.93042946,0.31733432,-2.0016909
0.046364237,-0.10615299,-0.057022206,-0.9014666,0.3074562,-1.9393812
0.044920992,-0.10284862,-0.0552472,-0.87340546,0.2978856,-1.8790115
0.043522682,-0.09964712,-0.053527452,-0.8462179,0.28861293,-1.8205211
0.042167902,-0.096545294,-0.05186124,-0.8198767,0.27962893,-1.7638516
0.040855296,-0.09354002,-0.050246898,-0.79435545,0.27092463,-1.7089463
0.039583553,-0.09062831,-0.048682816,-0.76962876,0.2624913,-1.6557503
0.038351398,-0.08780724,-0.04716742,-0.7456718,0.2543205,-1.6042103
0.037157603,-0.085073985,-0.0456992,-0.7224607,0.24640404,-1.5542747
0.036000967,-0.082425825,-0.044276685,-0.6999721,0.23873404,-1.5058935
0.03488034,-0.0798601,-0.042898454,-0.67818356,0.23130278,-1.4590185
0.033794597,-0.07737424,-0.041563127,-0.6570733,0.22410287,-1.4136027
0.032742653,-0.07496577,-0.040269367,-0.63662016,0.21712708,-1.3696007
0.031723455,-0.07263227,-0.039015878,-0.61680377,0.21036845,-1.3269683
0.030735983,-0.070371404,-0.03780141,-0.5976042,0.20382021,-1.2856631
0.02977925,-0.068180926,-0.036624752,-0.5790023,0.19747582,-1.2456437
