ax,ay,az,gx,gy,gz
-1.7572887,-1.6709243,-6.830062,11.762835,-24.358404,34.901226
-1.3850304,-2.217468,-7.278388,15.435044,-29.968609,30.776821
-1.1927369,-2.6018844,-7.4731317,20.782455,-36.083035,28.424877
-1.1433501,-2.8574917,-7.711297,24.017477,-48.198067,28.653313
-0.8950678,-3.1028457,-7.8400807,26.504251,-58.161312,31.020155
-0.64798015,-3.4858148,-7.9625297,29.76436,-67.73766,35.00761
-0.5091094,-4.057892,-8.177687,35.403606,-76.563965,38.861874
-0.51550454,-4.5467453,-8.408574,42.52865,-86.30934,42.75275
-0.56401557,-4.8914695,-8.62313,50.30458,-97.85729,47.841145
-0.5636065,-4.9635463,-8.747398,56.53971,-110.881516,53.6993
-0.4851054,-4.8361745,-8.7072525,60.71642,-125.06471,59.56423
-0.19269249,-4.5271277,-8.347111,64.913765,-136.42773,64.539215
0.19328414,-4.0057955,-7.774233,68.39974,-144.62718,68.75988
0.573958,-3.3167157,-7.061247,70.5503,-150.68669,71.8869
0.9589661,-2.5152664,-6.2000937,71.55613,-154.98065,73.6569
1.4310057,-1.60081,-5.1562667,69.91724,-155.6209,74.01709
2.0209155,-0.61486214,-3.9406328,66.41871,-152.58348,73.61855
2.579938,0.32699627,-2.757589,61.389812,-146.1227,71.59999
3.0712593,1.1557143,-1.6933135,56.299786,-137.01518,67.40233
3.4708977,1.8210932,-0.80573624,50.939014,-125.9701,61.742237
3.7641883,2.2706878,-0.1268102,44.787605,-113.009026,55.403927
3.9383361,2.4689927,0.29373255,38.421787,-99.61242,48.936947
4.0438676,2.5338995,0.54940295,31.594816,-85.92152,42.740746
4.0732155,2.496716,0.66231364,25.437906,-72.490875,37.435814
4.036436,2.401537,0.6805886,20.02757,-59.72347,32.787308
3.9570377,2.288075,0.6204739,15.759762,-47.778862,28.747492
3.851267,2.1831133,0.49190015,11.730294,-36.76172,24.949432
3.7729762,2.053171,0.33930612,7.905421,-26.1579,21.310987
3.667772,1.8998561,0.13409345,4.692147,-16.483858,18.048725
3.5153823,1.7423137,-0.1223855,2.2581813,-8.222643,14.860462
3.33927,1.5896869,-0.39496252,0.44072166,-2.1213295,11.947276
3.223051,1.4648248,-0.65032876,-1.5441216,3.2994883,9.658137
3.133883,1.3466507,-0.90580755,-3.7515767,8.1089525,7.984308
3.0349042,1.2196645,-1.1849945,-5.59993,12.16661,6.3252573
2.9004993,1.0630164,-1.4874041,-6.4419956,15.123961,4.306634
2.743183,0.9040713,-1.8020214,-6.382272,16.188343,2.4020336
2.580956,0.758566,-2.1126556,-6.4479213,15.996193,1.0184149
2.4120758,0.6109274,-2.4303262,-6.5650835,14.704963,0.22077933
2.221097,0.46137908,-2.7594225,-6.119495,12.276008,-0.6106303
2.0266736,0.3202946,-3.0864878,-4.7619734,8.425855,-1.710907
1.8467432,0.20786537,-3.390706,-2.7885492,2.8945773,-2.8046832
1.6852251,0.1350161,-3.6678205,-1.0201946,-3.8299735,-3.6739933
1.554001,0.09415719,-3.9097054,0.14685313,-11.958686,-4.5222044
1.489068,0.07411804,-4.06868,0.8391463,-20.60422,-5.602671
1.466595,0.06483866,-4.1383076,1.1537296,-29.060543,-6.6456056
1.472343,0.070890754,-4.108725,1.1730251,-36.574844,-7.3924294
1.4852746,0.08280253,-3.9538612,0.8017706,-43.621212,-7.872497
1.5060496,0.09014904,-3.6951573,-0.07981322,-50.450455,-8.224204
1.6028419,0.06781214,-3.294918,-1.2694749,-56.48194,-8.332958
1.8036976,-0.0034487988,-2.7727573,-2.3232112,-60.750217,-7.9800816
2.057101,-0.12454836,-2.192656,-3.1485448,-62.57752,-7.3198
2.3126369,-0.28740528,-1.5638877,-3.3460374,-62.5524,-6.125712
2.532702,-0.41560844,-0.96269614,-3.2954245,-60.70941,-4.469294
2.6997905,-0.52369195,-0.44154635,-2.8142986,-57.571426,-2.5360897
2.8165724,-0.60383797,-0.012690833,-1.9042059,-53.31471,-0.5858289
2.874438,-0.66176075,0.31823692,-0.58246046,-48.036377,1.4497572
2.8664658,-0.6831099,0.53121436,0.7151631,-42.320293,3.595763
2.8289912,-0.69146335,0.6566618,2.1159353,-36.486683,5.856279
2.7682915,-0.69184023,0.7078987,3.733732,-30.893932,8.123534
2.7027454,-0.6900214,0.70806485,5.379514,-25.613232,10.336089
2.6416872,-0.6878119,0.6712278,6.9831476,-20.548489,12.514251
2.5768697,-0.66335785,0.59226763,8.224131,-15.801423,14.711056
2.5038025,-0.6088255,0.48328203,8.938682,-11.594194,16.928146
2.4204586,-0.5288663,0.3493641,9.215281,-8.173886,19.023382
2.3394933,-0.4394904,0.20447157,9.056233,-5.428715,20.69714
2.27375,-0.35207373,0.061474655,8.890864,-3.0124192,21.88652
2.229564,-0.25047916,-0.08019277,8.981501,-0.4982072,22.634537
2.1818156,-0.13424134,-0.23454212,9.223334,1.8959574,23.134695
2.1127415,0.0005730596,-0.40784767,9.2679405,3.8275812,23.510828
2.0302582,0.14506614,-0.5883323,9.024964,5.122393,23.603848
1.9476259,0.28519088,-0.7643001,8.582138,5.668624,23.046656
1.8694205,0.4389166,-0.9215199,8.062816,5.732895,21.962627
1.8127894,0.62372875,-1.0540773,7.1827216,5.6148043,20.313612
1.7609097,0.8105093,-1.17028,6.1186786,5.161851,18.167221
1.7136158,1.00326,-1.2684127,4.9948125,4.313872,15.466737
1.6811919,1.1895769,-1.3374488,3.3958974,3.3391187,11.861855
1.6419543,1.3229017,-1.381092,1.5461991,2.0835776,8.006067
1.6174474,1.4210645,-1.4006389,-0.5170535,0.62408304,3.8978906
1.6121637,1.4680159,-1.3946549,-2.7945464,-0.9922161,-0.43523365
1.6139872,1.4377166,-1.3608043,-5.0560565,-2.5812373,-4.699308
1.6098605,1.3114592,-1.3016468,-6.950365,-4.011272,-8.585359
1.6052688,1.0990468,-1.2127573,-8.359005,-5.3260403,-11.940776
1.6090983,0.8678878,-1.1059632,-9.653242,-6.343189,-14.58541
1.6001668,0.6078665,-0.9928185,-10.777368,-7.2067885,-16.42371
1.5789224,0.32431462,-0.8735264,-11.503071,-7.7742844,-17.554958
1.5449804,0.043517243,-0.7611886,-11.4466095,-7.861727,-17.737745
1.4952999,-0.17304926,-0.671079,-11.116116,-7.6935167,-17.391775
1.4326481,-0.33064187,-0.59808254,-10.77699,-7.415797,-16.725615
1.3640265,-0.439857,-0.53358597,-10.504153,-7.012975,-15.916081
1.2996857,-0.5157657,-0.4720169,-10.249546,-6.3417788,-15.094013
1.2417418,-0.5541792,-0.42139292,-10.184684,-5.261683,-14.674709
1.1812823,-0.5542049,-0.3993668,-9.619192,-4.0132303,-14.352809
1.117197,-0.51034355,-0.37368718,-8.731538,-2.5559304,-14.516809
1.0597705,-0.47162482,-0.3468799,-8.087787,-1.4350604,-14.140844
1.0126988,-0.43306628,-0.33349508,-7.4815545,-0.2655938,-13.635494
0.9557303,-0.39137846,-0.32903898,-7.2819586,0.60354006,-13.054474
0.89608854,-0.3498178,-0.32803732,-7.3558035,0.7258874,-12.348692
0.85132885,-0.3254135,-0.32781738,-7.4025044,0.66313124,-11.707103
0.8153221,-0.31421417,-0.32519835,-7.369554,0.5184537,-11.104815
0.79253834,-0.30305493,-0.321912,-7.349075,0.5384953,-10.666372
0.7710647,-0.2946204,-0.31754217,-7.472223,0.7180364,-10.108295
0.73877484,-0.29079145,-0.32152218,-7.568611,0.8366634,-9.4248085
0.70047486,-0.28589642,-0.3277811,-7.564783,0.7419523,-8.83332
0.6669671,-0.28174815,-0.32816252,-7.414399,0.5758936,-8.382325
0.64062774,-0.27192518,-0.32300797,-7.22111,0.36361364,-8.067386
0.6257239,-0.263128,-0.30874753,-7.030076,0.25322628,-7.8099413
0.61081934,-0.25058195,-0.29150227,-6.938317,0.17868443,-7.5567617
0.5946037,-0.23708768,-0.27330008,-6.7713842,0.17501329,-7.3667307
0.5760577,-0.22969279,-0.2647757,-6.560181,0.16955453,-7.1369586
0.5580924,-0.22252944,-0.25651824,-6.355591,0.16426669,-6.9143806
0.5406894,-0.21559031,-0.24851924,-6.157405,0.15914437,-6.69877
0.523831,-0.20886831,-0.24077053,-5.96542,0.15418233,-6.4899054
0.5074999,-0.20235658,-0.2332642,-5.7794404,0.1493755,-6.2875743
0.49167946,-0.19604847,-0.2259926,-5.5992765,0.14471897,-6.0915704
0.47635365,-0.18993756,-0.21894832,-5.424745,0.14020804,-5.901694
0.46150678,-0.18401764,-0.2121242,-5.255668,0.13583808,-5.7177515
0.44712383,-0.1782827,-0.20551331,-5.091874,0.13160466,-5.5395565
0.4331902,-0.1727269,-0.19910893,-4.933197,0.12750347,-5.3669286
0.4196917,-0.16734463,-0.19290458,-4.779475,0.12353039,-5.1996913
0.40661472,-0.1621304,-0.18689395,-4.6305537,0.11968136,-5.037677
0.393946,-0.15707898,-0.18107097,-4.4862814,0.1159525,-4.8807197
0.3816727,-0.15218522,-0.17542975,-4.346513,0.112340026,-4.728662
0.36978245,-0.14744419,-0.16996458,-4.2111053,0.108840294,-4.58135
0.3582632,-0.14285108,-0.16466995,-4.0799236,0.10544976,-4.4386344
0.34710333,-0.13840128,-0.15954049,-3.9528344,0.10216501,-4.300371
0.33629158,-0.1340903,-0.15457104,-3.8297095,0.09898272,-4.1664214
0.32581705,-0.12991376,-0.1497566,-3.710425,0.09589969,-4.036649
0.31566918,-0.12586749,-0.14509228,-3.5948603,0.09291281,-3.910924
0.30583775,-0.12194737,-0.14057343,-3.4828994,0.09001906,-3.7891192
0.29631284,-0.11814949,-0.13619545,-3.3744292,0.08721554,-3.6711123
0.2870849,-0.11447001,-0.13195398,-3.2693408,0.084499426,-3.5567844
0.2781446,-0.11090523,-0.12784472,-3.1675282,0.08186798,-3.4460204
0.269483,-0.10745156,-0.12386354,-3.0688891,0.07931855,-3.3387089
0.26109132,-0.10410553,-0.12000645,-2.9733243,0.07684858,-3.234742
0.2529612,-0.100863785,-0.116269566,-2.8807378,0.07445559,-3.134015
0.24508442,-0.09772306,-0.11264913,-2.7910366,0.07213717,-3.0364273
0.23745307,-0.094680205,-0.109141506,-2.7041304,0.069891,-2.9418802
0.23005952,-0.09173215,-0.10574318,-2.6199322,0.0677148,-2.850279
0.22289632,-0.08887595,-0.10245073,-2.5383573,0.065606415,-2.761532
0.21595629,-0.08610874,-0.09926085,-2.4593236,0.06356371,-2.6755497
0.20923245,-0.08342773,-0.09617035,-2.3827522,0.061584648,-2.592246
0.20271808,-0.08083024,-0.09317612,-2.308566,0.059667233,-2.5115376
0.19640662,-0.078313656,-0.09027516,-2.2366908,0.057809543,-2.433343
0.19029176,-0.07587546,-0.08746456,-2.1670544,0.056009717,-2.357584
0.18436734,-0.07351321,-0.0847415,-2.099587,0.054265954,-2.2841847
0.17862746,-0.07122453,-0.08210325,-2.0342207,0.052576497,-2.2130713
0.17306635,-0.069007136,-0.079547174,-1.9708904,0.05093966,-2.144173
0.16767842,-0.0668588,-0.077070706,-1.9095323,0.0493538,-2.0774202
0.16245829,-0.06477736,-0.07467135,-1.8500851,0.047817327,-2.0127463
0.15740071,-0.06276074,-0.072346725,-1.7924892,0.0463287,-1.9500866
0.15250064,-0.060806926,-0.07009448,-1.7366868,0.044886433,-1.8893781
0.14775315,-0.05891395,-0.06791238,-1.6826222,0.043489076,-1.83056
0.1431535,-0.05707992,-0.065798216,-1.630241,0.04213523,-1.7735734
0.13869707,-0.055302996,-0.06374989,-1.5794909,0.040823545,-1.7183613
0.1343794,-0.0535814,-0.061765343,-1.530321,0.0395527,-1.6648684
0.13019617,-0.051913414,-0.059842587,-1.4826821,0.038321424,-1.613041
0.12614319,-0.05029736,-0.0579797,-1.4365265,0.037128486,-1.5628273
0.1222164,-0.04873162,-0.056174815,-1.391808,0.035972692,-1.5141772
0.118411876,-0.047214635,-0.054426126,-1.3484819,0.03485288,-1.4670417
0.114725806,-0.045744877,-0.05273188,-1.3065046,0.03376794,-1.4213737
0.11115449,-0.04432088,-0.051090382,-1.2658343,0.03271677,-1.3771276
0.107694365,-0.04294122,-0.049499992,-1.2264302,0.03169833,-1.3342592
0.10434197,-0.041604508,-0.047959115,-1.1882528,0.0307116,-1.2927252
0.10109394,-0.040309414,-0.046466213,-1.1512641,0.029755589,-1.2524843
0.09794703,-0.03905464,-0.045019783,-1.1154269,0.02882934,-1.2134963
0.09489809,-0.03783893,-0.04361839,-1.0807054,0.027931927,-1.175722
0.09194407,-0.036661066,-0.042260617,-1.0470648,0.027062451,-1.1391237
0.08908201,-0.03551987,-0.04094512,-1.0144715,0.026220044,-1.1036648
0.086309046,-0.034414202,-0.03967057,-0.9828929,0.025403863,-1.0693097
0.08362241,-0.033342954,-0.038435705,-0.9522973,0.02461309,-1.0360242
0.08101942,-0.032305054,-0.03723928,-0.92265415,0.023846934,-1.0037749
0.07849745,-0.031299464,-0.036080096,-0.8939339,0.023104627,-0.9725294
0.07605399,-0.030325182,-0.034957003,-0.86610764,0.02238543,-0.9422567
0.0736866,-0.029381225,-0.033868868,-0.8391476,0.021688621,-0.9129263
0.07139291,-0.028466655,-0.032814607,-0.8130269,0.021013504,-0.884509
0.06917062,-0.027580556,-0.031793166,-0.78771925,0.020359404,-0.85697633
0.0670175,-0.026722038,-0.03080352,-0.76319945,0.019725664,-0.8303007
0.06493141,-0.025890248,-0.029844683,-0.73944294,0.019111654,-0.8044555
0.06291026,-0.025084348,-0.028915694,-0.71642596,0.018516755,-0.77941483
0.060952023,-0.024303537,-0.028015621,-0.6941254,0.017940376,-0.7551536
