ax,ay,az,gx,gy,gz
0.39182174,-2.3582034,-9.596451,45.166775,-73.13158,37.009426
-0.1279188,-2.8441029,-10.550599,47.92896,-97.87423,42.233685
-0.37258163,-3.5039744,-10.971491,50.58637,-116.66044,48.151924
-0.416015,-4.1561484,-11.090102,55.355618,-132.01515,54.383766
-0.37635317,-4.503973,-11.014908,60.751472,-147.55095,60.64577
-0.0701384,-4.3977327,-10.439349,63.858963,-159.42453,69.14438
0.2274677,-3.845131,-9.582507,65.97347,-169.40765,76.46309
0.6270258,-3.1261811,-8.404202,69.20328,-177.6946,78.72745
1.2080367,-2.4078758,-6.9913316,72.26492,-182.1524,79.54496
1.8200712,-1.5059266,-5.38266,71.94791,-182.77795,80.84279
2.4144146,-0.4768272,-3.6339664,69.03987,-179.54634,81.85317
3.006165,0.6360845,-1.8549064,64.07522,-170.52461,79.95968
3.5189764,1.6760765,-0.1525803,58.723213,-157.85242,75.51167
3.93736,2.558629,1.274601,52.289368,-141.40157,69.12336
4.232769,3.1930017,2.3438208,45.248753,-123.254395,61.928207
4.3952146,3.5489028,3.0321536,38.938816,-104.46198,53.89814
4.4486094,3.6673615,3.4016166,33.773712,-85.37078,45.399113
4.4109607,3.5833807,3.4582393,29.481094,-67.37705,37.405796
4.3398705,3.4174757,3.3607633,25.733912,-50.779404,30.071589
4.251233,3.2343028,3.1535304,22.50735,-35.675247,23.599844
4.136174,3.070019,2.8531778,18.933264,-22.47929,17.858173
4.0211153,2.885118,2.4918275,15.572046,-11.14226,12.664984
3.8929043,2.669243,2.052713,12.919371,-1.405277,7.745208
3.7493212,2.4612582,1.565718,10.799265,6.397796,3.4974194
3.581191,2.2779682,1.0425751,8.858916,11.797721,-0.11849625
3.4322555,2.1165364,0.5185596,6.6726947,14.861551,-3.2086887
3.3130572,1.958332,0.0011726117,4.569401,15.632436,-5.6365657
3.247096,1.8050148,-0.50886047,2.6038647,15.312523,-7.6256886
3.1998076,1.6325003,-1.0056086,1.2747893,14.453333,-9.573482
3.1146476,1.4589776,-1.5056183,0.749609,12.630054,-11.6629505
2.9852407,1.2965078,-2.0015364,0.79439473,9.470509,-13.621754
2.8261771,1.1681944,-2.4771292,0.50377715,4.388949,-14.927599
2.6406744,1.0490452,-2.9036644,0.112343915,-1.8982558,-15.876385
2.4815726,0.9238166,-3.2468889,0.22096795,-8.944795,-16.73231
2.3366952,0.82922125,-3.4831665,0.56318474,-16.526127,-17.637428
2.2070305,0.7738178,-3.5854836,0.68890816,-24.277819,-18.397427
2.0931463,0.7264333,-3.5325897,0.41352707,-32.2288,-18.874313
2.0841343,0.6608301,-3.2122564,-0.019329399,-39.390984,-18.896574
2.1582952,0.6113186,-2.719915,-0.3885201,-44.95434,-18.83207
2.286886,0.55133915,-2.1240792,-0.6488126,-49.050716,-19.06521
2.4805903,0.4305448,-1.4359518,-1.2352424,-51.21713,-18.741777
2.6657355,0.23298341,-0.75070894,-1.7295367,-50.601612,-17.325094
2.7936895,-0.040400624,-0.16213162,-1.5378141,-48.27263,-14.9835415
2.8767624,-0.298037,0.31211925,-0.6224824,-44.449574,-11.714623
2.8802357,-0.47685546,0.6497341,0.76437634,-40.037582,-8.330887
2.817226,-0.61843157,0.8757567,2.6063862,-35.598434,-5.055052
2.7280636,-0.73449385,1.0181088,5.187718,-30.996925,-1.217048
2.640396,-0.7723417,1.0772346,7.9112163,-26.412746,2.7769713
2.5676591,-0.7817401,1.0850343,10.633918,-21.868452,6.5840874
2.501523,-0.7623895,1.0409572,13.242908,-17.46424,9.930529
2.4354,-0.72955966,0.9564718,15.285065,-13.373616,12.850182
2.381285,-0.7220902,0.84664184,17.195398,-9.370715,15.886946
2.3281245,-0.7013079,0.68806994,19.026966,-5.6831083,19.046831
2.2807543,-0.6423229,0.5092141,20.550133,-2.357434,22.150879
2.2373652,-0.53799325,0.31733167,21.794237,0.5837527,24.694654
2.182175,-0.38790312,0.10898296,22.59778,2.8566985,26.46397
2.1126208,-0.20474626,-0.102291755,22.621365,4.0352135,27.04081
2.058296,-0.023946725,-0.2985916,22.414064,4.6570716,27.070738
2.029047,0.17507422,-0.4761311,21.873219,4.9894814,26.71674
2.0181336,0.4065993,-0.64221555,20.97785,5.071484,25.721258
2.0164728,0.6566934,-0.7973115,19.888042,4.684702,23.718035
2.0272782,0.95336765,-0.93178356,18.065193,3.722213,20.17141
2.0432668,1.2583102,-1.0450335,15.311548,2.394704,15.673028
2.0517383,1.5010322,-1.1416996,12.127576,0.8926645,10.586135
2.0494623,1.6767349,-1.2290624,9.045068,-0.87202,5.0729704
2.0402,1.7705662,-1.2943703,6.393111,-2.8155506,-0.7438794
2.027727,1.8050637,-1.3341621,3.6512084,-5.076488,-6.382827
2.0115483,1.7503895,-1.3315977,0.64656365,-7.5149055,-11.821552
2.0228047,1.5908829,-1.2823315,-2.081653,-9.732944,-16.790892
2.0649652,1.3398093,-1.1848427,-4.195031,-11.195597,-20.93029
2.1195717,1.0580971,-1.0485417,-5.9581575,-11.581475,-24.004826
2.1586938,0.7394702,-0.906557,-7.666658,-10.631026,-26.284513
2.1682615,0.41724524,-0.76761466,-9.524132,-9.076307,-28.86097
2.1401534,0.112611055,-0.6526585,-11.562413,-7.8360667,-31.484182
2.105555,-0.13000615,-0.55120146,-13.121925,-7.328725,-33.044876
2.069051,-0.3448431,-0.46667162,-12.936521,-6.588845,-32.36616
2.015276,-0.49987766,-0.41742912,-10.125328,-5.0241065,-31.387356
1.9062747,-0.5106829,-0.38096893,-9.111571,-4.1541214,-29.970032
1.7931107,-0.50346684,-0.37620515,-8.617973,-3.8246543,-28.920332
1.6861947,-0.47671607,-0.36390263,-8.271226,-3.7194552,-27.471624
1.5877084,-0.44616655,-0.36737108,-8.185623,-3.8253245,-26.219685
1.5021853,-0.43860602,-0.36937416,-7.4418178,-3.7106628,-25.033043
1.4290384,-0.41231906,-0.37445867,-6.693141,-3.6630452,-23.995916
1.3774786,-0.38687557,-0.37607902,-6.5018983,-3.7071514,-22.859682
1.3402007,-0.37726527,-0.3746313,-6.3992558,-3.6654537,-21.828867
1.3140374,-0.37998885,-0.3660076,-6.0909843,-3.4871132,-20.817602
1.2885523,-0.37302193,-0.3540814,-6.0952215,-3.1286407,-19.739006
1.2484463,-0.3733349,-0.3483698,-6.020809,-2.8773293,-18.643093
1.2043495,-0.36059493,-0.34450176,-5.7420835,-2.7430952,-17.735159
1.1614975,-0.33744776,-0.3373093,-5.5697765,-2.8254523,-16.968935
1.1308134,-0.31891984,-0.31850377,-5.387652,-2.8918188,-16.202192
1.1036385,-0.29963285,-0.29638022,-5.157786,-2.845229,-15.46931
1.0735993,-0.2761674,-0.27827543,-4.9848766,-2.849792,-14.794009
1.0445105,-0.25090966,-0.26074338,-5.01223,-2.8675723,-14.111441
1.0112422,-0.22945328,-0.24673724,-5.0253606,-2.8943315,-13.580265
0.9805253,-0.21358413,-0.23229773,-4.8204856,-2.874432,-13.102137
0.949277,-0.19149405,-0.21918914,-4.6888523,-2.813205,-12.820357
0.9170758,-0.18100823,-0.20905666,-4.5327706,-2.7786934,-12.537928
0.88379544,-0.17222758,-0.20296173,-4.4254756,-2.7872334,-12.3025465
0.85168755,-0.16744082,-0.19587155,-4.371135,-2.839365,-12.057424
0.82015234,-0.17026922,-0.18884821,-4.3223143,-2.9279606,-11.781876
0.7949793,-0.17510086,-0.18070292,-4.2578535,-2.9280243,-11.425402
0.7744996,-0.17978072,-0.17087787,-4.286893,-2.870922,-11.026772
0.75569296,-0.18493794,-0.15926996,-4.3169246,-2.6631932,-10.640657
0.73195255,-0.18902825,-0.15295734,-4.2450523,-2.4867318,-10.316189
0.7053683,-0.19433202,-0.15058717,-4.103073,-2.46056,-10.070453
0.684859,-0.19828396,-0.14364263,-3.8151026,-2.391405,-9.714362
0.663495,-0.18688902,-0.13541837,-3.6827714,-2.3415434,-9.358013
0.63830876,-0.17881414,-0.13060197,-3.541267,-2.3351324,-8.999509
0.6124454,-0.16846597,-0.12861845,-3.3090117,-2.3898296,-8.675058
0.5899174,-0.15320297,-0.13118735,-3.434211,-2.536083,-8.296059
0.56644183,-0.1512635,-0.135609,-3.2472208,-2.6320822,-8.0697565
0.5518999,-0.1461112,-0.12988475,-3.071785,-2.6527805,-7.8010554
0.5394649,-0.14320864,-0.12583582,-2.9817324,-2.6062458,-7.5255136
0.5233977,-0.13696805,-0.12534222,-2.8640723,-2.5839825,-7.2262616
0.50948447,-0.13017449,-0.1247082,-2.8375776,-2.592866,-7.0314865
0.49270248,-0.12879778,-0.12543409,-2.8309526,-2.569122,-6.8199534
0.47451267,-0.13269944,-0.12629312,-2.782683,-2.6202877,-6.576978
0.46016282,-0.13258415,-0.122669354,-2.6978736,-2.652748,-6.297873
0.44956383,-0.12920083,-0.11557551,-2.6252158,-2.6708903,-6.0521917
0.43705246,-0.122932106,-0.10705183,-2.6175756,-2.6447222,-5.7723374
0.4224081,-0.1162671,-0.09789071,-2.669119,-2.6783156,-5.539258
0.41491866,-0.11205312,-0.08471638,-2.59927,-2.5929775,-5.3077517
0.40364438,-0.10364058,-0.07491252,-2.744552,-2.498901,-5.100571
0.38929534,-0.10100403,-0.06796881,-2.8605993,-2.3944583,-4.8960543
0.37405452,-0.103526935,-0.064823784,-2.9197938,-2.293274,-4.75495
0.35763827,-0.108213745,-0.06190144,-2.6577592,-2.294075,-4.587847
0.3472468,-0.10023373,-0.057575226,-2.6187098,-2.2758524,-4.454454
0.33627617,-0.10069362,-0.053695366,-2.6797314,-2.3000252,-4.2206674
0.32848167,-0.1012949,-0.048753016,-2.6494992,-2.230294,-4.001769
0.3182519,-0.09845173,-0.043809034,-2.6715326,-2.1589372,-3.8961408
0.3075936,-0.09821968,-0.041261367,-2.5883367,-2.0936038,-3.814732
0.29427806,-0.09500534,-0.040568136,-2.4887383,-2.1538424,-3.7187335
0.28676468,-0.09456921,-0.037965834,-2.4910507,-2.178012,-3.5877366
0.27961004,-0.096233,-0.033514015,-2.519915,-2.131085,-3.398108
0.27389273,-0.09501135,-0.030384181,-2.6238885,-2.0077124,-3.2922966
0.26685897,-0.098622955,-0.028099176,-2.608697,-1.8862847,-3.2410972
0.2572109,-0.101374745,-0.029466111,-2.6376948,-1.8389478,-3.100262
0.24503006,-0.10329353,-0.029731825,-2.66389,-1.8748184,-2.876415
0.23621772,-0.10692727,-0.028214525,-2.7120602,-1.8943461,-2.606331
0.22662131,-0.109420344,-0.025250006,-2.5478203,-1.8771799,-2.3826456
0.21405472,-0.10377189,-0.02281372,-2.468495,-1.8624476,-2.3578737
0.20231543,-0.10219115,-0.019114556,-2.3213396,-1.8633677,-2.3262763
0.19184469,-0.09723494,-0.0145032015,-2.241471,-1.9003743,-2.2823691
0.18484454,-0.09389637,-0.008696746,-2.2305908,-1.9191048,-2.245527
0.17877847,-0.09128443,-0.002759809,-2.2390406,-1.9296556,-2.1794155
0.17395984,-0.09186709,0.0032724172,-2.2377317,-1.945575,-2.0716531
0.17137711,-0.09152877,0.009272439,-2.1699655,-1.9192194,-1.9710448
0.16903049,-0.090920806,0.0140582565,-2.1575139,-1.9050786,-1.9077835
0.16943425,-0.09434774,0.018819563,-2.0295475,-1.802062,-1.9015951
0.16655666,-0.09527085,0.022249613,-1.8409686,-1.6547472,-1.8842053
0.15688874,-0.090530515,0.02155696,-1.8482542,-1.6393453,-1.7818404
0.15051042,-0.08680945,0.021633014,-1.8857276,-1.6434127,-1.6256629
0.14582495,-0.084107034,0.02095957,-1.8270241,-1.5922525,-1.5750552
0.1412854,-0.081488766,0.020307094,-1.7701485,-1.5426854,-1.5260235
0.1368872,-0.07895202,0.019674934,-1.7150438,-1.4946616,-1.4785184
0.13262592,-0.07649426,0.019062458,-1.6616548,-1.4481331,-1.4324924
0.12849732,-0.074113026,0.01846905,-1.6099281,-1.4030533,-1.3878995
0.12449727,-0.07180593,0.017894119,-1.5598121,-1.359377,-1.344695
0.12062176,-0.06957066,0.01733709,-1.5112562,-1.3170606,-1.3028356
0.11686692,-0.06740499,0.016797401,-1.4642122,-1.2760618,-1.2622795
0.11322897,-0.065306745,0.016274516,-1.4186327,-1.2363392,-1.2229861
0.109704286,-0.063273825,0.015767908,-1.3744724,-1.1978534,-1.1849159
0.106289335,-0.06130419,0.015277074,-1.3316869,-1.1605659,-1.148031
0.1029807,-0.05939588,0.014801521,-1.2902334,-1.1244391,-1.1122944
0.09977507,-0.057546977,0.014340772,-1.2500703,-1.089437,-1.0776705
0.096669234,-0.055755634,0.013894367,-1.2111577,-1.0555246,-1.0441244
0.093660094,-0.05402006,0.01346186,-1.1734564,-1.022668,-1.0116225
0.09074462,-0.05233851,0.013042817,-1.1369289,-0.99083424,-0.98013264
0.08791992,-0.050709315,0.012636819,-1.1015385,-0.95999146,-0.949623
0.08518315,-0.049130835,0.01224346,-1.0672499,-0.93010885,-0.92006314
0.08253157,-0.047601495,0.011862347,-1.0340285,-0.9011565,-0.89142346
0.079962544,-0.046119764,0.011493098,-1.0018415,-0.87310547,-0.86367536
0.07747349,-0.044684157,0.011135343,-0.9706564,-0.8459276,-0.8367911
0.07506192,-0.04329324,0.010788726,-0.9404421,-0.8195958,-0.8107437
0.072725415,-0.041945625,0.010452897,-0.91116834,-0.7940837,-0.78550714
0.070461646,-0.04063996,0.010127524,-0.8828059,-0.7693658,-0.7610562
0.06826835,-0.039374936,0.00981228,-0.8553263,-0.74541736,-0.7373664
0.06614333,-0.038149294,0.009506848,-0.82870215,-0.7222144,-0.71441406
0.064084455,-0.036961805,0.009210924,-0.80290675,-0.6997337,-0.69217616
