ax,ay,az,gx,gy,gz
-1.6354694,-1.2045565,-2.914572,73.52067,-8.433713,11.041919
-1.8115386,-2.8581083,-2.763736,82.17061,-18.577833,15.202943
-1.5447527,-2.692289,-2.8572161,94.23646,-24.448195,-2.4325259
-1.1372085,-1.6630471,-3.0539887,98.56993,-28.817719,-21.067154
-0.64843583,-0.72602284,-3.086744,92.64519,-29.646862,-31.53036
-0.36223164,-0.27886534,-3.13031,82.69706,-29.134363,-33.756638
-0.36448222,0.12018085,-3.3036795,70.07511,-30.05476,-32.34483
-0.51836205,0.78995615,-3.6064484,57.717888,-33.395737,-33.273396
-0.6032024,1.3542235,-3.857331,45.06691,-38.211727,-34.7957
-0.56029433,1.7140075,-4.006945,32.026062,-42.190716,-35.25527
-0.4905902,1.8027116,-4.088939,18.945038,-45.439987,-34.915817
-0.44298282,1.675402,-4.1266794,6.191437,-48.376865,-33.94273
-0.4274319,1.4455327,-4.1234984,-4.8443866,-50.756775,-33.203297
-0.478299,1.2220755,-4.120008,-14.268046,-53.045094,-32.442635
-0.5737161,0.98043454,-4.102404,-22.614016,-55.52146,-31.26665
-0.70693046,0.68049854,-4.0501294,-29.292044,-58.34021,-29.583302
-0.81839347,0.3162714,-3.9407609,-34.48863,-61.36776,-27.756645
-0.84827685,-0.10875592,-3.781836,-37.443104,-64.12082,-26.369043
-0.7589883,-0.53265446,-3.5777445,-39.228138,-66.05799,-24.720491
-0.62777966,-0.9073902,-3.335702,-40.362934,-66.846924,-22.156527
-0.54697424,-1.245093,-3.0708587,-40.74564,-67.00362,-18.771791
-0.5017236,-1.5743065,-2.7771435,-40.02479,-66.81744,-15.273234
-0.4144755,-1.9012346,-2.4624004,-37.449898,-65.91676,-12.601811
-0.30400777,-2.1162148,-2.1879754,-34.330547,-64.53354,-10.033131
-0.1846021,-2.213861,-1.9196937,-31.382208,-62.70197,-7.0300817
-0.07473691,-2.2384655,-1.627485,-29.212816,-60.59134,-3.474807
0.05164241,-2.2742863,-1.3100669,-26.965792,-57.907074,-0.1606389
0.14982627,-2.3609571,-1.0306962,-23.893898,-55.179134,2.542819
0.24827783,-2.4686618,-0.7979489,-20.25229,-52.398148,4.94084
0.37369704,-2.559753,-0.59646815,-16.229162,-49.46803,7.3159733
0.5086394,-2.5274594,-0.42511526,-12.096526,-46.17314,9.5079
0.6320234,-2.3995142,-0.28359392,-8.442869,-42.665245,11.542399
0.7300731,-2.29544,-0.17591454,-5.2714763,-38.88148,13.501155
0.78031063,-2.2562943,-0.114683665,-1.5139052,-35.29548,15.434322
0.8039104,-2.1545346,-0.09574439,2.8635917,-32.049847,17.157816
0.80536956,-1.8863119,-0.12578852,7.168403,-29.26482,18.09517
0.80331314,-1.520142,-0.17874783,9.992961,-26.849037,18.535
0.8210529,-1.2183243,-0.22337884,12.117159,-24.34477,18.663483
0.83139795,-0.9941891,-0.27702138,13.924847,-21.739998,18.472267
0.830579,-0.80594176,-0.35263854,15.631851,-19.137321,18.042318
0.803802,-0.581686,-0.46202892,17.328743,-16.769388,17.470837
0.7569615,-0.2995715,-0.60440004,18.108337,-15.265839,16.445683
0.71489555,-0.023819631,-0.75512433,18.078632,-14.410451,14.914591
0.6785354,0.1697734,-0.8932037,17.341953,-13.874219,13.37029
0.62815034,0.3043599,-1.0267601,16.42094,-13.542438,11.998663
0.56990427,0.41950858,-1.1592003,15.250078,-13.375136,10.66546
0.5104366,0.5100609,-1.2846935,13.733548,-13.385383,9.262958
0.4387734,0.5752933,-1.4050894,11.83065,-13.698749,7.808559
0.3535111,0.5824431,-1.5154499,9.760451,-14.478189,6.429013
0.26947835,0.56676424,-1.6063665,7.865072,-15.613849,5.0377064
0.19809526,0.5696053,-1.6855121,6.0167804,-16.95846,3.601777
0.13811716,0.5972063,-1.7593644,4.0081153,-18.556555,2.1473513
0.07099826,0.6153061,-1.8247969,1.6985736,-20.47725,0.90930337
0.019607455,0.5859249,-1.8578335,-0.90784377,-22.57951,-0.010154076
0.0008702079,0.5077131,-1.8563814,-3.3890436,-24.532831,-0.78016806
0.0073097623,0.42069787,-1.836172,-5.5150247,-26.097994,-1.3889061
-0.0045712995,0.348792,-1.823013,-7.427024,-27.70043,-1.7486527
-0.0113365585,0.25598606,-1.7877162,-9.417942,-29.376978,-1.9833833
-0.012207639,0.11818651,-1.7211776,-11.152107,-31.109116,-2.1498873
0.0061050407,-0.06631194,-1.6244307,-12.514526,-32.67238,-2.0957549
0.04849101,-0.28455028,-1.5098191,-13.24601,-33.83354,-1.835385
0.09435002,-0.5015312,-1.3928375,-13.542577,-34.631767,-1.198534
0.12423304,-0.6905431,-1.2553288,-13.444181,-35.11028,-0.18143089
0.14366858,-0.84539294,-1.0946469,-13.146468,-35.38531,0.9973549
0.17154218,-0.9867863,-0.9194693,-12.568345,-35.401516,2.2142072
0.22611022,-1.1276557,-0.7427579,-11.749328,-34.962505,3.6208034
0.2821907,-1.2577497,-0.5812437,-10.4006405,-34.182377,5.2613153
0.332858,-1.357121,-0.42886382,-8.785086,-33.29193,6.9010887
0.38977453,-1.4380139,-0.27256778,-6.9431405,-32.24037,8.585132
0.46264324,-1.4805187,-0.11770696,-5.0771794,-30.807524,10.333517
0.54008895,-1.4888442,0.020882241,-3.4055536,-28.887981,12.169382
0.61420166,-1.4971796,0.1346189,-1.449788,-26.374252,14.058824
0.6846579,-1.4440174,0.2073799,0.5479265,-23.435837,15.87806
0.72986317,-1.3510273,0.24070074,2.5476165,-20.294146,17.546383
0.74174714,-1.2679007,0.24536704,4.396574,-17.493433,18.881516
0.75871676,-1.1930953,0.23276076,6.3028436,-14.832653,20.006853
0.7746586,-1.0904769,0.19514897,8.355315,-12.260609,21.018312
0.78085965,-0.8947743,0.122629985,9.795485,-9.799209,22.014206
0.77916014,-0.6832385,0.039778933,10.480175,-7.4138227,22.731281
0.77663285,-0.517455,-0.038877297,10.855988,-5.0459867,22.932518
0.77295846,-0.37995902,-0.12160955,11.371575,-2.5430908,22.669603
0.7547956,-0.2373858,-0.21902207,11.926272,0.11357046,22.419
0.71450365,-0.047930162,-0.34233895,12.152074,2.613785,22.34737
0.692041,-0.046423327,-0.33157647,11.770036,2.5316124,21.64481
0.67029774,-0.044964753,-0.32115868,11.400233,2.452072,20.964752
0.64924973,-0.04355282,-0.311074,11.042254,2.3750744,20.306438
0.62887365,-0.04218595,-0.3013112,10.6957035,2.300535,19.66914
0.60914695,-0.040862653,-0.2918596,10.360198,2.2283711,19.052153
0.59004813,-0.03958147,-0.2827088,10.03537,2.158504,18.454803
0.5715563,-0.038341004,-0.27384886,9.720867,2.0908577,17.87644
0.5536515,-0.037139922,-0.26527014,9.4163475,2.0253587,17.316435
0.5363144,-0.035976917,-0.25696346,9.121483,1.9619364,16.774187
0.51952636,-0.034850746,-0.24891983,8.835957,1.9005226,16.249111
0.5032695,-0.033760205,-0.24113068,8.5594635,1.8410518,15.740646
0.48752636,-0.03270413,-0.23358771,8.29171,1.7834607,15.248253
0.47228038,-0.0316814,-0.22628292,8.03241,1.7276881,14.771408
0.4575154,-0.030690938,-0.2192086,7.781291,1.6736751,14.309606
0.44321582,-0.029731698,-0.21235727,7.5380883,1.6213646,13.862362
0.42936668,-0.028802672,-0.20572175,7.302546,1.5707018,13.429205
0.41595343,-0.02790289,-0.19929509,7.074417,1.5216337,13.009683
0.4029621,-0.027031409,-0.19307058,6.8534646,1.4741092,12.603355
0.39037916,-0.026187321,-0.18704173,6.639457,1.4280784,12.209801
0.3781915,-0.025369752,-0.18120228,6.4321733,1.3834937,11.82861
0.3663865,-0.024577852,-0.17554617,6.231397,1.3403089,11.459389
0.35495195,-0.023810804,-0.17006756,6.036922,1.2984792,11.101753
0.34387606,-0.023067813,-0.16476078,5.848546,1.2579616,10.755335
0.33314744,-0.022348117,-0.15962039,5.6660767,1.2187142,10.419778
0.32275498,-0.021650974,-0.15464108,5.4893246,1.1806968,10.094735
0.31268808,-0.020975668,-0.14981773,5.3181095,1.1438702,9.779875
0.3029364,-0.020321507,-0.14514542,5.1522555,1.1081967,9.474874
0.29348993,-0.019687822,-0.14061935,4.9915934,1.0736399,9.1794195
0.28433907,-0.019073965,-0.13623491,4.8359575,1.0401644,8.893209
0.27547443,-0.01847931,-0.13198762,4.6851907,1.0077358,8.6159525
0.266887,-0.01790325,-0.12787314,4.539138,0.9763215,8.347365
0.25856802,-0.0173452,-0.12388728,4.397651,0.9458892,8.087174
0.25050905,-0.016804589,-0.120026,4.2605867,0.916408,7.835116
0.24270189,-0.01628087,-0.11628536,4.1278048,0.88784796,7.590933
0.23513861,-0.015773512,-0.112661585,3.9991705,0.8601801,7.3543777
0.22781155,-0.015282,-0.109150976,3.874554,0.83337635,7.125211
0.22071327,-0.014805836,-0.105749995,3.7538285,0.8074096,6.9031997
0.2138366,-0.014344536,-0.102455184,3.6368718,0.78225344,6.6881194
0.20717457,-0.013897635,-0.09926321,3.523566,0.7578825,6.4797525
0.20072046,-0.013464682,-0.096170865,3.4137962,0.7342722,6.277889
0.19446772,-0.013045237,-0.093175,3.3074515,0.71139854,6.0823236
0.18841007,-0.01263888,-0.09027261,3.2044249,0.68923855,5.8928595
0.18254139,-0.012245198,-0.08746076,3.1046116,0.6677698,5.709306
0.17685573,-0.011863794,-0.0847366,3.007912,0.6469706,5.5314775
0.1713474,-0.011494285,-0.0820974,2.9142277,0.62682015,5.3591943
0.16601083,-0.011136299,-0.0795405,2.8234649,0.607298,5.1922836
0.16084066,-0.0107894745,-0.07706332,2.735532,0.58838457,5.030577
0.15583166,-0.010453463,-0.07466337,2.6503403,0.57006073,4.873912
0.1509788,-0.010127924,-0.07233823,2.5678046,0.55230814,4.7221303
0.14627722,-0.009812534,-0.07008557,2.4878414,0.53510886,4.57508
0.14172217,-0.009506973,-0.06790312,2.4103703,0.5184457,4.4326124
0.13730907,-0.009210935,-0.06578867,2.3353136,0.50230175,4.294585
0.13303351,-0.008924122,-0.06374013,2.262596,0.48666093,4.160859
0.12889117,-0.008646247,-0.061755415,2.1921442,0.4715075,4.0313
0.12487789,-0.00837703,-0.05983254,2.1238875,0.45682618,3.905778
0.12098966,-0.0081162,-0.057969578,2.0577576,0.4426023,3.7841663
0.117222555,-0.0078634955,-0.056164652,1.9936879,0.4288216,3.6663437
0.11357281,-0.0076186648,-0.05441596,1.931614,0.41547015,3.5521915
0.11003677,-0.00738146,-0.05272174,1.8714739,0.40253463,3.4415953
0.106610864,-0.0071516447,-0.05108029,1.8132071,0.39000207,3.3344443
0.103291675,-0.006928988,-0.04948997,1.7567554,0.37785986,3.2306306
0.10007586,-0.0067132656,-0.047949187,1.7020618,0.36609584,3.1300504
0.09696022,-0.0065042623,-0.046456393,1.6490717,0.35469824,3.032603
0.09394161,-0.0063017686,-0.04501009,1.5977321,0.3436556,2.9381905
0.091017,-0.006105581,-0.04360883,1.5479912,0.33295685,2.8467183
0.08818348,-0.005915503,-0.042251207,1.4997995,0.3225913,2.7580948
0.08543819,-0.0057313447,-0.040935863,1.4531084,0.31254855,2.6722312
0.0827784,-0.005552921,-0.03966148,1.4078714,0.30281854,2.5890415
0.08020143,-0.0053800535,-0.03842678,1.3640431,0.29339153,2.5084422
0.077704705,-0.0052125687,-0.03723053,1.3215795,0.28425804,2.4303527
0.075285725,-0.005050299,-0.036071528,1.2804382,0.27540895,2.3546948
0.07294206,-0.004893082,-0.034948613,1.2405778,0.26683542,2.2813926
0.07067138,-0.0047407607,-0.03386066,1.2019587,0.25852883,2.210373
0.068471394,-0.004593182,-0.032806586,1.164542,0.2504809,2.1415644
0.0663399,-0.004450198,-0.03178533,1.1282902,0.24268351,2.0748985
0.06427478,-0.004311666,-0.030795872,1.0931672,0.23512892,2.010308
0.062273957,-0.004177447,-0.029837219,1.0591377,0.22780953,1.9477286
0.060335424,-0.0040474064,-0.028908413,1.0261676,0.22071803,1.8870975
0.058457244,-0.003921415,-0.028008524,0.99422413,0.2138473,1.8283541
0.05663754,-0.003799346,-0.027136652,0.96327513,0.20719048,1.7714397
0.054874487,-0.0036810772,-0.026291924,0.9332896,0.20074092,1.716297
0.053166322,-0.0035664905,-0.025473492,0.9042376,0.19449213,1.6628711
0.051511336,-0.0034554712,-0.024680542,0.8760901,0.1884379,1.6111085
0.04990787,-0.0033479081,-0.023912277,0.84881884,0.18257213,1.5609573
0.048354328,-0.0032436936,-0.02316793,0.82239664,0.17688899,1.5123675
0.046849146,-0.0031427233,-0.022446755,0.7967969,0.17138276,1.4652903
0.045390822,-0.0030448963,-0.02174803,0.7719942,0.16604793,1.4196786
0.043977898,-0.002950115,-0.021071058,0.74796355,0.1608792,1.3754869
0.042608958,-0.002858284,-0.02041516,0.72468096,0.15587136,1.3326708
0.04128263,-0.0027693117,-0.01977968,0.7021232,0.15101942,1.2911876
0.039997596,-0.0026831091,-0.019163983,0.6802677,0.14631853,1.2509959
0.038752563,-0.0025995902,-0.018567452,0.65909255,0.14176397,1.2120552
0.037546284,-0.002518671,-0.01798949,0.6385765,0.13735119,1.1743268
0.03637756,-0.002440271,-0.017429521,0.6186992,0.13307577,1.1377728
0.035245217,-0.0023643111,-0.016886983,0.5994406,0.12893346,1.1023568
0.03414812,-0.0022907162,-0.016361333,0.5807815,0.12492008,1.0680431
0.03308518,-0.002219412,-0.015852047,0.56270325,0.121031635,1.0347977
