ax,ay,az,gx,gy,gz
1.3481941,6.8255167,-0.83091664,51.99138,-14.648315,-1.7754706
1.6111114,7.0001335,-0.5560349,34.86745,-9.326506,-9.217661
1.7939873,6.469775,-0.38248354,22.63289,-4.478207,-15.29232
1.5293534,5.9858456,-0.55250645,20.31973,-3.6061516,-14.83592
1.3503255,5.880119,-0.65500665,19.321209,-4.5685897,-15.678046
1.4373193,5.9158454,-0.6780086,16.739862,-6.075112,-20.234802
1.6713464,5.934707,-0.6591674,12.974166,-6.218537,-25.692293
1.9622189,5.810084,-0.60825175,7.800238,-4.217495,-30.931385
2.1634355,5.5743184,-0.60822344,2.3189178,-0.5868905,-35.276466
2.0098722,5.33163,-0.81000626,-2.5929666,1.4314598,-38.0746
1.7599064,5.0668564,-1.046925,-6.4387097,1.3150094,-40.796967
1.560039,4.778342,-1.2742034,-10.232662,-0.6071548,-43.681637
1.4813927,4.429831,-1.44903,-14.192749,-2.7994533,-46.14438
1.5113925,4.0254254,-1.5801803,-17.677282,-3.5423417,-47.65632
1.5567509,3.6985722,-1.7621366,-21.083347,-3.3307273,-47.7219
1.4871929,3.4728847,-2.004702,-25.544533,-3.6550705,-47.00783
1.360081,3.1888094,-2.2174015,-30.3973,-4.9672,-47.007145
1.2084771,2.7872262,-2.375467,-34.74409,-7.02442,-47.44713
1.0468646,2.363503,-2.4951475,-38.15003,-9.650991,-46.722603
0.8931809,2.100331,-2.6175344,-41.823776,-12.442594,-45.39296
0.7498066,1.8478668,-2.7278235,-45.60452,-15.421032,-44.15416
0.5698467,1.5533209,-2.8070235,-48.986713,-18.830236,-43.018906
0.3909598,1.1990824,-2.8087807,-51.324413,-22.23525,-42.176235
0.2028258,0.77143466,-2.7514246,-52.190403,-25.777409,-41.149857
0.047180723,0.29094988,-2.6394382,-51.97612,-29.217968,-39.50084
-0.06211122,-0.12416858,-2.4979677,-50.8027,-31.787703,-36.770878
-0.17697042,-0.42732865,-2.3602762,-49.798607,-33.843925,-33.11171
-0.30268502,-0.6860451,-2.2166421,-48.888447,-36.058235,-29.275246
-0.4046308,-0.96354693,-2.0371242,-47.329815,-38.737186,-25.685774
-0.376665,-1.2724587,-1.7762545,-44.94077,-40.821983,-22.139109
-0.2998128,-1.5334779,-1.5140462,-41.92184,-42.121708,-18.052404
-0.17645109,-1.7119209,-1.2587203,-38.86756,-42.675213,-13.344336
-0.027115924,-1.7981285,-0.99615586,-35.64371,-42.525726,-8.645535
0.11746293,-1.8145944,-0.72556055,-32.62059,-42.028496,-4.673248
0.27476624,-1.8729018,-0.44091582,-29.163614,-40.948586,-1.8227756
0.44387165,-1.948183,-0.18463103,-24.242132,-39.03617,1.2399533
0.6057184,-1.857289,-0.0049887965,-19.285357,-36.69636,5.0205264
0.8007334,-1.6285272,0.13451861,-15.02914,-33.876556,8.306845
0.9882825,-1.3764845,0.25049663,-11.550661,-30.67599,9.727567
1.1105114,-1.2579206,0.3475605,-8.550564,-27.358196,10.483323
1.2059672,-1.263825,0.41832227,-4.627951,-23.665068,11.29707
1.2509507,-1.1743689,0.40367532,0.03944422,-20.287413,12.792244
1.307386,-0.9047761,0.33128688,3.8579586,-17.38041,13.8674965
1.371494,-0.600118,0.23590553,6.1587915,-15.012903,13.350414
1.3988475,-0.38867325,0.14056629,7.665064,-12.733541,12.374714
1.3781766,-0.2680677,0.04272564,8.734907,-10.496705,11.378409
1.2972306,-0.22347073,-0.07717334,10.217785,-8.693429,10.507454
1.2010515,-0.17790705,-0.21617654,11.680183,-7.585114,9.835166
1.1376002,-0.07722951,-0.3631514,12.984185,-6.8354087,8.921329
1.0896049,0.11908546,-0.5369409,13.497933,-6.189785,7.7559175
1.0121803,0.29760113,-0.71249336,13.112669,-5.847224,6.506223
0.9043403,0.44209796,-0.88515216,12.111298,-5.960286,5.2124424
0.7815576,0.54866356,-1.0430962,10.405818,-6.7133746,3.9861844
0.6705747,0.6048887,-1.1732831,8.22439,-7.9822674,2.9318838
0.59780735,0.6381194,-1.2743794,5.796551,-9.315183,2.0381038
0.52438563,0.68147933,-1.3709619,3.0975144,-10.667507,1.2537563
0.41934362,0.69228214,-1.460899,0.11958488,-12.387979,0.48396593
0.31118193,0.6531421,-1.5228102,-3.1388104,-14.610373,-0.4340335
0.23254046,0.55081654,-1.5432676,-5.9335303,-16.998436,-1.4347976
0.18242589,0.40847936,-1.5343013,-8.336701,-19.325489,-1.928836
0.14697388,0.28035367,-1.5186676,-10.597641,-21.556616,-1.9038625
0.111661404,0.16134605,-1.4959676,-13.097803,-23.82235,-1.3794804
0.07573452,0.02204345,-1.4466834,-15.434092,-26.044796,-0.61688477
0.03672798,-0.14359477,-1.3767245,-17.077623,-28.20624,0.2630149
0.024767898,-0.33636397,-1.2742261,-18.462482,-30.177614,1.2266021
0.03919233,-0.5434238,-1.1460392,-19.272867,-31.691698,2.443453
0.05280657,-0.7258275,-1.0100904,-19.55108,-32.739677,4.28011
0.03963256,-0.8670083,-0.8736788,-19.571936,-33.719055,6.5136065
0.020482006,-1.0078828,-0.7241274,-18.937122,-34.842922,8.332855
0.05614806,-1.1655672,-0.5579289,-17.74356,-35.899975,10.011416
0.1433525,-1.3038292,-0.38946694,-16.088385,-36.504005,12.044118
0.24165331,-1.4028144,-0.22948836,-14.134946,-36.569824,14.453777
0.3411185,-1.4774109,-0.068574265,-11.95537,-36.209038,16.791529
0.4479005,-1.5238926,0.097347215,-9.344261,-35.320053,18.777403
0.55269784,-1.5268422,0.2517714,-6.557862,-34.10833,20.516315
0.6366613,-1.5345685,0.3841808,-3.4686294,-32.75664,22.150066
0.7293926,-1.527659,0.49608472,-0.2486156,-31.188557,23.701563
0.8422258,-1.480327,0.58274543,2.9071016,-29.295588,25.027172
0.9685954,-1.3658046,0.6378796,5.59837,-26.945972,25.953457
1.0982841,-1.1451755,0.6432747,7.417386,-24.372189,26.830528
1.1820117,-0.92473936,0.6139678,8.829648,-21.754614,28.117685
1.2247932,-0.71968454,0.56360024,9.639208,-19.192566,29.914814
1.2253973,-0.52512324,0.48792347,10.368977,-16.682154,31.258636
1.1764987,-0.34931734,0.3841172,10.355774,-15.32877,30.316227
1.2065823,-0.20663387,0.29237014,9.631542,-14.208565,28.293655
1.3019601,-0.12126612,0.23194304,9.1336,-12.09881,26.000359
1.3629093,-0.101391636,0.16428071,8.998284,-9.269132,24.044617
1.3398252,-0.15646203,0.074935086,9.192759,-6.422426,22.436472
1.2541732,-0.21893488,-0.031695817,10.343593,-3.9074304,21.48808
1.1137981,-0.17459157,-0.16912892,11.36988,-2.092141,20.810831
0.9975209,-0.071540534,-0.29693657,11.879846,-0.7340748,19.635
0.90591085,0.045340683,-0.39626694,11.857586,0.58284277,18.179207
0.82840836,0.12405606,-0.46997622,11.675543,2.167542,16.924248
0.7713507,0.15656649,-0.5246124,11.411424,4.404951,15.947747
0.74647075,0.14672633,-0.55668825,11.107916,6.9344187,14.828373
0.70383215,0.12822178,-0.5903155,10.249029,9.040459,13.746251
0.6818281,0.12421315,-0.5718604,9.928611,8.757825,13.3165
0.66051763,0.12033089,-0.55398697,9.618294,8.4841,12.900294
0.6398785,0.11657092,-0.5366766,9.317752,8.218998,12.497199
0.61988896,0.11292929,-0.51991105,9.0266695,7.96224,12.106792
0.6005282,0.10940221,-0.50367284,8.744742,7.713558,11.728665
0.581776,0.105986,-0.48794508,8.471678,7.4726934,11.362424
0.56361294,0.102677114,-0.47271138,8.207191,7.2393956,11.0076885
0.54602015,0.09947211,-0.45795602,7.9510098,7.013423,10.664091
0.5289794,0.096367694,-0.44366372,7.702867,6.7945414,10.331276
0.51247317,0.09336065,-0.42981967,7.4625072,6.5825253,10.0089
0.49648446,0.09044787,-0.41640964,7.2296834,6.377156,9.6966305
0.48099676,0.087626375,-0.40341985,7.004155,6.178222,9.394147
0.4659942,0.084893264,-0.39083698,6.7856917,5.9855204,9.101138
0.4514614,0.08224572,-0.37864807,6.574069,5.798852,8.817305
0.4373835,0.07968106,-0.36684072,6.36907,5.6180267,8.542355
0.4237461,0.07719664,-0.3554028,6.1704855,5.442859,8.276008
0.41053528,0.07478994,-0.34432268,5.9781127,5.273171,8.017993
0.39773756,0.0724585,-0.33358902,5.7917557,5.1087894,7.7680464
0.38533992,0.07019994,-0.32319093,5.6112247,4.9495463,7.5259132
0.37332976,0.06801196,-0.3131178,5.4363356,4.7952805,7.2913475
0.36169487,0.06589236,-0.30335942,5.266911,4.6458344,7.064111
0.35042343,0.063838966,-0.29390588,5.102779,4.501057,6.8439736
0.33950403,0.061849702,-0.2847476,4.9437733,4.360801,6.630711
0.32892558,0.059922557,-0.27587527,4.7897325,4.224925,6.424108
0.31867737,0.058055576,-0.26727992,4.6405005,4.093291,6.2239547
0.30874905,0.056246866,-0.2589529,4.495927,3.9657655,6.030049
0.2991306,0.054494604,-0.25088573,4.3558655,3.8422198,5.8421946
0.28981224,0.05279702,-0.24307027,4.220174,3.7225292,5.6602015
0.2807846,0.051152397,-0.23549865,4.0887156,3.6065726,5.4838867
0.27203858,0.04955908,-0.22816323,3.9613585,3.4942334,5.313072
0.26356536,0.048015453,-0.2210566,3.8379734,3.385398,5.147585
0.25535637,0.04651997,-0.21417159,3.7184362,3.2799566,4.987259
0.24740337,0.045071118,-0.20750126,3.6026266,3.1778033,4.831932
0.23969834,0.04366744,-0.20103893,3.4904277,3.0788348,4.681448
0.23223351,0.042307522,-0.19477805,3.3817267,2.9829519,4.5356555
0.22500138,0.040989995,-0.18871234,3.2764142,2.890058,4.3944077
0.21799468,0.03971354,-0.18283571,3.1743844,2.8000596,4.257563
0.21120636,0.038476866,-0.17714223,3.0755346,2.712866,4.1249833
0.20462959,0.03727873,-0.1716262,2.9797654,2.62839,3.996535
0.19825777,0.036117937,-0.16628204,2.8869805,2.5465465,3.8720899
0.1920845,0.03499331,-0.16110443,2.797087,2.4672532,3.7515223
0.18610358,0.033903725,-0.15608813,2.7099943,2.3904305,3.6347115
0.18030901,0.03284809,-0.15122813,2.6256151,2.3160014,3.52154
0.17469497,0.03182534,-0.14651953,2.5438647,2.243891,3.4118943
0.16925581,0.030834455,-0.14195763,2.4646611,2.1740272,3.3056645
0.16398609,0.029874435,-0.13753782,2.3879247,2.1063397,3.2027438
0.15888052,0.028944321,-0.1332557,2.3135786,2.0407605,3.103029
0.15393399,0.028043177,-0.12910695,2.2415485,1.9772241,3.0064204
0.14914152,0.027170101,-0.12508744,2.1717618,1.9156666,2.9128206
0.1444983,0.026324218,-0.1211931,2.1041486,1.8560264,2.8221362
0.13999972,0.025504678,-0.117420055,2.0386412,1.7982436,2.734276
0.13564123,0.024710663,-0.11376452,1.9751738,1.7422605,2.649152
0.13141847,0.023941375,-0.110222824,1.9136832,1.6880208,2.5666792
0.12732722,0.023196045,-0.10679142,1.8541073,1.6354702,2.4867747
0.12336337,0.022473924,-0.103466876,1.7963867,1.584556,2.4093583
0.11952295,0.02177429,-0.100245856,1.7404635,1.5352273,2.3343527
0.11580212,0.021096442,-0.097125135,1.6862817,1.4874346,2.2616827
0.112197146,0.020439701,-0.094101585,1.633787,1.4411302,2.1912756
0.108704425,0.019803409,-0.09117219,1.5829269,1.3962675,2.1230607
0.10532046,0.019186929,-0.088333994,1.5336504,1.3528017,2.05697
0.102041855,0.018589644,-0.08558418,1.4859082,1.3106892,1.9929368
0.09886534,0.018010955,-0.08291998,1.4396524,1.269888,1.9308976
0.09578771,0.017450284,-0.080338724,1.3948369,1.2303572,1.8707898
0.092805915,0.01690707,-0.07783784,1.3514167,1.192057,1.8125535
0.089916945,0.016380768,-0.075414814,1.3093482,1.1549493,1.7561303
0.087117925,0.01587085,-0.07306723,1.2685896,1.118997,1.7014638
0.08440605,0.01537681,-0.070792735,1.2290999,1.0841639,1.6484993
0.08177859,0.01489815,-0.06858905,1.1908396,1.0504153,1.5971836
0.079232946,0.014434393,-0.06645397,1.1537704,1.0177174,1.5474656
0.07676654,0.013985071,-0.06438536,1.1178554,0.9860374,1.4992954
0.074376926,0.0135497395,-0.06238115,1.0830584,0.95534366,1.4526247
0.0720617,0.013127959,-0.060439333,1.0493447,0.9256055,1.407407
0.06981856,0.012719311,-0.05855797,1.0166805,0.89679307,1.363597
0.06764524,0.012323382,-0.056735173,0.98503315,0.86887765,1.3211509
0.065539576,0.011939781,-0.05496912,0.9543711,0.8418312,1.2800261
0.063499466,0.01156812,-0.053258047,0.9246635,0.81562674,1.2401816
0.061522868,0.011208029,-0.051600236,0.8958807,0.7902381,1.2015774
0.059607796,0.010859149,-0.049994037,0.86799395,0.7656397,1.1641749
0.05775234,0.010521128,-0.048437838,0.8409753,0.7418071,1.1279368
0.055954646,0.01019363,-0.046930082,0.8147977,0.7187164,1.0928268
0.054212913,0.009876327,-0.04546926,0.789435,0.6963445,1.0588098
0.0525254,0.009568901,-0.044053912,0.7648618,0.67466897,1.0258516
0.050890416,0.009271045,-0.042682625,0.7410536,0.6536682,0.99391943
0.049306326,0.008982461,-0.041354027,0.7179865,0.6333212,0.9629813
