ax,ay,az,gx,gy,gz
-3.8982174,-1.0654643,-8.0737095,0.94364494,-20.086546,-4.0509458
-4.5284796,-1.0843017,-9.19021,2.9368753,-54.45766,-19.62763
-4.8123875,-1.2024829,-9.643867,-2.391121,-88.30035,-33.778538
-4.1966014,-1.9424182,-9.677438,1.27221,-109.97039,-35.834057
-3.1400964,-2.892373,-9.836579,11.715081,-126.39954,-30.823017
-1.9781759,-4.0537195,-10.020508,22.129515,-140.45038,-18.126465
-0.8674473,-5.0992365,-10.121487,34.181046,-149.75285,1.1603363
-0.2815377,-5.5330048,-10.301127,46.544907,-160.3563,20.197262
-0.19603406,-5.462401,-10.393751,57.20418,-172.07446,33.420692
-0.1219707,-5.185272,-10.297203,66.759315,-184.22217,42.302204
0.12464642,-4.78463,-9.946003,75.4823,-194.72989,49.71981
0.52701217,-4.2507706,-9.396259,81.35749,-203.62996,57.756626
1.050578,-3.592783,-8.632653,84.75338,-211.56499,66.371735
1.7555453,-2.726757,-7.5692706,85.80452,-216.37035,73.33456
2.5779724,-1.8273214,-6.3589525,86.17203,-216.42207,76.46496
3.484987,-0.9467121,-5.0593143,86.46257,-211.06146,75.04892
4.40495,-0.1371458,-3.736352,86.10323,-200.65326,70.65747
5.219911,0.5948329,-2.483501,83.93085,-185.20775,65.44915
5.7775064,1.236245,-1.4340415,79.013435,-167.6794,61.264835
6.1084023,1.7745689,-0.6420971,71.803314,-149.15231,58.20123
6.2245016,2.222526,-0.13424356,63.563267,-131.16728,55.18529
6.188565,2.5658324,0.15061767,54.303677,-114.13292,50.953182
6.081983,2.746544,0.30340812,45.501385,-96.50836,45.49892
5.932499,2.7712774,0.31055298,37.592785,-78.92645,40.15177
5.784261,2.7526426,0.24641752,29.23793,-61.669334,35.62907
5.6356916,2.692064,0.12506947,20.8776,-44.85206,32.029953
5.4603696,2.587418,-0.07467401,14.427346,-28.984137,29.056948
5.2205434,2.4741828,-0.3628125,10.403229,-15.585697,25.624498
4.9357815,2.3371456,-0.6680144,7.7789054,-4.0933347,22.108137
4.6650505,2.2001448,-0.95445377,6.3789954,5.764951,18.678997
4.4110093,2.0739474,-1.2242945,5.53848,14.090262,15.769433
4.172164,1.9644552,-1.5003988,4.6699114,20.828285,13.394312
3.9437196,1.8492575,-1.7864106,3.967632,25.532263,11.76882
3.7089205,1.7430134,-2.1089578,3.2965918,28.22514,10.393579
3.4727283,1.6455755,-2.4239902,2.7087207,28.911469,9.252772
3.2597783,1.5579787,-2.7131479,2.132639,28.337006,8.416647
3.088905,1.4791578,-2.9728684,1.7287855,26.835836,7.84437
2.9607618,1.4033251,-3.2126114,1.5775136,24.671919,7.355051
2.8398585,1.3286669,-3.4540803,1.6793386,21.987396,6.758471
2.695612,1.2643234,-3.711683,3.2583082,18.344555,5.585132
2.50446,1.2334645,-3.993628,5.0319395,13.194463,3.522238
2.2876031,1.2089479,-4.2475724,6.835036,7.0834546,0.9218657
2.0481925,1.2227826,-4.4928446,8.632161,-0.5022383,-2.234143
1.759744,1.3435209,-4.765596,8.198541,-10.400029,-5.957073
1.4692103,1.4760512,-5.021852,6.913953,-22.364536,-10.512477
1.1642377,1.6647067,-5.3117757,4.6863465,-37.38857,-16.289492
0.8962822,1.8710186,-5.5948486,2.15666,-55.289978,-23.96227
0.7465624,1.9878708,-5.7607527,0.52104205,-73.144646,-32.064472
0.88114786,1.8970819,-5.74235,1.0443212,-88.90911,-39.13693
1.3151207,1.7539003,-5.549591,1.6731714,-102.67933,-44.0202
2.031248,1.603716,-5.1098347,-0.36564898,-113.61169,-46.397358
2.8267882,1.4447099,-4.5390887,-2.002368,-119.56159,-46.509678
3.5436463,1.3788741,-4.067109,-2.832624,-119.07654,-47.347675
4.207282,1.3159784,-3.715053,-3.4774005,-115.38576,-48.982513
4.878737,1.1668054,-3.3754268,-4.199305,-109.98821,-49.424255
5.5170918,0.92870677,-3.0214727,-4.6408205,-103.421684,-46.8767
6.0385523,0.67660004,-2.69269,-4.1811504,-95.438774,-41.264977
6.383403,0.50937325,-2.4361868,-3.3700173,-85.91604,-33.395626
6.5595765,0.39877474,-2.279367,-1.5371263,-75.402435,-25.616764
6.6283517,0.28024963,-2.2065222,1.8131537,-63.80712,-18.979118
6.607032,0.16963935,-2.191726,5.9573035,-51.48467,-12.773796
6.5055294,0.11532036,-2.2360547,9.545062,-39.20799,-6.738239
6.3359385,0.12536097,-2.315491,11.187438,-28.139265,-0.47460985
6.1058803,0.19212642,-2.4330685,11.989813,-18.37394,4.7874184
5.8404465,0.22674188,-2.5567765,12.71358,-9.462308,8.816205
5.5573583,0.22883727,-2.686087,14.082886,-0.98225486,11.784394
5.261319,0.22304179,-2.8311014,15.951448,6.990817,14.131515
4.9477353,0.22844689,-3.0032086,17.993149,13.460574,15.712066
4.6009703,0.22894362,-3.1857548,20.053953,18.19824,17.307709
4.2587934,0.23659827,-3.3540933,21.798613,21.235968,19.241146
3.9441593,0.26135057,-3.4985473,23.069286,22.936531,21.40943
3.6609824,0.2947248,-3.6225328,23.948458,23.625875,23.593107
3.4140623,0.3271546,-3.7118723,24.897419,23.908682,25.72397
3.204263,0.37399334,-3.7794619,26.813967,23.957628,27.356838
2.9996715,0.4721985,-3.834347,28.766218,23.535107,27.950033
2.8060153,0.62351805,-3.8514242,30.739555,22.815435,27.339825
2.6247149,0.8083422,-3.8423696,32.26454,21.524982,25.844603
2.473505,0.9910699,-3.7918885,33.07873,19.605661,24.550287
2.373713,1.2099944,-3.6674085,33.645023,17.636908,23.887312
2.296919,1.504217,-3.5223653,33.588745,15.364348,23.170757
2.2188241,1.8655248,-3.379296,32.19601,12.349887,21.08904
2.1411362,2.2292008,-3.2262292,29.808666,8.957945,17.314388
2.0566027,2.588231,-3.088465,25.278454,5.1758404,11.378112
1.9570507,2.87167,-2.968954,19.316324,1.1946461,4.6287823
1.8714952,3.0783858,-2.8353934,13.10601,-2.4461718,-2.025181
1.8140787,3.2050138,-2.7038424,7.2744417,-5.2154493,-8.47214
1.7820644,3.21945,-2.6162858,2.1826088,-7.283365,-14.797601
1.7618927,3.1208768,-2.5764077,-2.0921516,-8.9139385,-20.611282
1.7569108,2.9336069,-2.57605,-6.1677136,-10.322305,-25.537615
1.8128233,2.646706,-2.5983307,-9.658501,-11.425757,-29.349072
1.9387609,2.2824209,-2.6127305,-12.1589575,-12.027671,-31.532862
2.1097121,1.8754493,-2.5968316,-13.33208,-11.672047,-31.793493
2.2635734,1.5174587,-2.5708244,-13.443984,-10.571101,-30.204088
2.3321471,1.2489607,-2.551773,-13.28496,-9.476355,-28.273445
2.3349266,1.0045271,-2.5324168,-12.462723,-8.588038,-26.319798
2.2984343,0.790703,-2.498849,-11.206436,-7.9682856,-24.303783
2.2488685,0.6021639,-2.4391408,-9.686374,-7.4825716,-21.967834
2.1951768,0.4496352,-2.358874,-8.012041,-7.0026045,-19.137028
2.1318026,0.35918665,-2.255263,-6.5048738,-6.2974668,-16.210405
2.0625193,0.30701074,-2.141324,-5.0871005,-5.158832,-13.461715
1.9981014,0.29742196,-2.0744448,-4.928217,-4.997708,-13.04127
1.9357083,0.28813463,-2.0096679,-4.7743278,-4.8416486,-12.634042
1.8752754,0.27913904,-1.946926,-4.6252728,-4.690492,-12.239606
1.8167399,0.27042592,-1.8861539,-4.480898,-4.5440817,-11.857555
1.7600414,0.2619862,-1.8272891,-4.341054,-4.4022655,-11.4874935
1.7051213,0.2538112,-1.7702706,-4.205596,-4.264898,-11.129039
1.6519228,0.24589252,-1.7150396,-4.074385,-4.1318364,-10.781822
1.6003916,0.23822197,-1.6615394,-3.9472857,-4.002945,-10.445486
1.5504745,0.23079169,-1.6097151,-3.8241677,-3.878091,-10.119685
1.5021204,0.22359408,-1.5595134,-3.7049048,-3.7571464,-9.804087
1.4552798,0.21662176,-1.5108832,-3.5893748,-3.6399875,-9.498366
1.409905,0.2098676,-1.4637746,-3.47746,-3.5264945,-9.202211
1.3659494,0.2033247,-1.4181396,-3.3690457,-3.4165514,-8.91532
1.3233683,0.1969864,-1.3739315,-3.2640216,-3.3100464,-8.637402
1.2821184,0.19084626,-1.3311056,-3.1622808,-3.206871,-8.368171
1.2421577,0.18489803,-1.2896181,-3.0637197,-3.1069202,-8.107353
1.2034456,0.17913565,-1.2494268,-2.9682384,-3.0100925,-7.8546863
1.1659428,0.17355327,-1.2104912,-2.8757396,-2.9162893,-7.609912
1.1296114,0.16814524,-1.1727716,-2.7861297,-2.825416,-7.3727827
1.0944142,0.16290608,-1.1362296,-2.699318,-2.7373803,-7.1430573
1.0603161,0.15783048,-1.1008286,-2.6152165,-2.6520927,-6.920504
1.0272821,0.15291332,-1.0665326,-2.53374,-2.5694675,-6.7048974
0.9952792,0.1481496,-1.0333068,-2.4548063,-2.4894207,-6.4960194
0.9642748,0.14353453,-1.0011178,-2.3783355,-2.4118717,-6.293659
0.9342378,0.13906343,-0.96993315,-2.3042507,-2.3367422,-6.097612
0.90513766,0.13473181,-0.93972117,-2.2324767,-2.263956,-5.9076805
0.8769452,0.1305353,-0.91045153,-2.1629415,-2.1934402,-5.7236733
0.8496319,0.12646967,-0.8820947,-2.0955746,-2.1251235,-5.5454044
0.82317036,0.1225308,-0.85462207,-2.0303085,-2.0589373,-5.372694
0.79753387,0.11871475,-0.828006,-1.9670774,-1.9948144,-5.205369
0.7726966,0.11501766,-0.8022198,-1.9058174,-1.9326907,-5.04326
0.74863356,0.11143583,-0.77723736,-1.8464673,-1.8725036,-4.8862047
0.7253206,0.10796563,-0.75303364,-1.7889669,-1.8141925,-4.734045
0.70273423,0.1046036,-0.7295843,-1.7332587,-1.7576989,-4.5866275
0.68085176,0.101346344,-0.7068657,-1.6792867,-1.7029657,-4.4438043
0.65965116,0.09819059,-0.68485516,-1.6269966,-1.6499383,-4.305432
0.6391112,0.09513318,-0.6635304,-1.5763359,-1.5985632,-4.171371
0.61921126,0.09217102,-0.6428701,-1.5272536,-1.5487889,-4.0414877
0.59993136,0.08930116,-0.6228535,-1.4797006,-1.5005654,-3.9156506
0.58125204,0.0865207,-0.60346055,-1.433629,-1.4538442,-3.793734
0.5631547,0.08382687,-0.58467174,-1.3889928,-1.4085785,-3.6756155
0.54562104,0.081216946,-0.5664682,-1.345747,-1.364723,-3.5611765
0.5286336,0.07868833,-0.54883164,-1.3038484,-1.3222334,-3.4503024
0.51217526,0.07623847,-0.5317445,-1.2632548,-1.2810674,-3.3428817
0.4962296,0.073864914,-0.5151895,-1.2239255,-1.2411836,-3.2388067
0.48078054,0.07156529,-0.49915022,-1.1858212,-1.202542,-3.1379735
0.46581265,0.069337286,-0.48361042,-1.1489036,-1.1651039,-3.0402806
0.4513109,0.06717867,-0.4685546,-1.1131357,-1.1288317,-2.94563
0.43726078,0.06508727,-0.45396766,-1.0784818,-1.0936891,-2.8539274
0.42364818,0.06306101,-0.43983495,-1.0449071,-1.0596409,-2.7650802
0.41045952,0.06109784,-0.42614236,-1.0123779,-1.026653,-2.679
0.39768153,0.05919581,-0.41287616,-0.98086154,-0.9946924,-2.5956001
0.38530144,0.057353005,-0.40002304,-0.9503267,-0.96372694,-2.5147974
0.37330684,0.05556758,-0.38757014,-0.92074263,-0.9337257,-2.4365106
0.36168572,0.05383775,-0.375505,-0.8920797,-0.9046586,-2.3606615
0.35042644,0.052161783,-0.36381555,-0.86430925,-0.8764966,-2.2871742
0.33951774,0.050537996,-0.35249004,-0.8374035,-0.84921145,-2.215975
0.32894868,0.04896477,-0.34151715,-0.81133544,-0.82277584,-2.1469924
0.3187087,0.04744052,-0.33088592,-0.78607905,-0.7971633,-2.080158
0.30878752,0.045963734,-0.3205857,-0.76160896,-0.77234817,-2.0154042
0.29917526,0.044532925,-0.31060615,-0.7379008,-0.7483057,-1.9526664
0.28986225,0.04314666,-0.3009373,-0.7149307,-0.7250117,-1.891882
0.28083917,0.041803557,-0.29156947,-0.69267577,-0.70244294,-1.8329898
0.27209702,0.040502265,-0.2824933,-0.67111367,-0.6805768,-1.7759312
0.26362702,0.03924149,-0.27369967,-0.65022284,-0.6593914,-1.720649
0.2554207,0.03801996,-0.26517984,-0.6299824,-0.6388656,-1.6670879
0.24746989,0.03683646,-0.25692523,-0.61037207,-0.61897874,-1.6151942
0.23976658,0.03568981,-0.2489276,-0.59137225,-0.599711,-1.564916
0.23230308,0.03457885,-0.24117893,-0.57296395,-0.5810431,-1.516203
0.22507194,0.033502474,-0.23367149,-0.5551287,-0.56295633,-1.4690065
0.2180659,0.03245961,-0.22639777,-0.53784865,-0.5454326,-1.4232793
0.21127796,0.03144921,-0.21935047,-0.52110654,-0.5284545,-1.3789756
0.20470133,0.030470265,-0.21252257,-0.5048856,-0.5120048,-1.3360511
0.19832943,0.029521793,-0.20590721,-0.48916963,-0.49606726,-1.2944628
0.1921559,0.028602848,-0.19949779,-0.4739429,-0.4806258,-1.2541691
0.18617454,0.027712507,-0.1932879,-0.45919016,-0.46566504,-1.2151297
0.18037938,0.026849885,-0.18727131,-0.4448967,-0.45117003,-1.1773057
0.1747646,0.026014114,-0.18144202,-0.43104815,-0.43712622,-1.1406591
0.16932462,0.025204359,-0.17579418,-0.4176307,-0.42351958,-1.1051532
0.16405398,0.024419812,-0.17032215,-0.40463093,-0.4103365,-1.0707526
