ax,ay,az,gx,gy,gz
-1.6709243,0.42636752,-4.620042,9.266448,-26.966608,-43.44676
-1.7548186,0.5562679,-4.9449725,6.392662,-37.150326,-43.80041
-1.7383957,0.7539589,-5.0836196,1.2696218,-41.20046,-44.241722
-1.8881211,0.7532345,-5.5446854,-1.8652921,-52.899456,-47.53103
-2.1349294,0.53101957,-6.0028963,-3.9539354,-63.04296,-52.11034
-2.2362208,0.30131635,-6.3944626,-2.8956382,-70.265945,-56.900387
-2.2182057,0.03979487,-6.783614,-0.47004008,-77.21563,-61.053555
-2.0862308,-0.36809015,-7.171718,3.8381612,-84.10253,-63.237175
-1.8818158,-0.83666843,-7.5129604,11.771318,-90.7522,-61.16437
-1.7983007,-1.239906,-7.932671,19.761911,-99.47637,-56.742847
-1.8033096,-1.5955733,-8.336304,29.12256,-110.983055,-50.41973
-1.8079351,-1.8641495,-8.657802,37.887474,-124.65298,-43.388878
-1.7427651,-1.9893575,-8.797307,45.257538,-139.86368,-35.99129
-1.459232,-2.027918,-8.65487,51.75724,-154.9822,-27.208855
-0.8124268,-1.9366566,-8.09137,57.81105,-166.8644,-18.942427
0.048320625,-1.6864115,-7.2023945,63.118458,-174.01035,-12.55899
1.0811834,-1.3385304,-6.0340576,69.649216,-174.56145,-9.858933
2.2023008,-0.95892453,-4.7312374,76.03947,-169.25552,-9.95327
3.3647997,-0.56106544,-3.366639,80.170074,-158.06705,-9.236925
4.4087954,-0.10534366,-2.0616505,79.52825,-143.96802,-6.392666
5.2158504,0.30273747,-0.9951395,76.19281,-127.57672,-2.1692295
5.7162247,0.6868219,-0.23005246,71.4945,-110.244095,1.3356293
5.959361,1.0083487,0.27694377,66.863365,-92.14951,3.3811553
6.0015035,1.2876112,0.55427647,61.810627,-73.71802,3.3710585
5.8756304,1.4954991,0.60240453,56.498814,-56.28835,2.9712849
5.6722636,1.6753695,0.5313146,50.9704,-40.119392,2.6285143
5.420955,1.8268241,0.36713153,45.185074,-25.311033,2.2655725
5.1462097,1.9409727,0.13475195,40.19161,-11.966809,1.7442133
4.861118,2.0331736,-0.16203375,36.60251,-0.48835066,0.17090774
4.549519,2.0790422,-0.51810926,33.522465,9.4444685,-1.9949242
4.258268,2.0811112,-0.8900521,30.784298,18.054693,-4.048279
3.993086,2.0564084,-1.2734226,28.123587,25.359049,-5.679086
3.7513177,2.0091677,-1.6604456,25.686344,31.54516,-6.8319182
3.5259917,1.9605362,-2.0632186,24.573198,35.96844,-8.027369
3.3013303,1.9518552,-2.5078728,23.751633,38.086765,-9.796762
3.0899663,1.9403297,-2.9399278,22.568165,38.0844,-12.140791
2.9003263,1.8884628,-3.3425496,21.559927,36.960228,-14.724179
2.7059076,1.813254,-3.7526813,20.667536,34.71221,-17.317083
2.4978626,1.7327968,-4.1655383,19.775236,30.68682,-19.534847
2.2854571,1.6624516,-4.565072,19.094555,25.295317,-21.110361
2.047135,1.6254693,-4.9770536,18.040806,17.84505,-22.195648
1.7809311,1.6356399,-5.4065,17.209753,7.7774096,-23.464062
1.5192126,1.7086573,-5.79533,15.901086,-4.412508,-26.01335
1.2891008,1.7994554,-6.122557,13.803198,-18.447723,-31.407667
1.1228778,1.857891,-6.3078675,11.90159,-33.20465,-38.61213
1.1227778,1.8566785,-6.3144746,10.57388,-47.767166,-46.496567
1.4084051,1.7711246,-6.124103,8.732113,-61.756374,-53.480644
2.0287364,1.5636526,-5.6967483,5.857778,-73.90044,-57.99559
2.8970268,1.2445751,-5.0502934,5.360485,-79.20107,-58.548717
3.8416739,0.9723363,-4.369311,5.714703,-79.8992,-58.090847
4.7656775,0.6798756,-3.6971157,5.585774,-77.01504,-56.635956
5.5885897,0.32798454,-3.0737352,5.7731566,-70.99912,-52.950943
6.186625,0.0020981254,-2.6084826,6.528421,-63.109684,-47.678993
6.533468,-0.2797067,-2.3248355,8.382071,-54.028645,-42.004242
6.6329675,-0.5063095,-2.2170768,11.007898,-44.632233,-36.210938
6.624718,-0.6696232,-2.187505,14.093003,-35.495094,-29.825205
6.5467615,-0.7550664,-2.201332,17.408825,-26.67306,-22.925688
6.4145308,-0.76168436,-2.2478914,21.302935,-17.777716,-15.841418
6.1908903,-0.64627326,-2.3596902,25.3108,-9.773302,-10.283078
5.846632,-0.44004595,-2.5214567,28.800493,-3.3793812,-6.2304
5.4635153,-0.22774023,-2.6765773,31.084665,1.2407162,-3.1890056
5.0902467,-0.036959544,-2.8042698,32.652164,4.5126505,-0.45180196
4.7449512,0.15969534,-2.895366,33.86729,6.8462934,2.1547184
4.433509,0.37980193,-2.9485888,34.78069,8.707691,4.671201
4.162296,0.6654838,-2.9662657,35.368168,10.385397,6.653549
3.9028125,1.0239341,-2.987321,35.23594,11.25917,7.453112
3.6555042,1.4294076,-2.9880476,33.692028,11.223045,6.9697604
3.4396782,1.8280637,-2.949721,31.204454,10.807388,5.469816
3.2465327,2.215012,-2.9117568,27.851168,9.787782,2.7727623
3.0623052,2.5731332,-2.8961082,23.880257,8.370226,-0.7137421
2.8800764,2.918718,-2.9192202,19.141886,6.2536697,-5.496912
2.7045305,3.2084167,-2.9634728,13.487579,3.66202,-11.590448
2.5349143,3.392038,-3.020552,7.3069534,0.89825964,-18.610529
2.371202,3.4498858,-3.0749898,1.5505779,-1.7241366,-25.877525
2.242579,3.355296,-3.1443353,-3.8215666,-4.498263,-32.7184
2.205979,3.1190574,-3.217899,-8.592997,-7.2801247,-38.632374
2.2828307,2.7582893,-3.280306,-12.695527,-9.652858,-43.159073
2.4424243,2.311793,-3.3296604,-16.153742,-11.360485,-46.408886
2.6424365,1.803516,-3.3686414,-17.808794,-12.296257,-47.82185
2.8578558,1.2828723,-3.3771021,-18.15369,-12.990062,-47.37248
3.0748885,0.8238377,-3.3355458,-17.541395,-13.480696,-45.041737
2.9780898,0.797903,-3.2305417,-16.989187,-13.056319,-43.623806
2.8844035,0.7728021,-3.1289134,-16.454731,-12.645586,-42.251465
2.793723,0.74850667,-3.0305462,-15.937426,-12.248033,-40.923157
2.7059474,0.72498935,-2.9353297,-15.436687,-11.863212,-39.637394
2.6209779,0.702224,-2.8431575,-14.951961,-11.490696,-38.392742
2.5387208,0.6801853,-2.7539275,-14.482707,-11.130071,-37.18782
2.4590857,0.6588491,-2.6675415,-14.02841,-10.780939,-36.0213
2.381985,0.63819194,-2.583905,-13.588572,-10.442921,-34.89191
2.3073347,0.61819136,-2.5029268,-13.162713,-10.115644,-33.798416
2.2350543,0.59882563,-2.424519,-12.750372,-9.798758,-32.739635
2.1650655,0.58007395,-2.3485975,-12.351106,-9.491919,-31.714422
2.0972934,0.5619161,-2.2750802,-11.964484,-9.194797,-30.721678
2.0316653,0.54433274,-2.203889,-11.590094,-8.907075,-29.760342
1.9681114,0.5273051,-2.1349475,-11.227536,-8.628447,-28.82939
1.9065644,0.51081514,-2.0681832,-10.876428,-8.358617,-27.927832
1.846959,0.49484545,-2.0035253,-10.536395,-8.0973,-27.054718
1.7892326,0.47937915,-1.9409053,-10.207082,-7.84422,-26.209127
1.7333245,0.4644,-1.880258,-9.888142,-7.599112,-25.390173
1.6791762,0.44989234,-1.8215195,-9.579241,-7.361719,-24.596994
1.6267312,0.435841,-1.7646286,-9.280055,-7.131793,-23.828764
1.5759345,0.42223138,-1.7095261,-8.990274,-6.9090943,-23.084684
1.5267338,0.40904927,-1.6561545,-8.709598,-6.6933923,-22.36398
1.4790778,0.3962811,-1.6044588,-8.437734,-6.4844627,-21.665903
1.4329174,0.38391358,-1.5543853,-8.174401,-6.282089,-20.989733
1.3882048,0.37193397,-1.5058825,-7.9193277,-6.086064,-20.33477
1.3448939,0.36032993,-1.4589002,-7.672251,-5.8961835,-19.700344
1.3029404,0.34908953,-1.4133902,-7.4329176,-5.7122536,-19.085796
1.262301,0.33820125,-1.3693057,-7.201081,-5.5340853,-18.4905
1.222934,0.32765388,-1.3266017,-6.9765034,-5.361496,-17.913843
1.1847993,0.31743667,-1.2852343,-6.7589555,-5.1943088,-17.355236
1.1478578,0.30753914,-1.2451614,-6.5482144,-5.0323524,-16.814108
1.1120719,0.29795122,-1.2063419,-6.3440657,-4.8754625,-16.289907
1.077405,0.28866312,-1.1687363,-6.1463003,-4.723479,-15.782099
1.0438219,0.27966538,-1.1323063,-5.9547176,-4.576246,-15.290164
1.0112884,0.27094886,-1.0970149,-5.769123,-4.4336147,-14.813605
0.9797714,0.26250467,-1.0628263,-5.589327,-4.29544,-14.351936
0.9492389,0.2543243,-1.0297056,-5.415148,-4.1615825,-13.904689
0.91966003,0.24639939,-0.99761933,-5.2464085,-4.0319047,-13.47141
0.89100474,0.23872194,-0.966535,-5.082938,-3.9062765,-13.051661
0.86324406,0.23128417,-0.93642104,-4.924571,-3.7845702,-12.645016
0.8363499,0.22407857,-0.90724707,-4.7711473,-3.666663,-12.251063
0.81029505,0.21709785,-0.87898356,-4.6225114,-3.5524352,-11.869405
0.78505325,0.21033493,-0.85160196,-4.4785137,-3.4417717,-11.499656
0.7605989,0.20378302,-0.8250746,-4.3390083,-3.3345609,-11.141443
0.73690736,0.19743548,-0.79937476,-4.2038546,-3.2306943,-10.794404
0.7139548,0.19128592,-0.7744765,-4.0729165,-3.1300673,-10.458189
0.69171804,0.18532816,-0.75035477,-3.9460618,-3.0325785,-10.132459
0.67017466,0.17955616,-0.72698516,-3.8231628,-2.9381297,-9.816886
0.64930296,0.17396413,-0.7043442,-3.7040956,-2.8466256,-9.511152
0.629082,0.16854644,-0.6824091,-3.5887406,-2.7579744,-9.214951
0.60949135,0.16329762,-0.6611578,-3.4769812,-2.6720865,-8.927982
0.5905114,0.15821242,-0.64056885,-3.3687055,-2.5888758,-8.649959
0.57212293,0.15328571,-0.6206216,-3.2638047,-2.5082586,-8.3806
0.5543076,0.14851254,-0.60129607,-3.1621728,-2.4301538,-8.119637
0.5370474,0.14388812,-0.58257276,-3.0637083,-2.3544831,-7.8668046
0.52032506,0.13940778,-0.5644328,-2.9683118,-2.2811701,-7.6218514
0.5041237,0.13506706,-0.54685813,-2.8758876,-2.2101414,-7.3845305
0.48842716,0.13086157,-0.529831,-2.786343,-2.141326,-7.1546035
0.47321966,0.1267871,-0.51333433,-2.6995885,-2.074654,-6.93184
0.45848587,0.12283956,-0.4973516,-2.6155362,-2.0100596,-6.716016
0.4442111,0.119015,-0.48186672,-2.5341024,-1.9474771,-6.506915
0.43038094,0.115309566,-0.4668642,-2.4552054,-1.886844,-6.304328
0.4169816,0.111719556,-0.452329,-2.3787658,-1.8280996,-6.108051
0.4039996,0.10824136,-0.43824652,-2.304707,-1.7711848,-5.917887
0.39142194,0.1048715,-0.42460266,-2.2329547,-1.7160428,-5.7336464
0.37923598,0.101606585,-0.41138372,-2.1634374,-1.662618,-5.555144
0.36742955,0.09844335,-0.39857644,-2.096085,-1.6108572,-5.3822002
0.35599083,0.09537864,-0.38616803,-2.0308301,-1.5607083,-5.2146425
0.3449083,0.09240936,-0.37414604,-1.9676073,-1.5121211,-5.052303
0.33417088,0.08953254,-0.36249843,-1.9063532,-1.465047,-4.8950186
0.3237678,0.08674531,-0.3512135,-1.8470067,-1.4194387,-4.742632
0.31368873,0.084044866,-0.34028,-1.7895081,-1.3752506,-4.5949907
0.30392346,0.08142851,-0.32968694,-1.7337999,-1.3324385,-4.4519467
0.29446223,0.07889363,-0.31942374,-1.6798264,-1.2909594,-4.313357
0.28529564,0.07643767,-0.30948007,-1.6275334,-1.2507719,-4.179082
0.27641445,0.07405818,-0.29984602,-1.5768687,-1.2118355,-4.048988
0.26780978,0.07175278,-0.29051194,-1.5277814,-1.1741116,-3.9229445
0.259473,0.069519155,-0.28146845,-1.4802225,-1.1375622,-3.8008256
0.2513958,0.067355074,-0.27270654,-1.4341441,-1.1021507,-3.6825087
0.24357007,0.06525838,-0.26421744,-1.3895005,-1.0678418,-3.5678754
0.23598799,0.063226946,-0.25599262,-1.3462468,-1.034601,-3.4568112
0.22864197,0.061258767,-0.24802387,-1.3043398,-1.002395,-3.3492048
0.22152464,0.05935186,-0.24030322,-1.2637373,-0.97119176,-3.2449484
0.21462889,0.057504322,-0.23282292,-1.224399,-0.94095993,-3.1439378
0.20794782,0.0557143,-0.22557549,-1.1862854,-0.9116693,-3.0460718
0.20147476,0.053980008,-0.2185537,-1.1493583,-0.8832905,-2.9512527
0.1952032,0.052299704,-0.2117505,-1.1135807,-0.85579526,-2.8593853
0.18912688,0.050671708,-0.2051591,-1.078917,-0.8291559,-2.7703779
0.18323971,0.049094398,-0.19877289,-1.0453324,-0.8033459,-2.6841414
0.17753583,0.047566187,-0.1925855,-1.0127933,-0.7783393,-2.6005893
0.17200951,0.04608555,-0.18659072,-0.98126715,-0.7541113,-2.5196385
0.16665523,0.044651005,-0.18078254,-0.9507224,-0.73063743,-2.4412076
0.16146763,0.043261122,-0.17515518,-0.9211286,-0.70789427,-2.3652182
0.15644151,0.0419145,-0.169703,-0.89245594,-0.68585914,-2.2915943
0.15157185,0.0406098,-0.16442055,-0.8646759,-0.66450995,-2.2202623
0.14685379,0.039345715,-0.15930253,-0.83776057,-0.64382535,-2.151151
0.14228259,0.03812098,-0.15434384,-0.8116832,-0.62378466,-2.0841908
0.13785368,0.03693437,-0.1495395,-0.7864175,-0.60436785,-2.0193152
0.13356265,0.035784695,-0.14488472,-0.76193833,-0.5855554,-1.9564592
