ax,ay,az,gx,gy,gz
-3.7363977,0.56545967,-6.799153,22.416569,41.837654,-48.717716
-4.2703276,0.5376056,-7.542845,24.677134,12.597516,-67.12044
-4.86517,0.39618638,-8.11296,19.207184,-16.504065,-75.311905
-4.9077253,0.15157793,-8.325707,15.057894,-39.478756,-76.971725
-4.4963923,-0.36449614,-8.498607,13.977654,-58.291714,-72.490524
-3.9430947,-1.1451954,-8.764614,14.492717,-75.70477,-62.28186
-3.507335,-1.9871156,-9.136474,19.802782,-94.26577,-46.41475
-3.2421381,-2.7379534,-9.635935,25.498228,-114.21975,-28.701199
-3.0207574,-3.3027833,-10.049218,30.824686,-135.96935,-9.554817
-2.7086506,-3.669743,-10.276774,35.74894,-157.86975,9.9845495
-2.3100247,-3.8335583,-10.299274,41.45506,-178.00874,28.295834
-1.852894,-3.6154566,-10.086022,45.93941,-195.92139,43.836414
-1.2904549,-3.0605083,-9.56053,48.38261,-211.00162,54.937504
-0.54584664,-2.441343,-8.792493,49.396652,-221.85638,61.15952
0.44769037,-1.834402,-7.7947392,48.920685,-227.89336,62.997482
1.6463354,-1.285605,-6.5747914,47.5834,-228.40865,61.163486
2.9305353,-0.83636236,-5.1798244,47.262863,-219.40056,56.53338
4.1414742,-0.4431174,-3.7474406,46.66915,-204.91345,51.75978
5.1355247,-0.054656416,-2.4678047,45.319836,-186.53835,48.04799
5.8431444,0.35870078,-1.4604268,42.944855,-166.57443,44.771717
6.250931,0.74904704,-0.74298954,39.427002,-146.63979,41.41153
6.431371,1.0694928,-0.2654055,34.292774,-126.765884,37.729485
6.4311013,1.2669504,-0.026356656,29.09595,-107.1759,33.847134
6.3748994,1.3726696,0.077086754,24.125849,-87.342674,29.778856
6.287103,1.3967558,0.0537228,19.665546,-67.36154,25.822853
6.1413565,1.3685232,-0.1090822,16.256685,-47.918266,21.510126
5.901661,1.2928991,-0.38536498,13.999399,-30.142397,16.672045
5.593751,1.1934594,-0.73098344,12.075489,-14.480008,12.046921
5.280127,1.0822916,-1.0772179,10.753794,-0.86156744,8.084916
4.963759,0.9703537,-1.4326526,9.807921,10.508947,4.953958
4.6610675,0.8617906,-1.775831,9.389095,19.906738,2.8276765
4.356344,0.7719983,-2.1387439,10.715678,26.2243,1.1679002
4.0193963,0.7307771,-2.5146682,12.299589,29.940449,-0.83296907
3.7092297,0.7044244,-2.854149,14.037176,31.757362,-3.0969825
3.4397435,0.6839418,-3.163854,15.3953905,32.003136,-5.6148615
3.2197824,0.6447155,-3.4444737,16.266985,31.022646,-7.868899
3.0486066,0.5935526,-3.688637,16.799032,29.33219,-9.360352
2.8808606,0.564569,-3.929734,17.345926,27.376083,-10.789686
2.703304,0.5601505,-4.173194,18.30406,24.945757,-12.560734
2.5202813,0.6080827,-4.4207735,19.25506,21.335337,-14.958139
2.3313138,0.68881834,-4.6529684,19.751219,16.174173,-17.640684
2.11396,0.81480396,-4.8956013,18.766874,7.9070387,-20.837128
1.8703403,0.96960324,-5.1118555,16.265524,-1.9391118,-24.185196
1.6269977,1.1376103,-5.322954,12.716735,-13.484742,-28.24686
1.3566855,1.326594,-5.534431,9.167615,-26.704218,-34.173363
1.095551,1.5039716,-5.6909647,5.567921,-40.84784,-41.963898
0.9216405,1.621672,-5.7771177,3.2732682,-55.219116,-51.234303
0.9464845,1.6718953,-5.75115,2.2608554,-69.423256,-60.209797
1.1617059,1.6662732,-5.6248937,0.5772797,-82.76959,-67.3881
1.5911844,1.557227,-5.3658667,-1.1536574,-94.14057,-72.07503
2.2177637,1.3872001,-4.9941287,-2.032872,-102.15369,-74.366455
3.0179515,1.2013954,-4.5587945,-1.9646451,-104.659584,-74.77529
3.887308,1.0108278,-4.083117,-2.0458364,-102.943275,-73.79428
4.6770205,0.7943266,-3.6377256,-2.432554,-97.92944,-70.598656
5.2974014,0.5671595,-3.2746887,-2.4591372,-91.23785,-65.26538
5.740993,0.35719934,-2.9749143,-2.3457398,-83.537704,-58.31762
6.060619,0.17376967,-2.7132976,-2.368964,-74.5408,-49.798782
6.264413,-0.014142348,-2.5067532,-1.6732302,-64.25872,-40.4796
6.376325,-0.15876564,-2.3828132,-0.077218734,-52.953182,-30.626877
6.39309,-0.22685045,-2.348227,3.4283063,-41.538425,-21.122267
6.2984333,-0.18885103,-2.3891473,6.711086,-31.31325,-13.055088
6.130827,-0.13390963,-2.436378,9.487423,-22.490063,-6.668331
5.9344025,-0.10980318,-2.4614124,12.064655,-14.232052,-1.0717145
5.73796,-0.093300655,-2.4806488,14.584365,-6.4521494,4.054086
5.543339,-0.069964625,-2.4992247,17.117723,1.0036994,9.023531
5.3441553,-0.02270118,-2.5498855,19.976149,7.822877,13.645007
5.1224422,0.058370706,-2.6270287,22.455858,13.534221,17.438658
4.8537054,0.14438204,-2.7424505,24.566742,17.916279,20.315344
4.5669513,0.21115042,-2.8616257,26.199282,21.073065,22.647
4.284754,0.27750224,-2.9760478,27.621492,23.33212,24.748823
4.0189633,0.3663192,-3.0846834,28.654295,24.754114,26.5416
3.7811651,0.452189,-3.186535,29.266636,25.449703,27.976007
3.5556414,0.5209309,-3.2922912,30.04091,25.643572,29.26999
3.3273654,0.6149058,-3.3935175,31.000685,25.198078,30.153551
3.102211,0.75141364,-3.483216,32.193855,24.00346,30.308159
2.8873038,0.9308587,-3.5502963,33.274563,21.95368,29.551872
2.698913,1.1413417,-3.5757039,33.799065,19.046537,27.849712
2.5521502,1.3971207,-3.5307708,33.681923,15.7559,25.79813
2.4290504,1.6997268,-3.436871,32.503544,12.250394,23.402868
2.3096194,2.0400522,-3.3167522,30.11056,8.444628,20.057528
2.208064,2.379029,-3.1709614,26.38348,4.440629,15.662666
2.1272519,2.7055738,-3.0122387,20.94155,0.39462823,9.468792
2.069958,2.9414008,-2.846885,14.459149,-2.937609,2.129986
2.0300014,3.0261455,-2.6874344,9.075113,-4.961734,-5.3206306
2.0319178,2.995413,-2.575632,4.2872996,-6.1309357,-12.350446
2.0681887,2.8693566,-2.4917402,0.12213982,-6.6724477,-18.283457
2.122226,2.6798797,-2.441628,-3.2951849,-6.6584363,-22.690022
2.1743844,2.4221618,-2.4462507,-5.9258156,-6.4495726,-26.165436
2.2334423,2.1399133,-2.4688802,-7.789562,-6.147841,-29.055643
2.3018737,1.8284017,-2.4871862,-9.031685,-5.7658176,-31.199806
2.3768103,1.4939485,-2.4893105,-9.687544,-5.3404737,-32.05988
2.4298937,1.1632104,-2.4823804,-9.451074,-4.922854,-30.973751
2.4251392,0.89043295,-2.4656527,-8.710076,-4.6101766,-28.89417
2.3492522,0.8625697,-2.388498,-8.437522,-4.465916,-27.99002
2.2757638,0.8355871,-2.313782,-8.173583,-4.326215,-27.114447
2.2045956,0.80945647,-2.241425,-7.9179773,-4.1909246,-26.26652
2.135673,0.7841503,-2.171351,-7.670436,-4.059903,-25.445343
2.0689228,0.75964177,-2.1034856,-7.430698,-3.9330113,-24.650055
2.0042753,0.7359053,-2.037758,-7.198511,-3.8101168,-23.879814
1.9416625,0.7129159,-1.9740994,-6.9736323,-3.6910903,-23.13382
1.8810194,0.6906497,-1.912443,-6.7558274,-3.5758078,-22.41129
1.8222823,0.66908336,-1.8527248,-6.544869,-3.464149,-21.71147
1.7653905,0.64819455,-1.7948827,-6.340538,-3.355998,-21.033638
1.7102851,0.6279616,-1.7388567,-6.1426225,-3.2512429,-20.377087
1.6569089,0.60836357,-1.6845888,-5.9509172,-3.149775,-19.741138
1.6052068,0.5893802,-1.632023,-5.7652254,-3.0514898,-19.12514
1.5551257,0.57099205,-1.5811052,-5.5853553,-2.956286,-18.52845
1.5066141,0.5531801,-1.5317831,-5.411122,-2.8640654,-17.95046
1.4596219,0.5359261,-1.4840059,-5.242346,-2.7747335,-17.390575
1.4141012,0.5192124,-1.4377248,-5.0788546,-2.688199,-16.848223
1.3700054,0.50302184,-1.3928922,-4.920481,-2.604373,-16.322845
1.3272892,0.48733783,-1.3494625,-4.7670627,-2.5231698,-15.813907
1.2859093,0.47214445,-1.3073914,-4.6184435,-2.444507,-15.320888
1.2458234,0.4574262,-1.2666358,-4.4744716,-2.3683035,-14.843286
1.2069906,0.44316804,-1.2271543,-4.3350005,-2.2944827,-14.380615
1.1693715,0.4293555,-1.1889067,-4.1998887,-2.2229688,-13.9324045
1.1329278,0.41597456,-1.1518542,-4.0689983,-2.1536896,-13.4981985
1.0976225,0.40301162,-1.115959,-3.9421968,-2.0865746,-13.077556
1.0634199,0.39045352,-1.0811851,-3.8193555,-2.0215557,-12.670052
1.0302852,0.37828755,-1.0474969,-3.70035,-1.9585669,-12.27527
0.9981851,0.3665014,-1.0148605,-3.5850596,-1.8975446,-11.892816
0.9670869,0.35508314,-0.98324275,-3.473368,-1.8384271,-11.522297
0.9369592,0.34402123,-0.95261174,-3.365162,-1.7811545,-11.163342
0.9077716,0.33330446,-0.92293656,-3.2603323,-1.7256689,-10.815589
0.87949455,0.32292205,-0.89418715,-3.1587732,-1.6719146,-10.478683
0.85209966,0.31286353,-0.86633456,-3.0603824,-1.6198369,-10.152288
0.82555914,0.3031187,-0.8393507,-2.96506,-1.5693836,-9.836074
0.79984635,0.2936778,-0.81320834,-2.8727105,-1.5205038,-9.52972
0.77493536,0.2845313,-0.7878812,-2.7832408,-1.473148,-9.23292
0.7508011,0.27566996,-0.76334375,-2.6965606,-1.4272689,-8.945374
0.7274192,0.26708487,-0.7395712,-2.6125827,-1.38282,-8.666791
0.70476615,0.25876743,-0.7165398,-2.5312226,-1.3397567,-8.3968935
0.68281925,0.2507092,-0.6942262,-2.4523985,-1.2980357,-8.135407
0.66155636,0.24290217,-0.67260814,-2.3760312,-1.2576151,-7.8820724
0.6409561,0.23533843,-0.6516637,-2.302044,-1.2184542,-7.6366324
0.62099785,0.2280104,-0.63137203,-2.2303622,-1.1805136,-7.3988404
0.60166144,0.2209107,-0.61171263,-2.160914,-1.1437553,-7.1684585
0.5829276,0.21403222,-0.5926658,-2.0936298,-1.1081423,-6.945255
0.5647774,0.20736805,-0.5742124,-2.028442,-1.0736388,-6.7290053
0.54719263,0.2009115,-0.5563339,-1.9652851,-1.0402104,-6.519493
0.5301557,0.19465609,-0.5390123,-1.9040955,-1.0078232,-6.316508
0.5136495,0.18859555,-0.5222304,-1.8448123,-0.976445,-6.1198454
0.49765745,0.18272378,-0.5059712,-1.7873756,-0.9460442,-5.9293094
0.48216355,0.17703491,-0.49021843,-1.731728,-0.91659033,-5.744708
0.4671522,0.17152324,-0.47495633,-1.6778135,-0.8880539,-5.5658565
0.45260844,0.16618323,-0.46016958,-1.6255784,-0.8604062,-5.3925753
0.4385176,0.16100954,-0.44584334,-1.5749701,-0.83361965,-5.224691
0.4248656,0.15599696,-0.4319633,-1.5259379,-0.80766726,-5.062035
0.41163877,0.1511405,-0.41851547,-1.4784328,-0.7825231,-4.9044447
0.39882383,0.14643526,-0.40548646,-1.4324069,-0.758162,-4.751762
0.38640797,0.14187655,-0.39286318,-1.3878143,-0.7345595,-4.603834
0.37437874,0.1374598,-0.380633,-1.3446103,-0.711692,-4.460512
0.36272407,0.13318059,-0.36878362,-1.3027518,-0.6895365,-4.3216534
0.3514323,0.12903462,-0.35730323,-1.2621965,-0.668071,-4.1871185
0.34049216,0.12501775,-0.34618032,-1.2229041,-0.6472738,-4.0567727
0.32989264,0.121125944,-0.3354037,-1.1848351,-0.62712413,-3.9304855
0.31962314,0.11735532,-0.32496268,-1.1479515,-0.6076019,-3.8081303
0.3096734,0.11370209,-0.31484672,-1.1122161,-0.5886875,-3.6895847
0.30003345,0.11016261,-0.30504572,-1.0775934,-0.570362,-3.57473
0.2906936,0.10673333,-0.29554987,-1.0440488,-0.55260706,-3.4634514
0.28164458,0.10341082,-0.28634965,-1.0115485,-0.53540486,-3.355637
0.27287728,0.10019174,-0.2774359,-0.98006004,-0.51873827,-3.2511797
0.26438293,0.09707289,-0.26879963,-0.94955194,-0.50259054,-3.1499743
0.25615305,0.094051145,-0.26043227,-0.91999364,-0.48694557,-3.0519197
0.24817936,0.09112346,-0.2523254,-0.8913555,-0.47178766,-2.9569178
0.24045391,0.08828693,-0.24447088,-0.863609,-0.45710164,-2.8648734
0.23296899,0.0855387,-0.2368609,-0.83672625,-0.4428728,-2.7756946
0.22571707,0.082876034,-0.22948784,-0.81068045,-0.42908695,-2.6892922
0.2186909,0.080296256,-0.2223443,-0.78544545,-0.41573027,-2.6055794
0.21188349,0.07779679,-0.21542315,-0.76099604,-0.40278938,-2.5244727
0.20528798,0.075375125,-0.20871745,-0.7373078,-0.39025134,-2.445891
0.19889778,0.073028855,-0.20222051,-0.7143569,-0.37810364,-2.3697555
0.19270653,0.07075562,-0.19592583,-0.6921205,-0.36633408,-2.29599
0.186708,0.068553165,-0.1898271,-0.67057633,-0.35493094,-2.224521
0.18089621,0.06641926,-0.18391821,-0.64970285,-0.34388274,-2.1552768
0.17526534,0.06435178,-0.17819327,-0.6294791,-0.3331785,-2.0881882
0.16980974,0.062348668,-0.17264654,-0.6098849,-0.32280743,-2.0231879
0.16452399,0.060407907,-0.16727248,-0.5909007,-0.31275922,-1.9602109
0.15940277,0.05852756,-0.1620657,-0.57250744,-0.30302382,-1.8991945
0.15444097,0.056705747,-0.15702102,-0.5546868,-0.29359147,-1.8400774
