ax,ay,az,gx,gy,gz
7.481886,-3.801853,2.9191175,45.610416,-18.200167,-0.38818532
7.519581,-3.7480822,2.4902413,40.97848,-4.642696,2.036167
7.407578,-3.6301,1.8014967,30.181353,0.50685483,3.981895
7.5175996,-3.525053,1.587658,14.335603,5.2238436,11.778064
7.8546805,-3.445133,1.8428446,6.5937157,13.875429,19.81085
8.265314,-3.3770945,2.1554806,9.542792,27.457445,26.461418
8.576557,-3.1976728,2.324544,18.042088,43.09558,31.84032
8.789239,-2.9238884,2.3841667,26.558817,58.95665,37.787155
8.914679,-2.5101762,2.391006,33.41284,76.3862,44.881622
8.910331,-1.9478327,2.27416,39.217445,94.24644,49.31894
8.776357,-1.4161792,2.026779,43.586697,111.52415,51.208794
8.565681,-0.9593796,1.7325848,47.072308,128.51285,52.186825
8.20584,-0.4961477,1.2771927,47.971508,142.21042,52.52923
7.676738,-0.05658417,0.7419828,46.17092,150.5591,52.773724
7.0115867,0.36183026,0.23213157,43.450512,155.28491,52.361027
6.3443666,0.7762123,-0.20820458,39.923107,157.4319,51.063057
5.703695,1.1263427,-0.589554,35.743183,157.5702,48.93402
5.094406,1.4217548,-0.92068434,31.538439,156.3534,46.391296
4.4874806,1.6860434,-1.2343469,27.46615,153.09303,43.058693
3.8773193,1.9366329,-1.5138726,23.720707,148.51929,39.00182
3.2845528,2.173516,-1.783521,19.769812,142.31294,34.095352
2.720743,2.3435473,-2.0348706,15.456147,134.43994,28.683521
2.2068799,2.40923,-2.2477822,11.279221,125.59488,23.238037
1.742492,2.3678386,-2.423695,7.3887434,115.51982,17.655027
1.3554438,2.1273298,-2.5761883,4.2449374,105.068924,12.08131
1.0302955,1.7169012,-2.702631,2.5279694,94.479355,6.9493046
0.78911686,1.1707265,-2.806075,2.8895836,84.49516,3.187364
0.653938,0.5774616,-2.8979917,5.0210958,74.41759,1.1751875
0.675042,0.04379394,-2.9060879,8.258593,65.22798,2.3546565
0.8642417,-0.35612452,-2.780611,11.658032,57.588512,5.7353554
1.1070888,-0.57818615,-2.5786467,14.843003,52.11456,10.588755
1.3198484,-0.6068237,-2.349134,17.852491,48.367397,15.164578
1.479617,-0.46992004,-2.125453,20.550425,45.872334,18.541658
1.5876392,-0.21308611,-1.9199024,22.321276,44.07919,20.213675
1.6634983,0.12078317,-1.7074391,23.253502,42.63995,21.073654
1.733968,0.4767215,-1.49722,23.461655,41.749992,21.414389
1.7907406,0.81921345,-1.3025023,23.142183,41.387505,21.158466
1.8219929,1.1448234,-1.1485128,22.229414,41.339386,20.283358
1.8151567,1.4414929,-1.0459478,20.652369,41.329693,18.527866
1.773466,1.680103,-0.99877995,18.729984,41.211082,16.189932
1.7052739,1.8512434,-0.98893994,16.546967,40.80181,13.135408
1.6207519,1.9468669,-1.0068418,13.915072,39.96437,9.6800785
1.5222954,1.9586419,-1.0455722,10.906915,38.734234,6.07807
1.3907968,1.8893834,-1.104383,7.9949203,37.064526,2.3891687
1.1945536,1.7048451,-1.1886519,5.572404,35.2054,-1.2214633
0.96515024,1.4467282,-1.3063271,3.9746935,33.09332,-4.40499
0.71117663,1.1330221,-1.4607402,2.9758813,30.173016,-6.888414
0.46998817,0.7511491,-1.6236639,2.9136004,26.025309,-8.854386
0.3157797,0.33382878,-1.7426989,3.9504583,20.686834,-9.295418
0.30914187,-0.039759383,-1.7575932,5.856928,16.039173,-7.8938584
0.34761992,-0.301154,-1.7514011,8.537238,12.227175,-4.9103475
0.33595318,-0.2910467,-1.6926209,8.250713,11.81681,-4.7455473
0.32472992,-0.28132367,-1.6360753,7.9750805,11.422043,-4.587012
0.31392854,-0.2719661,-1.581655,7.709808,11.042115,-4.434436
0.30352882,-0.2629565,-1.5292585,7.4544,10.676316,-4.2875333
0.29351196,-0.25427857,-1.4787908,7.2083945,10.323982,-4.1460385
0.2838603,-0.24591704,-1.4301633,6.9713583,9.984496,-4.009703
0.27455738,-0.23785764,-1.3832927,6.742887,9.657275,-3.8782938
0.26558775,-0.23008694,-1.3381013,6.5226,9.341777,-3.7515917
0.2569368,-0.22259237,-1.2945155,6.310141,9.037489,-3.629392
0.2485909,-0.21536206,-1.2524667,6.105173,8.743931,-3.5115008
0.24053717,-0.20838486,-1.2118899,5.9073806,8.460649,-3.397737
0.23276344,-0.20165023,-1.1727238,5.7164645,8.187216,-3.2879283
0.22525825,-0.19514824,-1.1349106,5.5321436,7.9232283,-3.1819127
0.21801072,-0.18886949,-1.0983957,5.354151,7.668304,-3.079537
0.21101059,-0.18280506,-1.0631272,5.182234,7.422082,-2.9806557
0.20424813,-0.17694652,-1.0290561,5.016154,7.184219,-2.8851316
0.19771408,-0.17128587,-0.9961358,4.855683,6.95439,-2.792834
0.19139965,-0.16581549,-0.96432203,4.7006063,6.732287,-2.703639
0.1852965,-0.16052815,-0.93357277,4.550719,6.5176153,-2.6174283
0.1793967,-0.15541697,-0.90384805,4.4058247,6.310096,-2.53409
0.17369269,-0.15047538,-0.8751097,4.265739,6.1094623,-2.453517
0.1681772,-0.14569716,-0.8473212,4.130284,5.915461,-2.3756075
0.1628434,-0.14107631,-0.8204481,3.99929,5.72785,-2.3002641
0.15768468,-0.13660716,-0.79445714,3.8725965,5.546397,-2.227394
0.15269476,-0.13228424,-0.7693166,3.7500486,5.370882,-2.1569085
0.14786765,-0.12810236,-0.7449963,3.6314988,5.201093,-2.0887225
0.14319757,-0.12405652,-0.72146714,3.5168056,5.0368276,-2.0227544
0.138679,-0.120141946,-0.69870144,3.4058337,4.877892,-1.958927
0.13430668,-0.11635407,-0.6766726,3.2984536,4.7241,-1.8971653
0.13007554,-0.1126885,-0.655355,3.1945405,4.575274,-1.8373978
0.12598072,-0.10914102,-0.63472414,3.093975,4.431243,-1.7795559
0.12201754,-0.10570761,-0.61475664,2.996643,4.2918425,-1.7235736
0.11818154,-0.10238436,-0.59542984,2.9024343,4.1569147,-1.6693877
0.114468396,-0.09916755,-0.576722,2.8112428,4.026309,-1.6169373
0.11087398,-0.096053585,-0.5586124,2.7229671,3.8998787,-1.5661639
0.1073943,-0.093039036,-0.5410809,2.637509,3.7774847,-1.5170112
0.10402553,-0.09012056,-0.5241081,2.554775,3.6589916,-1.4694252
0.10076397,-0.08729497,-0.5076755,2.4746742,3.5442696,-1.4233537
0.097606085,-0.084559195,-0.49176526,2.3971193,3.4331942,-1.3787465
0.094548434,-0.08191026,-0.47636002,2.322026,3.3256445,-1.3355554
0.09158774,-0.079345316,-0.46144322,2.2493138,3.221505,-1.2937337
0.0887208,-0.0768616,-0.44699886,2.1789045,3.1206634,-1.2532364
0.08594457,-0.07445646,-0.43301144,2.1107228,3.0230122,-1.2140204
0.08325608,-0.07212734,-0.41946614,2.0446959,2.9284475,-1.1760439
0.08065248,-0.06987176,-0.40634853,1.9807538,2.8368685,-1.1392665
0.07813103,-0.06768735,-0.39364478,1.9188291,2.748179,-1.1036493
0.075689055,-0.06557179,-0.3813415,1.8588564,2.662285,-1.069155
0.073324,-0.063522875,-0.3694257,1.8007728,2.5790968,-1.035747
0.071033396,-0.061538443,-0.357885,1.7445174,2.4985268,-1.0033908
0.06881483,-0.059616435,-0.3467073,1.6900315,2.4204912,-0.9720522
0.06666601,-0.057754844,-0.33588096,1.6372583,2.3449087,-0.9416988
0.064584695,-0.055951733,-0.32539475,1.586143,2.2717004,-0.9122989
0.062568724,-0.05420524,-0.3152378,1.5366327,2.200791,-0.88382214
0.06061602,-0.05251355,-0.30539954,1.488676,2.1321065,-0.85623896
0.058724564,-0.050874922,-0.2958699,1.4422234,2.0655766,-0.82952094
0.056892406,-0.04928767,-0.28663898,1.3972273,2.0011322,-0.8036406
0.055117663,-0.047750153,-0.27769735,1.3536412,1.9387075,-0.77857125
0.053398516,-0.0462608,-0.26903582,1.3114203,1.8782381,-0.7542872
0.051733196,-0.04481808,-0.2606455,1.2705215,1.8196622,-0.7307635
0.05012,-0.04342052,-0.25251782,1.2309029,1.7629197,-0.70797616
0.04855728,-0.04206669,-0.24464443,1.192524,1.7079527,-0.68590176
0.047043446,-0.040755205,-0.23701732,1.1553456,1.6547052,-0.66451794
0.045576952,-0.039484736,-0.22962873,1.1193297,1.6031226,-0.64380276
0.044156298,-0.03825398,-0.22247112,1.0844398,1.5531527,-0.6237352
0.04278005,-0.03706169,-0.21553719,1.0506402,1.5047444,-0.6042948
0.0414468,-0.035906658,-0.20881994,1.0178968,1.4578488,-0.5854618
0.040155202,-0.034787703,-0.20231251,0.98617625,1.4124181,-0.5672172
0.03890394,-0.033703696,-0.19600834,0.9554464,1.3684063,-0.5495423
0.03769175,-0.03265354,-0.189901,0.9256761,1.3257687,-0.5324194
0.036517404,-0.031636167,-0.18398432,0.89683515,1.2844623,-0.515831
0.03537971,-0.030650549,-0.17825234,0.86889446,1.2444452,-0.49976042
0.034277525,-0.02969569,-0.17269924,0.8418258,1.2056769,-0.48419136
0.033209734,-0.028770627,-0.16731942,0.8156017,1.1681184,-0.4691081
0.03217525,-0.027874425,-0.16210742,0.79019576,1.1317315,-0.45449543
0.031173041,-0.02700618,-0.15705802,0.7655824,1.0964798,-0.44033858
0.030202089,-0.026165012,-0.15216611,0.74173665,1.0623276,-0.42662328
0.029261418,-0.025350079,-0.14742675,0.7186346,1.0292405,-0.4133357
0.02835008,-0.024560558,-0.1428352,0.6962529,0.99718505,-0.40046248
0.027467154,-0.023795653,-0.13838679,0.6745691,0.96612906,-0.38799062
0.026611757,-0.023054594,-0.13407706,0.65356123,0.9360413,-0.3759076
0.025783023,-0.022336638,-0.12990169,0.6332083,0.90689147,-0.36420122
0.024980122,-0.021641059,-0.12585646,0.61348975,0.8786502,-0.35285974
0.024202244,-0.02096716,-0.121937305,0.59438574,0.85128915,-0.34187174
0.023448609,-0.020314261,-0.118140295,0.57587713,0.8247808,-0.33122617
0.02271846,-0.01968171,-0.11446161,0.5579453,0.79909855,-0.32091236
0.022011062,-0.019068869,-0.11089755,0.5405722,0.7742166,-0.3109199
0.021325706,-0.018475125,-0.10744454,0.5237405,0.75010985,-0.30123883
0.020661702,-0.017899876,-0.10409912,0.5074332,0.72675425,-0.2918594
0.020018386,-0.017342553,-0.10085791,0.49163386,0.70412624,-0.28277212
0.01939511,-0.016802588,-0.09771769,0.47632676,0.6822031,-0.27396798
0.018791249,-0.016279446,-0.09467529,0.4614965,0.660963,-0.26543808
0.0182062,-0.0157726,-0.09172765,0.4471282,0.64038444,-0.2571739
0.017639374,-0.01528154,-0.08887183,0.43320745,0.6204469,-0.24916711
0.017090203,-0.014805776,-0.08610496,0.4197203,0.60113037,-0.24140973
0.016558135,-0.014344829,-0.08342426,0.4066532,0.58241546,-0.23389395
0.016042639,-0.013898239,-0.08082706,0.39399305,0.56428343,-0.22661224
0.015543197,-0.013465557,-0.078310736,0.38172722,0.5467161,-0.21955732
0.01505931,-0.01304635,-0.07587279,0.36984333,0.5296958,-0.21272211
0.014590491,-0.012640198,-0.07351075,0.35832956,0.5132056,-0.20609975
0.014136272,-0.012246693,-0.07122227,0.34717435,0.4972289,-0.1996836
0.013696196,-0.011865442,-0.06900506,0.33636647,0.48174968,-0.19346727
0.013269824,-0.011496062,-0.06685688,0.32589516,0.4667525,-0.18744451
0.012856728,-0.011138185,-0.0647756,0.3157499,0.4522223,-0.18160929
0.012456496,-0.010791452,-0.062759124,0.30592054,0.4381445,-0.17595574
0.012068725,-0.010455513,-0.06080543,0.29639724,0.42450508,-0.17047824
0.011693029,-0.010130036,-0.058912568,0.28717047,0.41129032,-0.1651713
0.01132903,-0.009814692,-0.057078645,0.27823097,0.398487,-0.16002958
0.010976363,-0.009509166,-0.05530182,0.26956978,0.38608235,-0.15504795
0.010634677,-0.009213152,-0.053580314,0.26117828,0.37406388,-0.15022142
0.010303629,-0.008926355,-0.051912405,0.25304803,0.3624196,-0.14554515
0.009982888,-0.008648487,-0.050296426,0.2451709,0.35113785,-0.14101449
0.009672132,-0.008379269,-0.048730757,0.23753902,0.34020734,-0.13662487
0.009371052,-0.008118434,-0.047213834,0.23014474,0.32961714,-0.13237192
0.009079344,-0.007865719,-0.045744132,0.22298066,0.31935662,-0.12825137
0.008796718,-0.007620871,-0.04432019,0.21603961,0.30941555,-0.1242591
0.0085228905,-0.007383646,-0.042940576,0.20931466,0.29978395,-0.12039112
0.008257587,-0.007153806,-0.041603908,0.20279907,0.29045218,-0.116643555
0.008000544,-0.006931121,-0.040308855,0.1964863,0.28141096,-0.11301266
0.0077515026,-0.0067153685,-0.039054118,0.19037005,0.27265117,-0.10949479
0.0075102136,-0.0065063327,-0.037838444,0.18444422,0.2641641,-0.10608643
0.007276437,-0.006303804,-0.03666061,0.17870286,0.2559412,-0.10278419
0.007049937,-0.0061075804,-0.035519443,0.17314023,0.2479743,-0.099584736
0.006830488,-0.005917465,-0.034413803,0.16775075,0.24025543,-0.096484885
0.0066178706,-0.005733268,-0.03334258,0.16252905,0.23277682,-0.09348153
0.006411872,-0.0055548046,-0.032304704,0.15746991,0.22553103,-0.09057167
0.0062122857,-0.0053818966,-0.031299137,0.15256825,0.21851079,-0.087752394
0.0060189124,-0.0052143717,-0.030324873,0.14781918,0.21170908,-0.08502088
0.0058315587,-0.0050520613,-0.029380934,0.14321794,0.20511912,-0.082374394
0.0056500374,-0.0048948037,-0.028466381,0.13875993,0.19873428,-0.079810284
