ax,ay,az,gx,gy,gz
2.914572,-2.858208,-1.2618296,-92.16357,-94.32813,-2.3863854
2.3077571,-3.8720305,-1.1118238,-87.248535,-103.73686,-10.84635
1.979499,-4.09145,-0.97065717,-81.77522,-104.92777,-14.698375
1.8616244,-4.383151,-0.95213574,-76.13015,-105.598114,-17.958385
1.9871863,-4.676715,-0.9578309,-62.999874,-105.28358,-18.328854
2.4407632,-4.902987,-0.8547587,-43.645023,-100.21337,-17.952057
2.761648,-4.962649,-0.8720631,-21.831015,-94.88288,-17.741812
2.9731877,-4.937937,-0.90322024,-3.057314,-90.10019,-18.066431
3.1672125,-4.8417077,-0.85440296,10.193611,-85.03474,-17.407682
3.40078,-4.7252994,-0.70012987,20.651682,-77.26132,-14.857182
3.6561882,-4.6032677,-0.50088173,30.174185,-68.21593,-11.063192
3.912133,-4.491935,-0.31798878,39.400658,-57.553787,-6.5396175
4.149014,-4.350847,-0.20198888,47.60844,-45.24818,-2.3260217
4.331516,-4.165053,-0.16813178,54.40364,-33.832565,1.2347676
4.5462503,-3.988665,-0.13524929,60.58538,-22.478764,5.0049496
4.8346343,-3.8434503,-0.011938282,68.001945,-9.272572,10.121166
5.131202,-3.645047,0.096528016,74.78878,5.0042686,16.633692
5.417341,-3.4421842,0.1989572,80.467354,20.692345,24.111076
5.6721864,-3.2542193,0.2179526,86.52096,37.07042,31.559134
5.887511,-3.0694988,0.17645024,92.57639,53.49795,37.973766
6.042992,-2.8690946,0.07416857,98.18543,69.18645,43.42083
6.1525416,-2.5630162,-0.093303554,101.46789,82.342026,47.356617
6.2377167,-2.2481792,-0.22370401,102.13801,93.435394,50.21468
6.279111,-1.9520268,-0.3527329,102.27653,103.44918,52.283024
6.2565985,-1.6679641,-0.5169752,102.341034,112.77046,52.853893
6.142534,-1.3672974,-0.7625414,102.05721,120.568344,52.5188
5.960105,-1.0583979,-1.0449272,101.40832,126.1819,51.330273
5.7444034,-0.7530516,-1.3132977,99.62645,130.16913,49.651768
5.5040464,-0.4521188,-1.5650364,97.381035,132.7484,47.290154
5.23744,-0.14241926,-1.8225228,93.62663,133.30751,44.01666
4.925982,0.17185448,-2.0859413,88.75062,132.25566,40.174034
4.5927796,0.46958247,-2.3275962,82.71807,129.82219,35.745472
4.2578955,0.7259716,-2.51671,76.64497,126.82748,31.261578
3.9217417,0.9375737,-2.6930163,70.825356,123.32347,26.633799
3.5691285,1.0964649,-2.8770168,65.211525,118.40618,21.631565
3.2021604,1.180957,-3.0516672,59.474903,112.352646,16.764791
2.8312683,1.2336452,-3.2276294,52.95702,104.73051,11.968508
2.4616916,1.231902,-3.380605,45.76136,95.805275,7.2786264
2.1284559,1.1275119,-3.4844959,38.900772,86.50672,3.0625737
1.8667382,0.89818937,-3.5301483,35.349186,78.612114,0.08273722
1.6759801,0.5293917,-3.5676157,33.923508,71.51862,-1.8140672
1.5439395,0.109076634,-3.5781758,33.928333,64.968475,-2.160615
1.45842,-0.27340853,-3.5630565,34.636143,58.603878,-1.0962495
1.414564,-0.5874773,-3.5020366,35.56294,52.849262,1.0112028
1.3950489,-0.8151417,-3.407918,36.236603,47.711746,3.8662217
1.4037694,-0.90705025,-3.2592258,36.854435,43.090782,6.9705963
1.4456452,-0.86814904,-3.0886056,37.729088,38.662533,10.067002
1.5440922,-0.7113342,-2.8641741,38.27305,34.826538,12.861796
1.6821712,-0.45803565,-2.607608,38.31246,31.855776,15.018239
1.8274463,-0.14187476,-2.3590672,37.234924,29.418217,15.672046
1.9627115,0.18085743,-2.1121476,35.54681,27.60466,15.260807
2.0757573,0.48167646,-1.8882184,33.33573,26.5512,13.810441
2.1573122,0.75428975,-1.7046053,30.611254,26.11483,11.842243
2.1979156,0.9867198,-1.5807482,27.38014,25.977062,9.387681
2.196759,1.1723102,-1.5164888,23.874899,25.719028,6.28436
2.1705308,1.289488,-1.4931407,20.391935,25.375845,2.9669824
2.1438448,1.3586583,-1.4921825,17.07411,24.872572,-0.43617687
2.1116998,1.3822005,-1.5022378,13.770144,24.257471,-3.9723952
2.0677364,1.3503411,-1.5233672,10.395084,23.62651,-7.421826
2.0003846,1.2737839,-1.5680451,7.092264,22.65413,-10.895819
1.8873662,1.1148876,-1.6478201,3.9772696,21.081627,-14.568466
1.7324293,0.870873,-1.7451158,1.2778007,18.670387,-18.551535
1.5336908,0.51751,-1.8300766,-0.69066167,15.4297,-22.573647
1.3106698,0.08732786,-1.9131666,-1.2076387,11.316937,-25.953009
1.1376472,-0.3810438,-1.9795368,0.36489996,6.3890295,-27.29384
1.1120354,-0.8240515,-1.9944824,3.4888287,1.7312518,-25.782503
1.1417108,-1.1166161,-1.9986652,7.3184752,-2.3497818,-21.447063
1.1823483,-1.2300037,-2.009137,10.753214,-6.1777735,-15.325019
1.2249732,-1.1971403,-2.0016592,14.031555,-9.705558,-8.870744
1.2849534,-1.028518,-1.976894,17.371466,-13.123081,-3.5919425
1.3852819,-0.7404152,-1.8887967,19.943275,-16.135248,0.0729091
1.5178925,-0.44193658,-1.7432429,21.800959,-18.410948,2.313994
1.6468498,-0.16259679,-1.5535673,23.261938,-19.840048,3.521607
1.7554798,0.091303915,-1.3426735,24.512194,-20.339342,3.94613
1.8462883,0.31548664,-1.1344578,25.180012,-19.38177,3.5465586
1.7878627,0.3055031,-1.098558,24.383194,-18.768435,3.434328
1.7313432,0.29584527,-1.0638294,23.612371,-18.175112,3.325759
1.6766624,0.28650162,-1.0302306,22.866625,-17.60109,3.220722
1.6237558,0.27746114,-0.99772197,22.145073,-17.04569,3.119093
1.5725615,0.26871327,-0.96626544,21.446877,-16.508268,3.0207531
1.5230201,0.26024783,-0.93582463,20.771223,-15.988199,2.9255886
1.4750749,0.25205514,-0.9063645,20.117338,-15.484885,2.8334901
1.4286711,0.24412584,-0.8778516,19.484474,-14.997753,2.7443526
1.3837564,0.23645097,-0.8502536,18.87192,-14.526252,2.6580753
1.3402803,0.22902194,-0.8235395,18.278984,-14.069852,2.5745614
1.2981942,0.22183043,-0.79767954,17.705006,-13.628045,2.4937174
1.2574515,0.21486847,-0.7726451,17.14935,-13.200341,2.4154544
1.2180074,0.20812842,-0.74840856,16.611404,-12.786269,2.339686
1.1798187,0.20160289,-0.7249434,16.09058,-12.385376,2.2663288
1.1428438,0.19528475,-0.7022241,15.58631,-11.997225,2.1953032
1.1070427,0.18916719,-0.6802259,15.098047,-11.621395,2.1265323
1.0723766,0.18324359,-0.65892524,14.625265,-11.257482,2.0599418
1.0388085,0.1775076,-0.63829917,14.167457,-10.905093,1.9954603
1.0063022,0.17195305,-0.61832565,13.724132,-10.563853,1.9330187
0.9748234,0.16657408,-0.5989834,13.294818,-10.233398,1.8725507
0.9443386,0.16136496,-0.58025193,12.879061,-9.913378,1.813992
0.91481555,0.15632017,-0.5621114,12.476419,-9.603454,1.7572808
0.88622314,0.1514344,-0.5445427,12.086472,-9.3033,1.7023573
0.85853136,0.14670254,-0.5275274,11.708806,-9.0126,1.6491638
0.83171123,0.14211962,-0.51104766,11.343027,-8.73105,1.5976446
0.8057347,0.13768084,-0.49508625,10.988754,-8.458356,1.547746
0.7805747,0.1333816,-0.47962663,10.645618,-8.194234,1.4994158
0.7562051,0.12921742,-0.46465266,10.313261,-7.93841,1.4526039
0.7326007,0.12518398,-0.45014885,9.99134,-7.6906176,1.4072618
0.709737,0.12127712,-0.43610016,9.679521,-7.4506016,1.3633428
0.6875904,0.11749281,-0.42249215,9.377482,-7.218114,1.3208011
0.6661382,0.11382713,-0.40931073,9.084912,-6.9929147,1.2795932
0.64535815,0.11027633,-0.3965424,8.801511,-6.7747726,1.2396767
0.6252291,0.10683674,-0.38417402,8.526987,-6.5634637,1.2010105
0.6057303,0.10350487,-0.37219292,8.261059,-6.3587713,1.163555
0.5868418,0.100277275,-0.36058685,8.003455,-6.1604857,1.1272719
0.5685444,0.09715068,-0.34934393,7.753911,-5.9684052,1.0921241
0.5508193,0.09412188,-0.3384527,7.5121727,-5.7823324,1.0580758
0.5336485,0.0911878,-0.32790202,7.277994,-5.6020784,1.0250921
0.51701444,0.08834544,-0.3176812,7.051136,-5.4274592,0.99313956
0.50090027,0.08559191,-0.3077798,6.8313684,-5.258298,0.9621857
0.48528963,0.082924426,-0.29818776,6.6184673,-5.094422,0.932199
0.47016662,0.080340266,-0.2888954,6.412217,-4.9356656,0.903149
0.45551595,0.07783681,-0.27989325,6.2124085,-4.781867,0.8750064
0.44132274,0.075411536,-0.27117217,6.018839,-4.632871,0.84774244
0.4275726,0.073061965,-0.2627234,5.8313127,-4.4885263,0.82132965
0.4142517,0.07078574,-0.2545383,5.649639,-4.3486876,0.7957413
0.4013465,0.068580545,-0.24660864,5.4736357,-4.2132125,0.77095157
0.38884398,0.066444166,-0.23892644,5.3031244,-4.081965,0.7469353
0.37673151,0.06437443,-0.23148389,5.1379323,-3.9548123,0.72366834
0.3649969,0.06236927,-0.22427352,4.9778934,-3.8316257,0.7011272
0.35362828,0.06042664,-0.21728803,4.8228464,-3.7122815,0.67928904
0.3426142,0.0585446,-0.2105204,4.6726346,-3.5966592,0.65813196
0.33194357,0.056721244,-0.2039638,4.5271063,-3.4846423,0.63763463
0.32160565,0.054954737,-0.19761163,4.386116,-3.3761177,0.6177764
0.31159002,0.053243306,-0.1914575,4.249521,-3.2709768,0.5985372
0.30188662,0.051585224,-0.1854952,4.117184,-3.1691132,0.5798978
0.29248565,0.049978822,-0.17971875,3.988972,-3.0704248,0.56183934
0.28337768,0.04842249,-0.17412233,3.8647559,-2.9748123,0.54434377
0.27455357,0.04691466,-0.16870032,3.7444112,-2.8821793,0.5273934
0.26600444,0.045453817,-0.16344729,3.6278164,-2.7924333,0.5109713
0.25772172,0.044038493,-0.15835793,3.5148551,-2.7054837,0.4950609
0.24969704,0.042667273,-0.15342715,3.4054134,-2.6212432,0.4796462
0.24192241,0.04133877,-0.14865,3.2993815,-2.5396273,0.46471182
0.23438998,0.040051658,-0.14402167,3.196653,-2.4605544,0.45024267
0.22709222,0.038804643,-0.13953754,3.0971246,-2.3839445,0.4362243
0.22002178,0.037596475,-0.1351931,3.0006967,-2.3097212,0.42264262
0.21317159,0.03642594,-0.13098396,2.9072726,-2.2378101,0.409484
0.20653477,0.035291865,-0.12690595,2.8167584,-2.1681387,0.39673525
0.20010467,0.034193117,-0.12295496,2.7290635,-2.1006374,0.3843836
0.19387484,0.033128586,-0.11912701,2.6441,-2.0352387,0.37241662
0.18783903,0.03209721,-0.11541829,2.5617824,-1.9718766,0.36082235
0.18199119,0.031097956,-0.11182507,2.4820287,-1.9104879,0.3495892
0.17632549,0.03012982,-0.10834376,2.4047587,-1.8510109,0.33870584
0.1708362,0.029191833,-0.10497085,2.329895,-1.7933861,0.32816142
0.16551787,0.028283056,-0.10170298,2.2573624,-1.7375559,0.31794536
0.16036513,0.027402578,-0.09853688,2.1870887,-1.6834642,0.3080474
0.15537286,0.026549518,-0.095469356,2.119003,-1.6310568,0.2984577
0.15053605,0.02572302,-0.092497356,2.0530376,-1.5802813,0.28916657
0.14584982,0.024922257,-0.08961789,1.9891262,-1.5310868,0.28016478
0.14130951,0.024146426,-0.08682809,1.9272047,-1.4834241,0.27144325
0.13691059,0.023394754,-0.084125146,1.8672112,-1.4372454,0.26299328
0.13264862,0.022666484,-0.081506364,1.8090856,-1.3925045,0.2548064
0.12851934,0.02196089,-0.07896912,1.7527698,-1.3491566,0.24687442
0.124518625,0.021277264,-0.07651087,1.6982074,-1.3071584,0.2391894
0.12064247,0.020614922,-0.07412915,1.6453438,-1.2664677,0.23174365
0.116886996,0.0199732,-0.07182159,1.5941259,-1.2270439,0.2245297
0.11324844,0.019351458,-0.06958587,1.5445026,-1.1888474,0.21754035
0.109723166,0.018749071,-0.06741975,1.4964243,-1.1518402,0.21076861
0.10630763,0.01816544,-0.06532107,1.4498427,-1.115985,0.20420769
0.10299844,0.017599978,-0.06328773,1.4047114,-1.0812461,0.19785102
0.09979227,0.01705212,-0.061317682,1.360985,-1.0475887,0.19169223
0.09668591,0.016521316,-0.05940897,1.3186198,-1.0149791,0.1857252
0.093676254,0.016007038,-0.057559676,1.2775737,-0.98338467,0.1799439
0.0907603,0.01550877,-0.055767957,1.2378052,-0.9527738,0.1743426
0.08793511,0.015026013,-0.05403201,1.1992749,-0.92311585,0.16891566
0.08519787,0.014558285,-0.052350108,1.1619439,-0.89438117,0.16365767
0.08254585,0.014105117,-0.05072056,1.1257751,-0.866541,0.15856336
0.07997638,0.013666056,-0.049141742,1.0907322,-0.83956754,0.15362763
0.077486895,0.013240663,-0.04761207,1.0567802,-0.8134337,0.14884555
0.07507491,0.012828512,-0.04613002,1.0238851,-0.7881135,0.14421235
0.07273801,0.012429192,-0.044694103,0.9920141,-0.7635814,0.13972336
0.07047386,0.012042302,-0.043302886,0.96113515,-0.73981297,0.13537411
0.06828018,0.011667455,-0.041954976,0.93121743,-0.7167844,0.13116026
0.06615479,0.011304277,-0.040649027,0.902231,-0.6944728,0.12707758
