ax,ay,az,gx,gy,gz
1.2700115,-2.3400211,-5.3118663,-27.354794,47.108612,-2.5527506
1.2233123,-2.7797902,-6.182435,-25.429966,41.937225,-0.34778023
1.3198379,-3.109164,-7.006691,-24.884796,36.964596,6.8458223
1.6163397,-3.484414,-7.902518,-26.502779,30.933615,19.73817
1.8885574,-3.9440596,-8.824435,-27.620178,23.842644,36.990734
1.9387741,-4.4689837,-9.955983,-24.412954,15.078854,52.716953
1.9406618,-4.9238577,-10.969777,-16.57281,6.7154856,66.28304
1.9187129,-5.136125,-11.781354,-4.565227,-0.09565514,77.45836
1.808456,-4.963201,-12.338157,8.930776,-6.349798,86.069534
1.6266724,-4.5745444,-12.71282,24.572514,-13.406698,92.10592
1.4089051,-3.9621413,-12.861984,40.737446,-20.889362,95.766235
1.2367793,-3.1557355,-12.784965,56.552284,-28.486404,97.39089
1.1230409,-2.1151967,-12.422134,70.65113,-36.43399,97.15281
1.0951107,-0.8550065,-11.711934,81.23784,-43.719826,95.334854
1.0995567,0.35628235,-10.873495,87.25279,-50.285778,92.13337
1.157253,1.4397551,-9.952735,91.129585,-55.974125,87.8725
1.2884058,2.523837,-8.899459,92.65055,-59.959286,82.48723
1.4436198,3.5792158,-7.7590117,91.42875,-62.51273,76.34652
1.5860016,4.5192065,-6.625768,87.593124,-63.720856,69.74968
1.6889272,5.321011,-5.5434155,80.53772,-63.397358,62.566044
1.7390658,5.9789944,-4.546665,71.41839,-62.066757,54.884693
1.7578481,6.4648304,-3.7321472,60.737606,-60.366188,47.066864
1.7705156,6.7405405,-3.1117108,49.29405,-58.59376,39.173958
1.8101647,6.8129416,-2.648696,37.827114,-56.323956,31.121546
1.8622309,6.690317,-2.3309124,27.060778,-53.044956,22.815935
1.9637967,6.327885,-2.189097,17.127794,-49.481472,14.884384
2.116898,5.798191,-2.1663537,7.5045156,-46.112926,8.66549
2.2850337,5.1048894,-2.281359,-1.3902619,-43.466175,4.4463944
2.4656422,4.279618,-2.516946,-8.952787,-41.081806,2.246803
2.6180568,3.3709772,-2.8550043,-14.236849,-38.953876,2.8191426
2.645968,2.4255998,-3.31384,-17.031906,-37.09543,4.8888884
2.5583658,1.535827,-3.8213208,-16.964733,-35.69286,7.6750784
2.3770976,0.7491477,-4.3240876,-14.023865,-35.14622,10.943964
2.1633255,0.11796419,-4.778376,-8.442293,-35.49293,14.247777
1.9700302,-0.31551257,-5.161626,-0.105147354,-36.743233,17.091103
1.8250673,-0.48232916,-5.423291,9.057633,-38.412697,19.466686
1.7252893,-0.4691545,-5.5911736,18.556164,-40.678837,21.47983
1.6758361,-0.30265868,-5.6612015,27.812294,-43.09558,23.163347
1.6655321,0.011618574,-5.6145215,36.34094,-45.52906,24.686893
1.6765555,0.51283914,-5.3957663,42.227516,-47.78553,25.446878
1.6851523,1.1196879,-5.040163,45.432056,-49.67733,25.760859
1.6634808,1.6881834,-4.6855,46.59385,-51.242947,25.6403
1.6164179,2.243445,-4.322878,46.332558,-52.570007,24.711182
1.5660017,2.822217,-3.9202702,44.332424,-53.61987,23.176558
1.505345,3.3933897,-3.512395,39.70021,-54.20411,20.76956
1.3930213,3.866774,-3.170859,33.839043,-54.763855,17.852634
1.2639999,4.2638187,-2.8762703,27.151537,-55.209946,13.994245
1.1461526,4.5800858,-2.6310656,19.737116,-55.476715,9.402887
1.0643209,4.7840014,-2.4504995,11.861991,-55.6787,4.1816435
1.041221,4.82784,-2.3440564,4.223234,-56.03827,-1.3342712
1.1305234,4.6556334,-2.3037167,-2.765945,-56.11212,-6.404755
1.261531,4.3692966,-2.2991617,-8.8737545,-55.79187,-10.921709
1.4174579,4.01918,-2.3142564,-14.188676,-55.255424,-14.700103
1.5802636,3.6325614,-2.3496394,-18.660257,-54.77772,-17.615774
1.7427129,3.238125,-2.385926,-22.33066,-54.27128,-19.464603
1.9130756,2.8291676,-2.4252992,-25.265682,-53.477287,-20.453766
2.0592723,2.432458,-2.4624474,-27.27483,-52.178387,-20.834858
2.1718054,2.07358,-2.4885528,-28.39924,-50.608356,-20.73412
2.2581246,1.7669578,-2.4938598,-28.83733,-48.809433,-20.158445
2.2893252,1.5147153,-2.475298,-28.635595,-46.847786,-19.263266
2.263134,1.3268795,-2.429878,-28.127716,-44.99299,-18.340176
2.2350733,1.1668396,-2.365573,-27.319277,-43.076576,-17.336689
2.2083116,1.0363438,-2.2787478,-26.292358,-41.055187,-16.178705
2.1856985,0.9317981,-2.163774,-25.111994,-38.916637,-14.897375
2.181429,0.8394644,-2.029486,-23.705076,-36.556953,-13.363519
2.1980476,0.76026845,-1.8660029,-22.036558,-33.92115,-11.770313
2.2407663,0.7058423,-1.6714073,-20.279924,-30.981672,-10.062977
2.3102257,0.6616681,-1.4509139,-18.586527,-27.559597,-8.257098
2.4013352,0.6146992,-1.21752,-17.028042,-23.387085,-6.404709
2.4947531,0.55374104,-0.99161667,-15.352385,-18.34213,-4.483916
2.4153206,0.53611004,-0.96004385,-14.863568,-17.758121,-4.3411493
2.338524,0.5190641,-0.92951864,-14.390971,-17.193491,-4.2031198
2.264266,0.50258166,-0.90000254,-13.933998,-16.647526,-4.069653
2.1924539,0.48664206,-0.8714586,-13.492075,-16.119543,-3.9405823
2.1229992,0.47122574,-0.8438516,-13.06466,-15.6088915,-3.8157485
2.0558171,0.45631385,-0.81714803,-12.65123,-15.11495,-3.6949995
1.9908268,0.44188845,-0.7913156,-12.251288,-14.637123,-3.5781898
1.9279507,0.42793232,-0.7663236,-11.864357,-14.174841,-3.4651804
1.8671148,0.41442904,-0.7421425,-11.489981,-13.727557,-3.3558376
1.8082478,0.40136278,-0.718744,-11.127721,-13.29475,-3.2500336
1.7512815,0.38871843,-0.69610095,-10.777158,-12.875918,-3.147646
1.6961505,0.3764814,-0.6741874,-10.437889,-12.470579,-3.0485568
1.6427921,0.36463785,-0.6529785,-10.109528,-12.078273,-2.9526536
1.5911458,0.35317433,-0.63245004,-9.791703,-11.698555,-2.8598278
1.5411537,0.34207797,-0.6125791,-9.484058,-11.330998,-2.769975
1.49276,0.33133638,-0.59334356,-9.18625,-10.975194,-2.682995
1.4459109,0.3209377,-0.574722,-8.897947,-10.630747,-2.5987916
1.4005553,0.31087044,-0.556694,-8.6188345,-10.297279,-2.517272
1.3566431,0.3011236,-0.5392397,-8.348604,-9.974424,-2.438347
1.3141266,0.29168653,-0.52234024,-8.086964,-9.661831,-2.3619306
1.2729597,0.28254905,-0.5059772,-7.833628,-9.359161,-2.2879398
1.2330981,0.27370125,-0.49013296,-7.588325,-9.066087,-2.216295
1.194499,0.2651337,-0.4747905,-7.3507905,-8.782295,-2.146919
1.157121,0.2568372,-0.45993346,-7.120771,-8.507482,-2.0797381
1.1209242,0.2488029,-0.445546,-6.8980217,-8.241353,-2.0146806
1.0858706,0.2410223,-0.43161282,-6.682306,-7.9836283,-1.9516772
1.0519228,0.23348717,-0.41811922,-6.4733953,-7.7340345,-1.8906615
1.0190451,0.22618957,-0.40505096,-6.2710705,-7.4923086,-1.8315692
0.98720306,0.21912183,-0.39239436,-6.0751185,-7.258197,-1.7743382
0.95636326,0.21227656,-0.38013613,-5.8853345,-7.0314536,-1.7189085
0.92649347,0.2056466,-0.36826345,-5.70152,-6.811843,-1.6652225
0.8975627,0.19922505,-0.35676402,-5.5234833,-6.599135,-1.613224
0.8695407,0.19300523,-0.34562582,-5.35104,-6.39311,-1.562859
0.8423986,0.18698071,-0.33483735,-5.184011,-6.193553,-1.5140755
0.8161082,0.18114524,-0.32438743,-5.0222235,-6.000259,-1.4668229
0.79064244,0.1754928,-0.31426528,-4.8655105,-5.8130274,-1.4210522
0.76597506,0.17001757,-0.30446047,-4.7137103,-5.6316657,-1.3767166
0.7420807,0.16471392,-0.2949629,-4.5666676,-5.4559875,-1.3337703
0.7189348,0.1595764,-0.28576285,-4.4242306,-5.2858124,-1.2921692
0.6965136,0.15459974,-0.27685085,-4.286254,-5.1209655,-1.2518709
0.67479426,0.14977887,-0.26821783,-4.152596,-4.961279,-1.2128338
0.65375453,0.14510883,-0.25985494,-4.02312,-4.8065886,-1.1750182
0.6333729,0.14058489,-0.25175363,-3.8976939,-4.656737,-1.1383855
0.61362857,0.1362024,-0.24390565,-3.7761903,-4.5115714,-1.1028984
0.59450155,0.13195692,-0.23630302,-3.658485,-4.370944,-1.0685207
0.5759723,0.12784413,-0.22893798,-3.5444584,-4.2347116,-1.0352173
0.558022,0.12385983,-0.2218031,-3.4339945,-4.102736,-1.0029545
0.5406325,0.12000001,-0.21489108,-3.3269815,-3.974883,-0.9716996
0.523786,0.11626074,-0.20819494,-3.2233107,-3.8510232,-0.94142085
0.5074656,0.11263822,-0.20170788,-3.1228771,-3.731031,-0.91208756
0.49165472,0.109128796,-0.19542336,-3.025579,-3.6147847,-0.88367003
0.4763373,0.10572892,-0.18933499,-2.9313178,-3.502167,-0.8561395
0.46149796,0.102435134,-0.18343663,-2.8399982,-3.3930638,-0.82946813
0.44712165,0.09924414,-0.17772232,-2.7515283,-3.287365,-0.803629
0.43319383,0.09615269,-0.17218629,-2.6658185,-3.184964,-0.77859604
0.4197005,0.09315768,-0.16682294,-2.582782,-3.085757,-0.7543439
0.40662804,0.09025608,-0.16162688,-2.5023358,-2.9896445,-0.73084825
0.39396322,0.087444976,-0.15659286,-2.4243982,-2.8965294,-0.70808536
0.38169336,0.08472152,-0.15171582,-2.348891,-2.8063178,-0.6860322
0.36980605,0.08208299,-0.14699084,-2.275738,-2.7189188,-0.66466665
0.35828933,0.07952671,-0.14241315,-2.2048657,-2.6342447,-0.6439672
0.3471316,0.07705012,-0.13797818,-2.1362026,-2.5522099,-0.62391305
0.33632168,0.07465073,-0.13368145,-2.0696797,-2.4727323,-0.60448396
0.32584867,0.07232611,-0.12951863,-2.0052302,-2.395732,-0.5856604
0.31570205,0.07007395,-0.12548554,-1.9427892,-2.321131,-0.5674235
0.30587164,0.06789196,-0.121578135,-1.882294,-2.2488549,-0.5497549
0.29634753,0.06577797,-0.11779249,-1.823684,-2.178831,-0.5326369
0.2871202,0.063729845,-0.11412479,-1.7669001,-2.110989,-0.5160522
0.27818033,0.061745536,-0.11057137,-1.7118855,-2.0452607,-0.49998423
0.26951897,0.059823047,-0.10712865,-1.6585846,-1.98158,-0.48441687
0.26112747,0.057960447,-0.10379318,-1.6069443,-1.9198831,-0.46933448
0.25299737,0.056155868,-0.10056162,-1.5569127,-1.8601083,-0.45472193
0.2451205,0.054407503,-0.09743072,-1.5084395,-1.8021954,-0.44056454
0.237489,0.052713595,-0.094397336,-1.4614762,-1.7460864,-0.42684814
0.23009518,0.05107245,-0.09145844,-1.4159757,-1.691725,-0.41355896
0.22293165,0.049482416,-0.088611074,-1.3718923,-1.6390568,-0.40068367
0.21599124,0.04794191,-0.08585239,-1.3291819,-1.5880288,-0.3882094
0.20926698,0.04644937,-0.08317962,-1.2878016,-1.5385901,-0.3761236
0.20275211,0.04500332,-0.08059009,-1.24771,-1.490691,-0.36441422
0.19644013,0.0436023,-0.0780812,-1.208867,-1.4442836,-0.35306945
0.19032472,0.042244907,-0.07565044,-1.1712334,-1.3993212,-0.34207797
0.18439972,0.040929783,-0.07329537,-1.1347718,-1.355759,-0.33142877
0.17865925,0.03965561,-0.07101364,-1.0994457,-1.3135533,-0.32111117
0.1730975,0.038421117,-0.06880295,-1.0652194,-1.2726619,-0.31111482
0.16770895,0.037225056,-0.066661105,-1.032059,-1.2330437,-0.30142975
0.16248816,0.03606624,-0.06458594,-0.9999309,-1.194659,-0.29204625
0.15742995,0.034943506,-0.06257539,-0.9688033,-1.1574695,-0.2829549
0.15252921,0.03385573,-0.06062745,-0.9386448,-1.121438,-0.27414665
0.14778106,0.03280182,-0.05874015,-0.9094254,-1.0865283,-0.2656126
0.14318074,0.031780723,-0.056911614,-0.8811156,-1.0527054,-0.25734428
0.13872366,0.030791419,-0.055140004,-0.8536873,-1.0199356,-0.24933338
0.13440533,0.029832913,-0.053423554,-0.82711285,-0.9881861,-0.2415719
0.13022146,0.02890425,-0.05176054,-0.8013658,-0.95742506,-0.23405205
0.12616783,0.028004497,-0.050149303,-0.77642035,-0.92762166,-0.22676632
0.1222404,0.027132759,-0.048588227,-0.7522515,-0.89874613,-0.2197074
0.11843525,0.026288157,-0.04707575,-0.72883505,-0.8707695,-0.21286824
0.11474855,0.025469849,-0.045610357,-0.7061476,-0.8436639,-0.20624201
0.11117663,0.024677018,-0.04419059,-0.6841665,-0.8174021,-0.19982205
0.107715905,0.023908868,-0.042815015,-0.66286963,-0.79195786,-0.19360197
0.10436292,0.02316463,-0.041482266,-0.64223576,-0.76730573,-0.1875755
0.10111431,0.022443563,-0.040191006,-0.62224424,-0.7434211,-0.18173666
0.097966835,0.02174494,-0.038939945,-0.6028751,-0.72027993,-0.17607957
0.094917335,0.021068068,-0.03772783,-0.5841089,-0.69785917,-0.1705986
0.09196277,0.020412266,-0.036553446,-0.5659269,-0.6761364,-0.16528824
0.08910018,0.019776879,-0.03541562,-0.5483109,-0.6550898,-0.1601432
0.0863267,0.019161271,-0.034313217,-0.53124326,-0.6346984,-0.15515831
0.08363956,0.018564826,-0.033245128,-0.5147069,-0.6149417,-0.1503286
0.08103607,0.01798695,-0.032210287,-0.49868536,-0.5958001,-0.14564925
0.078513615,0.01742706,-0.031207662,-0.48316252,-0.57725435,-0.14111556
0.07606969,0.0168846,-0.030236248,-0.46812293,-0.5592859,-0.13672298
