ax,ay,az,gx,gy,gz
1.109101,-1.5009228,-6.855517,-33.292118,48.99499,19.975636
1.8733059,-2.021738,-7.8391747,-44.853058,44.698692,34.333664
2.2467868,-2.713721,-8.965998,-50.496807,39.83967,48.20955
2.3491685,-3.3191984,-10.162374,-50.61118,33.239246,60.62826
2.25206,-3.7690213,-11.292873,-41.973995,22.441921,70.053604
2.065543,-4.0321465,-12.209046,-29.048075,12.657509,76.34874
1.9367254,-4.093213,-12.873293,-13.394452,4.648439,81.576454
1.8058163,-3.9678977,-13.3842125,3.467802,-2.6700082,86.19725
1.6479919,-3.7466562,-13.836588,21.131517,-10.809933,90.36752
1.5352219,-3.453202,-14.230156,41.337593,-20.45912,93.68417
1.4183273,-2.892319,-14.544479,61.80829,-30.842138,94.75495
1.3542874,-2.1698973,-14.737248,83.274704,-40.33181,93.35376
1.3351046,-1.222579,-14.677104,105.18845,-48.44539,90.57698
1.3602462,0.07727839,-14.20286,124.84831,-55.448093,86.73257
1.4220868,1.6766629,-13.290127,137.83391,-62.22477,81.78331
1.5507272,3.5166008,-11.794062,143.4227,-68.81304,76.47949
1.7110338,5.2417226,-10.0873375,141.50237,-74.33752,71.22095
1.8261111,6.6683707,-8.4257345,133.67361,-77.855194,66.0118
1.820645,7.7927055,-6.948311,121.95682,-79.512215,60.383877
1.707307,8.676934,-5.6947203,106.467316,-79.400795,52.469707
1.5248069,9.222508,-4.785487,88.91636,-78.98458,43.78939
1.36301,9.451388,-4.16195,70.21042,-78.20831,34.494865
1.2938329,9.393646,-3.7802508,51.624954,-77.253586,25.45816
1.3723611,9.02675,-3.6235397,33.943005,-75.94548,16.931938
1.6424273,8.3627825,-3.6844962,17.611343,-74.13424,11.002094
2.0442834,7.4007,-4.006694,2.334376,-72.30442,8.370469
2.3799477,6.18255,-4.5538774,-10.121316,-70.54654,8.526737
2.5750542,4.798139,-5.229619,-17.72755,-68.64287,10.606232
2.6156182,3.4919193,-5.891958,-20.268038,-67.00894,13.616345
2.548023,2.4121277,-6.455344,-17.800102,-65.94025,17.340937
2.400088,1.6570457,-6.8683195,-12.649449,-65.51718,21.175257
2.2475412,1.1702396,-7.176079,-5.883893,-65.97306,24.786364
2.1160514,0.8947677,-7.390066,1.7357575,-67.21418,28.13748
2.0262473,0.77597296,-7.530658,9.998449,-69.039024,31.353006
1.9791305,0.79675084,-7.6022444,19.034521,-71.38296,34.45174
1.9638019,1.0505583,-7.5033207,27.92237,-73.98644,37.24717
1.97005,1.5146931,-7.205609,35.3015,-76.29219,39.08181
1.9772608,2.1011384,-6.758212,40.403175,-78.35655,40.212456
1.9593657,2.7175553,-6.2543793,43.01283,-80.29219,40.542103
1.9281251,3.2941036,-5.7469425,43.348217,-81.77522,39.720245
1.8981786,3.8373294,-5.2465825,42.34227,-82.87395,37.986023
1.8826041,4.3855705,-4.7399907,39.75499,-83.45237,35.55063
1.8683943,4.9175625,-4.2506866,35.367855,-83.48866,32.380833
1.8440084,5.406038,-3.8038921,29.317678,-83.06483,28.412209
1.8169875,5.8165975,-3.4218607,21.361418,-82.27455,23.24771
1.809899,6.1365886,-3.147654,12.542468,-81.341354,17.381344
1.8267117,6.316707,-2.9727736,3.3541653,-80.26548,11.205012
1.8694224,6.3314652,-2.8906722,-5.664012,-79.20817,5.262808
1.9380059,6.1989584,-2.8738408,-14.283753,-78.020485,-0.1481346
2.017817,5.922435,-2.9142942,-21.700308,-76.62719,-5.1282296
2.1282463,5.503527,-2.9983666,-27.858395,-75.21408,-9.477896
2.2634919,5.005184,-3.10008,-33.01347,-73.834854,-12.861362
2.3998435,4.460875,-3.2153654,-36.898006,-72.285805,-15.21699
2.5218563,3.9293745,-3.3221598,-39.46715,-70.46404,-16.83848
2.6209128,3.438576,-3.404245,-40.503147,-68.36428,-17.623224
2.6748068,3.031386,-3.436083,-40.773853,-66.14645,-17.998411
2.694938,2.689551,-3.433088,-40.58912,-63.885014,-17.934406
2.6833055,2.4072604,-3.4007056,-40.06501,-61.71332,-17.502676
2.6530108,2.1751025,-3.342596,-39.23266,-59.499786,-16.88301
2.6083531,1.9754928,-3.277366,-37.95474,-57.14025,-15.995109
2.5556555,1.8228751,-3.1914384,-36.468132,-54.677536,-14.938261
2.4962819,1.6971443,-3.095495,-34.82395,-52.16065,-13.906553
2.4415905,1.5958867,-2.9889584,-32.960777,-49.843704,-12.914658
2.3918836,1.5374967,-2.8646595,-31.520128,-47.42178,-11.675601
2.3149264,1.4880289,-2.772491,-30.505991,-45.89602,-11.299947
2.2405963,1.4402496,-2.6834688,-29.52647,-44.422337,-10.937116
2.1687896,1.3940924,-2.597469,-28.580206,-42.99869,-10.586603
2.0994084,1.3494943,-2.514374,-27.665903,-41.62313,-10.24793
2.0323591,1.3063954,-2.434072,-26.782333,-40.293804,-9.92064
1.9675536,1.2647384,-2.3564572,-25.928328,-39.00896,-9.604301
1.9049072,1.2244695,-2.281428,-25.102776,-37.766926,-9.298503
1.8443395,1.1855367,-2.2088888,-24.304617,-36.5661,-9.0028515
1.7857739,1.1478909,-2.1387472,-23.532843,-35.404976,-8.716972
1.7291374,1.1114851,-2.070916,-22.78649,-34.282093,-8.440511
1.67436,1.0762744,-2.0053113,-22.064636,-33.196068,-8.173123
1.6213751,1.0422158,-1.9418535,-21.366404,-32.145584,-7.914486
1.5701188,1.0092684,-1.8804659,-20.69095,-31.129368,-7.664286
1.5205299,0.97739273,-1.8210754,-20.03747,-30.146214,-7.422226
1.47255,0.9465514,-1.7636118,-19.405193,-29.194958,-7.1880193
1.4261229,0.91670823,-1.708008,-18.793379,-28.274488,-6.9613934
1.381195,0.8878286,-1.6541997,-18.20132,-27.383741,-6.7420845
1.3377144,0.85987943,-1.6021249,-17.628338,-26.521692,-6.529841
1.2956319,0.8328289,-1.5517244,-17.073774,-25.687357,-6.324422
1.2548996,0.8066463,-1.502941,-16.537006,-24.879795,-6.1255937
1.215472,0.78130233,-1.4557202,-16.017431,-24.098097,-5.933134
1.177305,0.75676864,-1.4100091,-15.514469,-23.341394,-5.7468276
1.1403563,0.73301816,-1.3657573,-15.027561,-22.608845,-5.5664687
1.1045853,0.71002465,-1.3229159,-14.556172,-21.899645,-5.391858
1.0699528,0.687763,-1.281438,-14.099787,-21.213017,-5.222805
1.0364211,0.6662088,-1.2412784,-13.6579075,-20.548212,-5.0591254
1.0039537,0.6453389,-1.2023937,-13.230054,-19.90451,-4.900641
0.9725158,0.6251307,-1.1647418,-12.815766,-19.281218,-4.747182
0.9420735,0.60556245,-1.1282823,-12.414599,-18.677666,-4.5985827
0.9125944,0.58661336,-1.0929763,-12.026125,-18.093208,-4.4546847
0.8840469,0.5682631,-1.0587862,-11.649927,-17.527224,-4.315335
0.85640085,0.5504923,-1.0256757,-11.285609,-16.979109,-4.180385
0.82962704,0.53328216,-0.9936097,-10.932785,-16.448288,-4.0496926
0.80369717,0.5166145,-0.96255463,-10.591083,-15.934199,-3.9231205
0.77858406,0.5004719,-0.9324778,-10.260143,-15.436304,-3.8005347
0.75426143,0.48483732,-0.90334755,-9.939621,-14.954081,-3.6818078
0.73070383,0.46969458,-0.8751336,-9.62918,-14.487024,-3.5668151
0.70788676,0.45502782,-0.8478065,-9.328498,-14.034651,-3.4554372
0.6857865,0.44082183,-0.821338,-9.037262,-13.596488,-3.3475583
0.66438013,0.4270619,-0.7957005,-8.75517,-13.172083,-3.2430665
0.6436455,0.41373372,-0.77086747,-8.481931,-12.760996,-3.1418538
0.6235613,0.40082362,-0.7468134,-8.217261,-12.362803,-3.0438156
0.6041067,0.38831827,-0.7235135,-7.9608893,-11.977094,-2.948851
0.58526176,0.3762048,-0.70094365,-7.7125516,-11.603472,-2.8568625
0.5670071,0.36447075,-0.67908084,-7.471993,-11.241553,-2.7677555
0.5493241,0.3531041,-0.6579026,-7.2389665,-10.890967,-2.6814384
0.53219455,0.3420933,-0.6373872,-7.013234,-10.551354,-2.5978234
0.515601,0.33142698,-0.61751384,-6.7945647,-10.222368,-2.5168245
0.49952644,0.32109433,-0.598262,-6.5827355,-9.903673,-2.4383593
0.48395458,0.31108478,-0.57961226,-6.3775306,-9.594943,-2.3623476
0.46886954,0.30138814,-0.56154555,-6.1787405,-9.295865,-2.2887123
0.45425594,0.29199457,-0.5440434,-5.986163,-9.006134,-2.2173784
0.44009897,0.2828945,-0.5270882,-5.799603,-8.725456,-2.1482735
0.42638424,0.2740787,-0.5106627,-5.618871,-8.453547,-2.0813272
0.41309783,0.26553825,-0.49475008,-5.4437838,-8.190129,-2.0164716
0.40022632,0.25726447,-0.4793344,-5.2741632,-7.9349365,-1.9536413
0.38775662,0.24924898,-0.46439996,-5.1098385,-7.687711,-1.8927726
0.37567616,0.24148369,-0.4499317,-4.9506426,-7.448202,-1.8338037
0.3639727,0.23396073,-0.43591496,-4.796415,-7.216168,-1.7766751
0.35263443,0.22667252,-0.4223356,-4.647,-6.991374,-1.7213291
0.3416499,0.21961169,-0.40917987,-4.502246,-6.773593,-1.6677098
0.33100802,0.21277112,-0.39643455,-4.362008,-6.562606,-1.6157632
0.32069805,0.2061439,-0.38408673,-4.226144,-6.358199,-1.5654368
0.31070963,0.19972336,-0.372124,-4.0945168,-6.1601677,-1.5166799
0.30103266,0.19350304,-0.36053428,-3.966994,-5.968311,-1.4694432
0.29165742,0.18747665,-0.34930596,-3.8434474,-5.782436,-1.4236795
0.28257445,0.18163814,-0.33842766,-3.7237525,-5.602356,-1.3793424
0.27377462,0.17598163,-0.32788846,-3.6077888,-5.4278893,-1.3363874
0.26524907,0.17050144,-0.3176778,-3.4954398,-5.258861,-1.2947714
0.25698927,0.16519205,-0.30778536,-3.3865921,-5.095101,-1.2544523
0.24898687,0.16004813,-0.2982012,-3.281137,-4.9364443,-1.21539
0.24123384,0.1550645,-0.28891572,-3.178968,-4.782732,-1.1775448
0.2337224,0.15023616,-0.2799196,-3.0799825,-4.633809,-1.1408789
0.226445,0.14555828,-0.27120376,-2.9840815,-4.4895267,-1.1053554
0.21939434,0.14102612,-0.26275948,-2.891168,-4.3497396,-1.0709387
0.21256335,0.13663518,-0.2545783,-2.8011496,-4.2143073,-1.0375943
0.20594515,0.13238102,-0.24665195,-2.7139354,-4.083094,-1.0052886
0.19953313,0.12825939,-0.23897253,-2.629438,-3.9559684,-0.97398937
0.19332083,0.12426614,-0.23153232,-2.5475726,-3.8328028,-0.943665
0.18730204,0.12039728,-0.22432385,-2.4682574,-3.7134733,-0.91428524
0.18147072,0.11664891,-0.21733992,-2.3914125,-3.5978608,-0.88582057
0.175821,0.1130173,-0.21057351,-2.3169608,-3.4858491,-0.8582424
0.17034726,0.10949879,-0.20401783,-2.244828,-3.3773258,-0.8315232
0.165044,0.10608986,-0.19766632,-2.1749418,-3.2721825,-0.8056361
0.15990587,0.102787085,-0.19151261,-2.1072319,-3.1703136,-0.7805552
0.15492776,0.09958717,-0.18555054,-2.0416305,-3.071617,-0.7562553
0.15010467,0.096486904,-0.17977412,-1.9780722,-2.9759939,-0.7327122
0.14543177,0.09348317,-0.17417759,-1.9164929,-2.8833482,-0.70990217
0.14090438,0.09057298,-0.16875532,-1.8568312,-2.7935877,-0.68780243
0.13651797,0.08775341,-0.16350189,-1.7990273,-2.7066221,-0.66639084
0.13226813,0.08502162,-0.15841204,-1.7430232,-2.6223645,-0.645646
0.12815063,0.0823749,-0.15348068,-1.6887629,-2.5407302,-0.625547
0.12416133,0.07981059,-0.14870286,-1.6361921,-2.4616377,-0.60607386
0.12029624,0.07732612,-0.1440738,-1.585258,-2.385008,-0.587207
0.11655148,0.074919,-0.13958886,-1.5359099,-2.310764,-0.5689276
0.112923324,0.07258683,-0.13524356,-1.4880981,-2.2388318,-0.5512173
0.10940812,0.07032726,-0.13103355,-1.441775,-2.169139,-0.5340584
0.10600236,0.06813805,-0.12695462,-1.396894,-2.101616,-0.5174337
0.10270263,0.06601699,-0.12300266,-1.3534104,-2.036195,-0.5013266
0.09950563,0.06396197,-0.11917375,-1.3112805,-1.9728109,-0.48572096
0.09640816,0.061970923,-0.11546405,-1.2704622,-1.9114001,-0.47060117
0.093407124,0.060041863,-0.11186983,-1.2309146,-1.8519012,-0.45595208
0.09049951,0.05817286,-0.1083875,-1.1925982,-1.7942545,-0.44175905
0.08768242,0.056362037,-0.10501359,-1.1554748,-1.7384025,-0.42800784
0.084953025,0.054607593,-0.10174471,-1.119507,-1.6842892,-0.41468474
0.082308605,0.05290776,-0.09857759,-1.0846589,-1.6318605,-0.4017764
0.0797465,0.05126085,-0.09550907,-1.0508956,-1.581064,-0.38926992
0.07726416,0.049665205,-0.09253607,-1.0181835,-1.5318488,-0.37715277
0.07485909,0.048119236,-0.08965562,-0.98648953,-1.4841657,-0.3654128
0.0725289,0.04662139,-0.086864844,-0.95578235,-1.4379668,-0.35403833
0.07027124,0.045170173,-0.08416094,-0.926031,-1.3932062,-0.3430179
0.06808386,0.043764133,-0.0815412,-0.8972058,-1.349839,-0.33234057
0.06596457,0.04240186,-0.07900302,-0.869278,-1.3078218,-0.32199562
0.06391126,0.041081995,-0.07654385,-0.84221953,-1.2671125,-0.31197268
0.06192186,0.039803214,-0.07416124,-0.8160033,-1.2276704,-0.30226174
0.059994392,0.038564242,-0.07185279,-0.7906032,-1.1894562,-0.29285312
