ax,ay,az,gx,gy,gz
-1.5836507,-0.16545604,-3.1627562,34.95668,-15.591959,19.753817
-2.0216904,-0.20287965,-3.6688802,46.30628,-26.687466,23.050102
-2.381151,-0.21293668,-3.9445794,48.73866,-41.357754,19.427702
-2.4893188,-0.24281871,-4.1914487,43.24697,-56.93297,13.386658
-2.2171686,-0.44509503,-4.554012,40.265656,-62.366833,7.4816957
-1.9761873,-0.6549205,-5.1696324,37.52123,-65.16662,4.001162
-1.9359114,-0.7348591,-5.7116203,35.432667,-67.58233,2.28884
-1.984304,-0.6960461,-6.1688395,33.15062,-70.85538,1.3109299
-2.0097902,-0.6183551,-6.565269,29.773634,-75.220245,1.6713732
-2.0966053,-0.5840904,-6.8967285,25.938448,-81.17425,2.7632859
-2.1933687,-0.62017953,-7.1010265,22.744753,-87.852455,3.900378
-2.1915276,-0.5750198,-7.1389318,19.780848,-94.6443,4.316293
-2.0837417,-0.46182323,-7.0112324,16.893587,-101.37385,4.3274927
-1.9017841,-0.40380508,-6.735997,14.369813,-107.94958,4.5432906
-1.6238972,-0.43951985,-6.3531837,12.853418,-113.508644,4.8693156
-1.2089314,-0.47380412,-5.8282843,12.095629,-117.72362,4.825275
-0.7581422,-0.42969093,-5.194866,11.648673,-120.75528,4.6193805
-0.31037372,-0.3691065,-4.486381,11.038294,-122.63821,4.9167314
0.106213965,-0.32710683,-3.7552776,10.156123,-123.49148,5.5138907
0.5020615,-0.32994598,-3.0442102,9.484003,-122.748215,6.023449
0.8898091,-0.31785855,-2.3730502,9.0236025,-120.82594,6.3491654
1.249655,-0.29539558,-1.7900136,8.650347,-117.976524,6.8241987
1.5352205,-0.25845137,-1.2928658,8.132987,-114.33405,7.3521814
1.7281222,-0.23630148,-0.87648755,7.4420996,-110.27563,7.9398293
1.8518809,-0.23510262,-0.533648,7.037396,-105.70403,8.428357
1.9230038,-0.24058975,-0.25750166,7.1097875,-100.952545,8.577405
1.9588002,-0.19702196,-0.029596778,7.4877095,-96.08815,8.446763
1.9808539,-0.10263702,0.16623773,7.7195244,-91.08932,8.324844
1.975305,0.022749415,0.31488407,7.639403,-86.08902,8.363221
1.9361688,0.17992848,0.42137018,7.198478,-81.270775,8.22149
1.8706435,0.37598968,0.48438835,6.5287795,-76.61579,7.9087873
1.7869198,0.5988036,0.5122039,5.4038568,-72.21194,7.3758907
1.6964363,0.8375747,0.51259595,3.9027677,-68.10306,6.643477
1.6062227,1.0906063,0.49448588,2.0558193,-64.202545,5.6361275
1.5116892,1.3435551,0.45928237,-0.41564378,-60.576214,4.229707
1.4206021,1.5938073,0.41142344,-3.2429855,-57.23381,2.5501695
1.3382778,1.8328897,0.3556951,-6.333753,-54.21495,0.59539026
1.274138,2.0549927,0.29198807,-9.714688,-51.461235,-1.6097674
1.2208828,2.2412758,0.21822925,-13.383965,-48.87614,-3.9839303
1.1673182,2.3755717,0.12644085,-17.288967,-46.58233,-6.6168494
1.1210722,2.4217494,0.014983901,-21.091467,-44.539993,-9.373806
1.0887498,2.4116068,-0.097794086,-24.621737,-42.679577,-12.264732
1.0799754,2.3597033,-0.20184971,-27.85695,-41.023,-15.177526
1.0940491,2.2795088,-0.28689203,-30.97754,-39.45124,-17.97678
1.117883,2.1463125,-0.368973,-33.905243,-38.05974,-20.385378
1.151525,1.937698,-0.4517482,-36.462063,-36.6481,-22.468168
1.1742184,1.6818761,-0.535251,-38.46257,-35.25676,-24.336546
1.1836771,1.3914806,-0.6097716,-39.83755,-33.857037,-25.995068
1.1780626,1.0836601,-0.67169476,-40.631012,-32.552856,-27.312508
1.1650411,0.7875156,-0.71089876,-40.85512,-31.426418,-28.089582
1.1617345,0.52628034,-0.7272599,-40.776127,-30.31708,-28.494661
1.1661063,0.28472683,-0.7421862,-40.45846,-29.131609,-28.562567
1.1580182,0.047912534,-0.76503044,-39.832764,-27.817884,-28.262886
1.1171045,-0.18000053,-0.79147327,-38.842808,-26.561657,-27.712591
1.057107,-0.3769444,-0.8069282,-37.428658,-25.467396,-27.09378
1.0081624,-0.50093246,-0.7872618,-35.705997,-24.485954,-26.407127
0.9757998,-0.5686414,-0.7443733,-34.106388,-23.453978,-25.58093
0.94709736,-0.60755455,-0.70005214,-32.676594,-22.343275,-24.568546
0.91380394,-0.63367206,-0.6657801,-31.373781,-21.194605,-23.405005
0.8683061,-0.6495131,-0.6386542,-30.115273,-20.090725,-22.197302
0.82580936,-0.65112054,-0.612777,-28.817856,-18.984129,-20.992525
0.78697085,-0.6306414,-0.5786696,-27.617273,-17.819368,-19.802254
0.7575299,-0.6017605,-0.5389289,-26.57678,-16.580696,-18.51527
0.7482266,-0.5709431,-0.50088346,-25.761177,-15.142757,-16.955915
0.73493135,-0.5464281,-0.4779791,-24.622042,-13.695276,-15.461873
0.7253008,-0.53302485,-0.45418692,-23.265078,-12.373626,-14.195206
0.73041886,-0.53680575,-0.4265876,-21.762472,-11.081205,-13.018493
0.7070522,-0.51963294,-0.41294074,-21.066275,-10.726709,-12.60202
0.68447095,-0.50303733,-0.3997526,-20.393476,-10.384129,-12.199548
0.6626453,-0.48699704,-0.38700572,-19.743193,-10.053011,-11.810542
0.64154685,-0.47149116,-0.37468356,-19.114574,-9.732925,-11.434498
0.62114847,-0.45649981,-0.36277026,-18.506815,-9.423461,-11.0709305
0.6014244,-0.44200402,-0.35125077,-17.919146,-9.124227,-10.719382
0.58234996,-0.42798567,-0.34011072,-17.350832,-8.834848,-10.379413
0.5639017,-0.41442752,-0.32933635,-16.801176,-8.554969,-10.050603
0.5460571,-0.401313,-0.31891453,-16.269505,-8.284247,-9.732553
0.52879465,-0.38862634,-0.3088327,-15.7551775,-8.022359,-9.424879
0.5120938,-0.3763524,-0.29907888,-15.257584,-7.7689896,-9.1272135
0.4959348,-0.3644767,-0.28964153,-14.776135,-7.5238414,-8.839207
0.48029882,-0.35298535,-0.28050962,-14.310268,-7.286627,-8.560522
0.46516767,-0.34186506,-0.27167258,-13.859444,-7.057072,-8.290834
0.45052403,-0.33110303,-0.2631202,-13.423143,-6.8349133,-8.029836
0.43635118,-0.320687,-0.25484282,-13.000871,-6.6198964,-7.777229
0.42263314,-0.3106052,-0.24683104,-12.592147,-6.4117794,-7.5327272
0.40935445,-0.3008463,-0.23907587,-12.196515,-6.210328,-7.296057
0.39650032,-0.29139945,-0.23156866,-11.813533,-6.0153174,-7.0669537
0.3840565,-0.28225413,-0.22430108,-11.442776,-5.8265324,-6.845164
0.3720093,-0.2734003,-0.21726514,-11.083836,-5.643764,-6.6304426
0.36034554,-0.26482826,-0.21045315,-10.73632,-5.4668126,-6.422556
0.34905252,-0.2565287,-0.20385766,-10.399849,-5.295486,-6.2212763
0.33811796,-0.24849258,-0.19747153,-10.0740595,-5.129597,-6.0263863
0.3275301,-0.24071126,-0.19128789,-9.758599,-4.9689684,-5.837675
0.31727755,-0.23317637,-0.18530008,-9.45313,-4.813427,-5.6549406
0.30734935,-0.22587986,-0.17950171,-9.157324,-4.662806,-5.477988
0.29773498,-0.21881396,-0.1738866,-8.870868,-4.516946,-5.3066273
0.28842416,-0.21197118,-0.16844879,-8.593457,-4.3756914,-5.1406775
0.27940708,-0.20534427,-0.16318254,-8.324798,-4.238893,-4.9799633
0.2706743,-0.19892628,-0.15808229,-8.064608,-4.106407,-4.8243155
0.26221654,-0.19271044,-0.1531427,-7.812613,-3.9780943,-4.67357
0.25402498,-0.18669024,-0.1483586,-7.5685506,-3.8538206,-4.52757
0.24609111,-0.18085942,-0.14372496,-7.3321643,-3.7334554,-4.386162
0.23840664,-0.17521188,-0.13923699,-7.103209,-3.616874,-4.249199
0.23096357,-0.16974175,-0.13488999,-6.881447,-3.503955,-4.1165385
0.2237542,-0.16444337,-0.1306795,-6.666647,-3.3945813,-3.9880438
0.21677107,-0.15931126,-0.12660113,-6.458588,-3.28864,-3.8635812
0.21000697,-0.15434013,-0.122650675,-6.257055,-3.1860218,-3.7430222
0.20345493,-0.14952485,-0.11882408,-6.06184,-3.0866206,-3.626243
0.19710821,-0.14486046,-0.11511739,-5.8727427,-2.9903343,-3.5131235
0.19096029,-0.14034219,-0.11152682,-5.6895685,-2.897064,-3.4035473
0.18500488,-0.13596539,-0.10804867,-5.51213,-2.8067143,-3.2974021
0.17923588,-0.13172558,-0.1046794,-5.3402452,-2.7191927,-3.1945794
0.17364739,-0.12761845,-0.101415545,-5.173739,-2.6344097,-3.0949738
0.16823371,-0.12363978,-0.09825379,-5.012441,-2.5522785,-2.9984841
0.16298932,-0.119785525,-0.0951909,-4.8561873,-2.4727156,-2.9050117
0.15790889,-0.11605176,-0.092223756,-4.704818,-2.3956401,-2.8144612
0.15298723,-0.1124347,-0.08934936,-4.5581794,-2.3209736,-2.726741
0.14821935,-0.10893065,-0.086564764,-4.416123,-2.24864,-2.6417615
0.14360042,-0.10553606,-0.08386716,-4.278504,-2.178566,-2.5594368
0.13912573,-0.10224749,-0.08125381,-4.145183,-2.1106806,-2.4796832
0.13479078,-0.09906161,-0.07872206,-4.0160255,-2.0449147,-2.4024198
0.13059115,-0.09597518,-0.07626935,-3.8908997,-1.9812022,-2.3275685
0.12652262,-0.0929851,-0.0738932,-3.7696795,-1.9194783,-2.2550538
0.12258106,-0.09008833,-0.0715912,-3.6522427,-1.8596808,-2.184802
0.118762486,-0.08728195,-0.06936103,-3.53847,-1.801749,-2.1167424
0.11506304,-0.08456313,-0.06720044,-3.428247,-1.7456247,-2.050806
0.111479,-0.08192911,-0.06510725,-3.3214624,-1.6912512,-1.9869264
0.108006746,-0.07937726,-0.06307934,-3.2180083,-1.6385734,-1.9250393
0.10464278,-0.076904975,-0.061114676,-3.1177804,-1.5875386,-1.8650823
0.10138371,-0.07450979,-0.059211276,-3.020678,-1.5380951,-1.8069947
0.09822625,-0.07218929,-0.05736722,-2.926603,-1.4901932,-1.7507184
0.09516723,-0.069941126,-0.055580657,-2.8354611,-1.4437848,-1.6961964
0.092203565,-0.067763045,-0.053849787,-2.7471602,-1.398823,-1.6433741
0.08933228,-0.065652855,-0.052172866,-2.6616118,-1.3552626,-1.5921983
0.08655049,-0.06360844,-0.05054821,-2.5787296,-1.3130599,-1.5426174
0.08385539,-0.06162773,-0.048974186,-2.4984303,-1.2721726,-1.4945818
0.081244275,-0.059708748,-0.047449216,-2.4206336,-1.2325592,-1.4480431
0.07871453,-0.05784956,-0.045971762,-2.3452609,-1.1941804,-1.4029546
0.0762636,-0.056048304,-0.044540342,-2.2722366,-1.1569972,-1.3592709
0.07388903,-0.05430317,-0.04315352,-2.2014875,-1.1209726,-1.3169482
0.07158845,-0.0526124,-0.041809905,-2.1329427,-1.0860704,-1.2759441
0.069359526,-0.050974306,-0.040508147,-2.0665333,-1.0522554,-1.2362174
0.06720004,-0.04938724,-0.039246943,-2.0021925,-1.0194938,-1.1977282
0.06510783,-0.047849607,-0.03802502,-1.9398559,-0.98775274,-1.160438
0.06308078,-0.046359874,-0.03684116,-1.879461,-0.9570003,-1.1243092
0.06111687,-0.044916537,-0.035694174,-1.8209472,-0.9272058,-1.0893058
0.059214126,-0.043518156,-0.034582913,-1.7642559,-0.8983392,-1.0553926
0.05737064,-0.042163327,-0.03350626,-1.7093302,-0.87037164,-1.0225356
0.055584572,-0.040850695,-0.03246314,-1.656115,-0.8432751,-0.99070185
0.053854123,-0.039578937,-0.031452503,-1.6045573,-0.81702244,-0.9598595
0.052177563,-0.038346786,-0.030473338,-1.554605,-0.7915873,-0.92997766
0.050553214,-0.037153006,-0.029524667,-1.5062083,-0.7669442,-0.9010263
0.048979443,-0.035996396,-0.028605537,-1.4593186,-0.7430686,-0.87297654
0.04745468,-0.034875806,-0.027715027,-1.413889,-0.7199363,-0.84580016
0.045977395,-0.033790108,-0.026852246,-1.369874,-0.69752437,-0.81947005
0.04454611,-0.032738212,-0.02601633,-1.3272296,-0.67581034,-0.7939598
0.04315939,-0.031719074,-0.025206443,-1.2859129,-0.65477234,-0.76924384
0.041815847,-0.030731665,-0.024421772,-1.2458827,-0.6343894,-0.74529743
0.040514138,-0.029775,-0.023661532,-1.2070988,-0.61464113,-0.7220966
0.039252955,-0.028848121,-0.022924962,-1.1695226,-0.5955077,-0.69961816
0.038031038,-0.0279501,-0.022211324,-1.1331162,-0.57697,-0.6778396
0.036847167,-0.027080039,-0.021519905,-1.0978433,-0.55900943,-0.656739
0.035700154,-0.026237065,-0.020850012,-1.0636686,-0.54160804,-0.63629544
0.034588847,-0.025420336,-0.020200977,-1.0305579,-0.52474844,-0.6164883
0.03351214,-0.024629034,-0.019572146,-0.99847794,-0.5084137,-0.5972978
0.03246896,-0.023862367,-0.018962894,-0.96739674,-0.4925875,-0.5787048
0.031458247,-0.023119569,-0.018372608,-0.93728316,-0.477254,-0.5606906
0.030479006,-0.022399895,-0.017800698,-0.90810704,-0.46239787,-0.5432372
0.029530248,-0.021702625,-0.017246595,-0.8798393,-0.44800422,-0.5263272
0.028611025,-0.021027062,-0.01670974,-0.8524515,-0.43405867,-0.5099436
0.027720418,-0.02037253,-0.016189598,-0.8259163,-0.42054728,-0.49407002
0.026857538,-0.019738374,-0.015685648,-0.8002072,-0.4074565,-0.47869062
0.026021518,-0.01912396,-0.015197386,-0.7752984,-0.39477322,-0.46378997
0.025211524,-0.018528672,-0.014724324,-0.75116503,-0.38248476,-0.4493532
0.024426745,-0.017951915,-0.014265989,-0.72778296,-0.37057886,-0.43536583
0.023666397,-0.017393114,-0.013821921,-0.7051287,-0.3590436,-0.42181388
0.022929719,-0.016851706,-0.013391677,-0.68317974,-0.3478674,-0.4086838
0.022215972,-0.016327154,-0.012974827,-0.661914,-0.33703914,-0.39596248
0.021524442,-0.01581893,-0.012570952,-0.6413102,-0.32654795,-0.38363713
0.020854441,-0.015326526,-0.012179649,-0.62134784,-0.31638333,-0.37169546
0.020205295,-0.01484945,-0.0118005285,-0.6020069,-0.30653512,-0.36012554
