ax,ay,az,gx,gy,gz
-1.6400149,0.49636814,-3.4627588,-24.247494,-16.979246,13.483759
-1.8525121,0.38517594,-4.236656,-21.040636,-18.457129,10.985281
-2.2420847,0.32113224,-4.7557716,-19.369339,-23.597364,5.0880585
-2.5693717,0.2425166,-5.2302647,-14.030002,-31.178476,-4.001908
-2.8196821,0.27674624,-5.809903,-6.97447,-39.369617,-12.89459
-2.9564292,0.42887345,-6.293646,-2.396114,-48.591278,-19.679579
-2.9216855,0.5759006,-6.7080336,-0.51224065,-56.735397,-23.003614
-2.819056,0.6568418,-7.0665536,-1.8360983,-63.810577,-22.452242
-2.793192,0.58895475,-7.372738,-4.477406,-70.01054,-20.175041
-2.961972,0.31594622,-7.595148,-4.599508,-77.029976,-20.370628
-3.0619657,0.10925322,-7.583848,-1.5061722,-84.08337,-24.647522
-2.9276557,0.02773051,-7.3782134,2.5200386,-90.29024,-30.211765
-2.5655718,-0.009765766,-7.0241814,5.9094715,-95.67588,-34.307247
-2.0719237,-0.082303874,-6.556838,7.963058,-100.18672,-34.476368
-1.5411509,-0.20437269,-5.944136,9.454012,-103.93436,-33.311924
-0.99531424,-0.29760456,-5.269587,11.177523,-106.45835,-32.091965
-0.4537697,-0.34073806,-4.5752387,12.857379,-107.55963,-30.835402
0.059129097,-0.32006755,-3.8901474,14.036115,-107.61795,-29.105488
0.5287167,-0.23979396,-3.197566,13.944048,-106.34096,-26.642132
0.9266003,-0.17620909,-2.5360205,13.435163,-104.01779,-24.0595
1.2445173,-0.13998054,-1.9783052,13.5036125,-100.87834,-21.881168
1.5079585,-0.064682715,-1.4996669,14.006437,-97.1003,-20.33704
1.7404081,0.09912478,-1.0796003,14.385154,-92.71594,-19.180428
1.9196047,0.33545837,-0.7184086,14.023155,-87.94709,-18.013525
1.9939201,0.61769754,-0.4481163,12.644348,-83.08582,-16.52084
2.0008461,0.9025503,-0.24989596,10.573528,-78.53311,-14.941542
1.9566365,1.1728234,-0.12080786,8.099443,-74.33469,-13.576204
1.8772732,1.4406264,-0.040952947,5.395774,-70.35482,-12.839165
1.7756306,1.7124188,0.002238116,2.4167094,-66.38408,-13.287668
1.6453618,1.9660907,-0.006761431,-0.6553654,-62.667953,-14.341986
1.510417,2.1926265,-0.046115484,-3.9699104,-59.29906,-15.684285
1.3768991,2.3870947,-0.10905681,-7.5236588,-56.451633,-17.196768
1.2605231,2.545893,-0.18609431,-11.223662,-53.99454,-19.075788
1.1695575,2.664307,-0.2709674,-15.175413,-51.734646,-21.498766
1.1057296,2.7219653,-0.36654204,-19.293518,-49.61884,-24.041546
1.0606118,2.702927,-0.48282775,-23.490337,-47.767097,-26.436113
1.0429256,2.605575,-0.61241364,-27.45895,-46.228218,-28.506542
1.0502532,2.456703,-0.7322486,-30.946835,-44.76291,-30.347181
1.0682033,2.2888339,-0.82950115,-34.14953,-43.386173,-31.977417
1.0743023,2.0714567,-0.9003107,-37.24835,-42.098797,-33.189484
1.0672674,1.8051838,-0.9659403,-39.926033,-40.819874,-34.153442
1.0499321,1.4936013,-1.0394422,-41.8239,-39.67308,-35.08708
1.0425382,1.15889,-1.1052479,-42.936783,-38.772346,-35.86221
1.0535235,0.8263643,-1.1474578,-43.27373,-37.97099,-35.91049
1.0669105,0.5195683,-1.1597271,-43.14343,-37.13545,-35.512367
1.0770606,0.24179262,-1.1548369,-42.450153,-36.120735,-34.91886
1.0810279,0.0071602673,-1.1367906,-41.315712,-34.94351,-34.229755
1.069057,-0.17870523,-1.1068215,-39.89449,-33.70942,-33.424175
1.0407567,-0.31894547,-1.0663235,-38.286686,-32.574677,-32.411533
1.0054703,-0.41001487,-1.0149133,-36.657482,-31.44543,-31.240215
0.9647794,-0.46880102,-0.96307737,-35.081455,-30.323107,-30.021877
0.91843796,-0.51136404,-0.9143766,-33.43906,-29.205025,-28.797146
0.86650854,-0.5423871,-0.8708679,-31.712276,-28.129448,-27.625084
0.81683046,-0.56954986,-0.8331524,-29.80678,-27.153173,-26.553923
0.7981852,-0.584936,-0.7922347,-27.51114,-26.20714,-25.344666
0.80421835,-0.5937495,-0.74255985,-25.082464,-25.062284,-23.954329
0.82042265,-0.6064836,-0.69075024,-22.467403,-23.676178,-22.478218
0.8413507,-0.62721294,-0.6395672,-19.846807,-22.29814,-21.101456
0.8138641,-0.60672224,-0.61867285,-19.198421,-21.56967,-20.412083
0.7873543,-0.5869596,-0.59852093,-18.573076,-20.867085,-19.747204
0.76177925,-0.5678938,-0.5790796,-17.96978,-20.189274,-19.10577
0.73709947,-0.5494954,-0.5603189,-17.387604,-19.53519,-18.48679
0.71327776,-0.53173673,-0.5422104,-16.825666,-18.903849,-17.88933
0.6902789,-0.51459146,-0.5247274,-16.283142,-18.294315,-17.312508
0.66806966,-0.49803486,-0.5078447,-15.759244,-17.70571,-16.755491
0.64661855,-0.48204342,-0.49153826,-15.253229,-17.137196,-16.217487
0.62589574,-0.46659487,-0.47578543,-14.764393,-16.587982,-15.697749
0.6058728,-0.45166814,-0.46056467,-14.2920685,-16.05732,-15.195565
0.586523,-0.43724316,-0.44585556,-13.835621,-15.544495,-14.710262
0.5678206,-0.42330083,-0.43163863,-13.394446,-15.048829,-14.241199
0.5497413,-0.40982303,-0.41789535,-12.96797,-14.569678,-13.787762
0.53226197,-0.39679244,-0.4046081,-12.555645,-14.106426,-13.349371
0.51536036,-0.38419262,-0.39176008,-12.156951,-13.658487,-12.925472
0.4990155,-0.3720078,-0.37933525,-11.771388,-13.225303,-12.515536
0.4832072,-0.36022297,-0.3673183,-11.398482,-12.806338,-12.119057
0.46791616,-0.34882376,-0.35569456,-11.037779,-12.401084,-11.73555
0.453124,-0.33779642,-0.34445003,-10.688843,-12.009049,-11.364555
0.43881303,-0.32712784,-0.33357129,-10.351258,-11.629769,-11.0056305
0.4249664,-0.3168054,-0.32304555,-10.024627,-11.2627945,-10.65835
0.41156793,-0.30681705,-0.31286046,-9.708567,-10.907698,-10.32231
0.39860204,-0.29715124,-0.30300424,-9.402713,-10.564066,-9.997121
0.38605392,-0.2877968,-0.29346555,-9.106711,-10.231505,-9.682407
0.3739092,-0.27874312,-0.28423354,-8.820228,-9.909637,-9.377813
0.36215422,-0.26997995,-0.27529776,-8.542936,-9.598097,-9.082993
0.3507757,-0.26149747,-0.2666482,-8.274526,-9.296535,-8.797614
0.339761,-0.25328618,-0.25827518,-8.014698,-9.004614,-8.52136
0.3290979,-0.24533704,-0.25016946,-7.763164,-8.7220125,-8.253925
0.31877467,-0.23764125,-0.24232207,-7.5196466,-8.448419,-7.9950137
0.30878,-0.23019038,-0.23472445,-7.28388,-8.183532,-7.744343
0.299103,-0.22297633,-0.22736831,-7.0556073,-7.927064,-7.5016394
0.2897332,-0.21599129,-0.22024569,-6.8345804,-7.6787376,-7.26664
0.28066045,-0.20922771,-0.21334888,-6.6205616,-7.438285,-7.0390916
0.27187505,-0.20267834,-0.20667051,-6.413321,-7.205447,-6.81875
0.2633676,-0.19633617,-0.20020342,-6.2126365,-6.9799757,-6.6053786
0.255129,-0.19019444,-0.19394073,-6.018295,-6.7616305,-6.3987517
0.24715059,-0.18424666,-0.18787578,-5.83009,-6.55018,-6.198649
0.23942386,-0.17848653,-0.18200219,-5.647823,-6.3454003,-6.0048594
0.23194072,-0.17290795,-0.17631374,-5.471301,-6.1470757,-5.8171782
0.22469327,-0.1675051,-0.17080447,-5.3003397,-5.9549985,-5.6354094
0.21767394,-0.16227232,-0.1654686,-5.134759,-5.7689667,-5.4593616
0.2108754,-0.15720412,-0.16030058,-4.974387,-5.5887866,-5.2888513
0.20429058,-0.15229525,-0.15529501,-4.819056,-5.4142704,-5.1237006
0.19791262,-0.14754058,-0.1504467,-4.668605,-5.2452364,-4.9637384
0.19173491,-0.1429352,-0.14575061,-4.5228777,-5.08151,-4.808799
0.18575107,-0.13847435,-0.14120188,-4.3817234,-4.922921,-4.658721
0.17995492,-0.1341534,-0.13679583,-4.2449965,-4.769307,-4.513351
0.17434047,-0.12996793,-0.13252792,-4.112556,-4.6205087,-4.372538
0.16890197,-0.12591362,-0.12839374,-3.984266,-4.476373,-4.236138
0.16363382,-0.1219863,-0.124389075,-3.8599946,-4.3367524,-4.1040106
0.15853062,-0.11818196,-0.120509796,-3.7396142,-4.2015038,-3.9760203
0.15358718,-0.11449669,-0.11675195,-3.623002,-4.0704885,-3.8520362
0.1487984,-0.11092674,-0.113111675,-3.5100386,-3.9435728,-3.7319314
0.14415942,-0.107468456,-0.10958527,-3.4006088,-3.8206267,-3.615584
0.1396655,-0.10411832,-0.10616915,-3.2946007,-3.7015254,-3.5028744
0.13531208,-0.10087291,-0.10285981,-3.1919067,-3.5861475,-3.3936884
0.13109471,-0.09772893,-0.09965391,-3.0924222,-3.4743755,-3.287915
0.12700912,-0.09468319,-0.09654818,-2.9960463,-3.366096,-3.1854465
0.12305115,-0.0917326,-0.09353946,-2.902681,-3.2611988,-3.0861788
0.11921681,-0.088874154,-0.09062471,-2.8122318,-3.1595778,-2.9900117
0.11550218,-0.08610496,-0.08780098,-2.7246068,-3.06113,-2.8968472
0.111903526,-0.08342222,-0.0850654,-2.639717,-2.9657557,-2.8065913
0.1084172,-0.08082323,-0.08241521,-2.5574775,-2.8733582,-2.7191527
0.10503967,-0.078305334,-0.07984772,-2.4778042,-2.7838442,-2.6344428
0.10176754,-0.075866014,-0.077360354,-2.4006171,-2.6971235,-2.552376
0.09859749,-0.073502794,-0.07495058,-2.325838,-2.6131084,-2.4728699
0.09552632,-0.07121329,-0.07261599,-2.2533917,-2.531714,-2.3958437
0.09255095,-0.0689952,-0.0703542,-2.183205,-2.4528584,-2.32122
0.08966837,-0.06684628,-0.068162955,-2.115207,-2.3764617,-2.2489233
0.08687567,-0.06476437,-0.06604004,-2.0493295,-2.3024476,-2.1788812
0.08417004,-0.062747374,-0.063983314,-1.9855059,-2.230741,-2.111023
0.08154877,-0.06079326,-0.061990708,-1.9236722,-2.16127,-2.0452802
0.07900921,-0.05890006,-0.060060218,-1.8637658,-2.0939646,-1.9815869
0.07654881,-0.057065867,-0.0581899,-1.8057269,-2.0287569,-1.919879
0.07416509,-0.055288848,-0.056377873,-1.7494968,-1.9655818,-1.8600942
0.071855664,-0.053567205,-0.054622322,-1.6950191,-1.9043754,-1.8021727
0.069618195,-0.051899213,-0.052921474,-1.6422392,-1.8450764,-1.7460561
0.06745046,-0.050283197,-0.05127363,-1.5911038,-1.7876252,-1.6916881
0.06535026,-0.048717532,-0.049677126,-1.5415617,-1.7319641,-1.6390141
0.06331549,-0.04720065,-0.048130363,-1.4935632,-1.6780372,-1.5879813
0.06134412,-0.045731023,-0.04663179,-1.4470601,-1.6257902,-1.5385383
0.05943416,-0.04430718,-0.045179904,-1.4020057,-1.575171,-1.4906358
0.0575837,-0.042927694,-0.043773245,-1.3583547,-1.5261286,-1.4442253
0.05579088,-0.041591175,-0.0424104,-1.3160635,-1.478614,-1.3992606
0.054053903,-0.04029629,-0.041090008,-1.2750895,-1.4325792,-1.3556964
0.05237103,-0.03904173,-0.03981074,-1.2353919,-1.3879783,-1.3134892
0.050740566,-0.03782625,-0.038571317,-1.1969305,-1.3447666,-1.2725965
0.049160887,-0.036648627,-0.037370495,-1.1596671,-1.3029007,-1.2329774
0.047630403,-0.035507675,-0.036207072,-1.1235641,-1.2623385,-1.1945921
0.04614758,-0.03440226,-0.03507988,-1.0885856,-1.2230396,-1.1574024
0.044710938,-0.033331264,-0.033987794,-1.0546963,-1.1849647,-1.1213707
0.043319035,-0.03229362,-0.03292971,-1.0218623,-1.1480752,-1.0864611
0.041970473,-0.031288292,-0.03190458,-0.9900508,-1.1123346,-1.0526385
0.0406639,-0.030314265,-0.030911367,-0.9592298,-1.0777068,-1.0198692
0.03939802,-0.029370569,-0.029949084,-0.9293686,-1.0441574,-0.9881202
0.03817155,-0.028456258,-0.029016763,-0.9004372,-1.0116526,-0.9573598
0.03698327,-0.027570413,-0.028113471,-0.87240654,-0.9801598,-0.92755723
0.035831988,-0.026712153,-0.027238304,-0.84524876,-0.9496476,-0.89868253
0.034716554,-0.025880614,-0.026390387,-0.81893647,-0.9200855,-0.8707069
0.033635847,-0.025074966,-0.025568869,-0.79344344,-0.8914437,-0.8436023
0.032588787,-0.0242944,-0.024772929,-0.7687442,-0.8636938,-0.81734157
0.031574327,-0.023538137,-0.02400177,-0.7448138,-0.8368077,-0.7918985
0.03059145,-0.022805419,-0.02325462,-0.72162855,-0.81075877,-0.7672475
0.029639175,-0.022095514,-0.02253073,-0.6991651,-0.7855208,-0.743364
0.028716546,-0.021407709,-0.021829378,-0.677401,-0.7610686,-0.720224
0.027822642,-0.020741317,-0.02114986,-0.6563145,-0.7373776,-0.69780445
0.026956566,-0.020095672,-0.020491498,-0.6358844,-0.71442413,-0.6760829
0.026117451,-0.019470127,-0.019853631,-0.61609036,-0.6921853,-0.6550375
0.02530446,-0.018864056,-0.019235622,-0.59691256,-0.6706388,-0.63464737
0.02451678,-0.018276852,-0.018636853,-0.57833177,-0.64976305,-0.61489195
0.023753619,-0.017707929,-0.018056724,-0.5603294,-0.62953717,-0.5957516
0.023014216,-0.017156716,-0.017494654,-0.54288745,-0.60994095,-0.577207
0.022297831,-0.016622664,-0.016950082,-0.5259885,-0.5909547,-0.55923975
0.021603748,-0.016105236,-0.016422462,-0.50961566,-0.5725596,-0.54183185
0.020931272,-0.015603917,-0.015911268,-0.49375242,-0.5547371,-0.5249658
0.02027973,-0.015118202,-0.015415986,-0.47838303,-0.5374694,-0.50862485
0.01964847,-0.014647608,-0.014936123,-0.4634921,-0.52073926,-0.49279255
0.01903686,-0.014191663,-0.0144711975,-0.4490647,-0.5045299,-0.47745308
0.018444289,-0.013749911,-0.014020745,-0.43508643,-0.4888251,-0.46259114
0.017870164,-0.013321911,-0.013584314,-0.42154327,-0.4736092,-0.44819185
0.017313913,-0.012907234,-0.013161469,-0.40842173,-0.45886695,-0.4342408
