ax,ay,az,gx,gy,gz
-2.1491106,-5.8073254,-5.1418653,20.142002,-57.317795,-14.81468
-2.413497,-6.3327136,-5.6169667,18.513437,-61.706154,0.64842683
-2.609175,-6.605881,-6.0516357,16.120253,-69.37903,14.502413
-2.661521,-6.743492,-6.354307,14.026595,-79.43939,20.664364
-2.40551,-6.924524,-6.314785,17.786179,-87.164314,21.39216
-1.9408953,-7.04872,-6.0252132,23.711185,-90.708725,22.99325
-1.5559748,-7.033631,-5.7498617,30.205677,-93.39903,27.595312
-1.1175305,-6.907383,-5.4344583,34.86226,-96.495804,34.482002
-0.5943561,-6.736566,-5.019333,37.983154,-99.24069,41.900047
-0.07753049,-6.614264,-4.5113726,42.756386,-100.42232,47.443123
0.4537217,-6.346819,-3.837517,47.934155,-100.40345,53.493134
0.97032005,-5.868426,-3.1230905,51.5711,-99.846,60.920902
1.4553012,-5.281734,-2.3939695,54.33106,-98.87783,68.61689
1.9506103,-4.6703596,-1.664938,55.727863,-97.003716,76.09844
2.4331315,-4.0830708,-0.9802611,55.71472,-93.06723,83.04625
2.9028854,-3.4471936,-0.35480747,55.59292,-87.36791,87.94757
3.292457,-2.8106022,0.17583239,56.408485,-80.14034,90.155975
3.5804007,-2.1738987,0.5791358,56.892796,-71.935234,90.67763
3.7621167,-1.5818139,0.8528696,56.144302,-63.51718,90.62566
3.8512008,-1.0720493,1.0196221,54.46612,-55.186493,90.524155
3.8363593,-0.61976016,1.0553223,52.310112,-47.54091,90.34983
3.7604191,-0.21857664,1.0161772,49.77288,-40.658463,89.81045
3.6320922,0.15396099,0.9131821,47.232594,-34.675797,88.398605
3.474658,0.5067909,0.77982086,44.689514,-29.377195,85.95827
3.3057063,0.83445466,0.6345055,41.927055,-24.514784,82.30175
3.114058,1.1369019,0.47314122,39.161182,-20.1075,78.055626
2.9128742,1.4278716,0.30014062,36.16115,-16.32745,73.546135
2.7084913,1.7042528,0.12544708,32.7921,-13.259048,69.03695
2.5127015,1.9620224,-0.040282056,28.951311,-10.982215,64.32658
2.3414073,2.1896288,-0.18317363,24.877874,-9.37756,58.8606
2.2125485,2.3770053,-0.28914723,20.887552,-8.000822,52.851147
2.1090946,2.5339837,-0.3735711,16.94077,-6.7340555,46.17333
2.0195246,2.6549268,-0.42965722,12.723361,-5.790366,39.523163
1.9610673,2.72038,-0.43175915,8.025214,-5.155746,33.490005
1.9449482,2.724016,-0.39029253,3.2715871,-4.3724113,27.432186
1.975674,2.6117694,-0.31373972,-0.9456181,-3.1129832,20.81401
2.0166101,2.3882859,-0.2229759,-4.7373238,-1.4462283,14.278609
2.0571353,2.061013,-0.120205164,-8.401438,0.26382563,8.73826
2.1167364,1.6357881,-0.0063067637,-11.668152,2.0133235,4.574289
2.2006645,1.1518482,0.08526507,-14.031244,4.26748,1.7467226
2.2883306,0.619341,0.13015048,-15.377253,6.88629,-0.49982807
2.3574781,0.09779965,0.12584056,-15.563486,9.809519,-1.9159514
2.3863,-0.38381672,0.07933386,-14.586816,12.885575,-2.4967887
2.3692892,-0.80117816,-0.008712912,-12.690261,15.903469,-2.3376913
2.3128226,-1.142256,-0.14088649,-10.084152,18.559813,-1.4889295
2.2070153,-1.4090221,-0.32770592,-7.12071,20.699684,-0.49334726
2.0707114,-1.6315802,-0.53508794,-3.7169979,22.38473,0.6170432
1.9051656,-1.8073711,-0.7543853,0.034122597,23.634998,1.9419329
1.72388,-1.9309164,-0.9787814,3.911877,24.394041,3.665338
1.5322218,-1.999949,-1.2046946,7.872472,24.374037,5.922893
1.3388557,-1.987539,-1.4182662,11.520265,23.749575,8.430116
1.1623929,-1.9115034,-1.6130162,14.794208,22.569422,10.808132
1.007337,-1.7904191,-1.785664,17.772415,20.965162,12.6267805
0.8818257,-1.6533629,-1.9339935,20.315866,19.18976,14.129363
0.76923054,-1.5161692,-2.0725005,22.32599,17.207443,15.46486
0.6715058,-1.3464375,-2.1986482,23.968042,14.909344,16.676676
0.6009545,-1.111143,-2.2959614,24.693216,12.225397,17.567331
0.5541236,-0.8608192,-2.3596733,24.774092,9.41439,18.087753
0.5282126,-0.62384045,-2.3948362,24.323643,6.71006,18.338303
0.4905841,-0.4111778,-2.4232776,23.481647,4.095863,18.19227
0.4358,-0.21689549,-2.4483774,22.607885,1.3716104,17.868998
0.3919078,0.0132208625,-2.4678037,21.141834,-1.5499223,17.56297
0.35758886,0.25327325,-2.4778934,18.860823,-4.6578684,17.23995
0.3293887,0.4638815,-2.4700615,16.050484,-7.890677,16.658499
0.3100073,0.620928,-2.447248,13.326786,-10.943769,15.3625345
0.301755,0.73620194,-2.4262729,10.664724,-13.753515,13.74043
0.28365573,0.8260901,-2.4196622,7.9306855,-16.593048,12.0012665
0.26079336,0.88155925,-2.415738,4.847712,-19.840431,10.525844
0.25291148,0.8870346,-2.379402,1.1880757,-23.454296,9.698453
0.27354512,0.84456015,-2.294825,-2.67802,-27.213846,9.451474
0.33994552,0.7712153,-2.1713243,-6.1529484,-30.572184,8.806577
0.4648404,0.63957465,-2.007026,-8.961425,-33.180626,7.4068203
0.59548235,0.4516667,-1.8171667,-11.056871,-35.088463,5.648246
0.72594416,0.22576849,-1.6112651,-12.603224,-36.577263,4.348319
0.87471056,0.0059234914,-1.3889334,-13.888085,-37.466137,4.127411
1.047659,-0.17976627,-1.153276,-14.845024,-37.619007,4.0798674
1.2122465,-0.34833357,-0.92107064,-15.361704,-36.91793,3.7733848
1.354709,-0.50582683,-0.7045678,-15.468337,-35.418472,3.2725313
1.3119617,-0.48986563,-0.6823353,-14.980238,-34.30085,3.1692674
1.2705976,-0.47442096,-0.66082245,-14.5079365,-33.219402,3.0693457
1.2305692,-0.459475,-0.64000416,-14.050884,-32.17287,2.9726503
1.1918305,-0.44501057,-0.6198566,-13.608558,-31.160059,2.8790703
1.1543372,-0.43101117,-0.6003568,-13.180451,-30.179808,2.7884989
1.118047,-0.417461,-0.5814827,-12.766083,-29.23101,2.7008336
1.0829191,-0.4043448,-0.5632131,-12.364985,-28.312603,2.6159763
1.0489144,-0.391648,-0.5455277,-11.976713,-27.42356,2.533832
1.0159951,-0.37935647,-0.5284068,-11.600835,-26.562897,2.45431
0.9841252,-0.3674567,-0.5118316,-11.236937,-25.729664,2.3773227
0.95326954,-0.3559357,-0.49578393,-10.884621,-24.922953,2.3027854
0.92339456,-0.34478086,-0.4802463,-10.543503,-24.14188,2.2306173
0.89446795,-0.3339801,-0.46520194,-10.213213,-23.385601,2.1607401
0.8664585,-0.32352182,-0.45063454,-9.893394,-22.653303,2.0930784
0.83933604,-0.31339476,-0.4365285,-9.583706,-21.944195,2.0275598
0.8130717,-0.30358806,-0.42286876,-9.283814,-21.25752,1.9641137
0.7876375,-0.2940913,-0.40964073,-8.993402,-20.59255,1.902673
0.7630064,-0.28489447,-0.39683038,-8.712158,-19.948578,1.8431723
0.7391524,-0.27598774,-0.38442418,-8.439789,-19.32492,1.7855488
0.71605027,-0.2673618,-0.37240908,-8.176004,-18.720924,1.7297418
0.6936759,-0.25900754,-0.36077243,-7.920529,-18.135952,1.6756927
0.6720057,-0.25091627,-0.34950206,-7.6730947,-17.569393,1.6233447
0.6510172,-0.24307948,-0.33858615,-7.433444,-17.020655,1.5726433
0.6306884,-0.23548906,-0.32801342,-7.201326,-16.489164,1.5235357
0.61099833,-0.22813708,-0.31777284,-6.9765005,-15.974372,1.4759709
0.59192646,-0.22101593,-0.30785376,-6.7587337,-15.475743,1.4298995
0.573453,-0.21411826,-0.29824597,-6.5478005,-14.992762,1.3852738
0.55555904,-0.20743692,-0.28893954,-6.3434834,-14.524928,1.3420478
0.53822607,-0.20096506,-0.27992487,-6.145572,-14.071763,1.3001771
0.5214363,-0.19469602,-0.27119267,-5.9538627,-13.632798,1.2596184
0.5051724,-0.18862334,-0.26273403,-5.7681584,-13.207583,1.2203302
0.48941776,-0.18274081,-0.25454023,-5.588269,-12.795684,1.1822722
0.47415626,-0.17704241,-0.24660292,-5.4140105,-12.396676,1.1454054
0.45937228,-0.17152232,-0.23891397,-5.245204,-12.010154,1.1096923
0.44505078,-0.16617489,-0.23146552,-5.0816784,-11.635722,1.0750962
0.4311771,-0.16099468,-0.22424999,-4.923266,-11.272999,1.041582
0.41773716,-0.15597641,-0.21726003,-4.769806,-10.921616,1.0091155
0.40471724,-0.15111499,-0.21048853,-4.621142,-10.581213,0.97766364
0.39210415,-0.14640546,-0.20392862,-4.4771233,-10.251448,0.9471946
0.37988508,-0.14184305,-0.19757362,-4.337603,-9.931984,0.9176773
0.36804762,-0.13742313,-0.1914171,-4.2024407,-9.622497,0.8890819
0.35657978,-0.13314123,-0.18545283,-4.071499,-9.322674,0.8613794
0.34546998,-0.128993,-0.17967474,-3.9446447,-9.032211,0.83454174
0.33470693,-0.12497425,-0.17407702,-3.8217504,-8.750814,0.80854183
0.3242798,-0.12108093,-0.168654,-3.702691,-8.4782,0.78335327
0.31417802,-0.11730908,-0.16340019,-3.587347,-8.214092,0.7589507
0.3043914,-0.11365491,-0.15831028,-3.4756014,-7.958224,0.7353094
0.29491007,-0.11011473,-0.15337916,-3.3673418,-7.710337,0.7124057
0.28572446,-0.106684975,-0.14860183,-3.2624586,-7.470182,0.69021624
0.2768253,-0.10336217,-0.14397348,-3.1608465,-7.2375164,0.6687188
0.26820365,-0.100142986,-0.13948947,-3.0624027,-7.012106,0.64789176
0.25985083,-0.09702417,-0.13514526,-2.9670284,-6.7937236,0.6277141
0.2517584,-0.09400258,-0.13093649,-2.8746274,-6.5821495,0.60816544
0.24391823,-0.09107519,-0.12685892,-2.785107,-6.3771706,0.5892262
0.23632245,-0.088239044,-0.12290844,-2.6983767,-6.1785808,0.57087725
0.2289634,-0.08549129,-0.11908109,-2.6143496,-5.986181,0.5531002
0.22183369,-0.08282918,-0.115373015,-2.532941,-5.799777,0.5358772
0.21492617,-0.08025002,-0.1117805,-2.4540699,-5.6191816,0.5191909
0.2082339,-0.07775123,-0.108299926,-2.377656,-5.444214,0.5030246
0.20175013,-0.075330295,-0.1049278,-2.3036232,-5.274698,0.4873619
0.19546838,-0.072984785,-0.101660736,-2.2318969,-5.1104636,0.47218728
0.18938233,-0.07071236,-0.09849546,-2.162405,-4.9513454,0.4574854
0.18348588,-0.06851072,-0.09542879,-2.0950782,-4.7971845,0.4432415
0.17777312,-0.06637766,-0.092457645,-2.0298488,-4.647826,0.42944136
0.1722383,-0.06431105,-0.08957905,-1.9666512,-4.50312,0.41607106
0.16687588,-0.062308807,-0.08679013,-1.905422,-4.362921,0.4031172
0.16168049,-0.06036893,-0.084088065,-1.8461,-4.227089,0.39056686
0.15664692,-0.05848947,-0.08147016,-1.7886256,-4.0954876,0.3784074
0.15177011,-0.056668546,-0.0789338,-1.7329413,-3.967985,0.36662662
0.14704518,-0.054904334,-0.07647642,-1.6789911,-3.844453,0.35521275
0.1424674,-0.053195063,-0.07409557,-1.626721,-3.7247684,0.34415436
0.13803217,-0.05153902,-0.07178886,-1.5760788,-3.6088107,0.3334403
0.13373506,-0.049934547,-0.069553986,-1.5270135,-3.496464,0.32305992
0.12957177,-0.04838004,-0.067388706,-1.4794762,-3.387616,0.31300274
0.12553811,-0.046873935,-0.06529085,-1.4334191,-3.2821572,0.30325875
0.12163006,-0.04541473,-0.06325832,-1.3887961,-3.1799822,0.29381818
0.11784369,-0.04400096,-0.061289076,-1.3455626,-3.0809886,0.28467157
0.114175215,-0.042631213,-0.059381146,-1.3036753,-2.9850774,0.27580974
0.11062096,-0.04130411,-0.057532623,-1.2630922,-2.8921525,0.26722383
0.10717738,-0.04001833,-0.055741657,-1.2237725,-2.8021212,0.25890526
0.10384101,-0.038772583,-0.05400645,-1.1856772,-2.7148926,0.2508457
0.10060851,-0.03756562,-0.052325267,-1.148768,-2.63038,0.24303706
0.09747666,-0.036396235,-0.05069643,-1.1130079,-2.5484986,0.23547153
0.09444231,-0.03526326,-0.049118303,-1.078361,-2.4691665,0.22814155
0.091502436,-0.034165554,-0.047589306,-1.044793,-2.3923042,0.22103976
0.08865408,-0.033102024,-0.046107914,-1.01227,-2.3178349,0.21415909
0.085894406,-0.032071605,-0.044672642,-0.9807594,-2.2456841,0.20749262
0.083220646,-0.031073267,-0.04328205,-0.9502299,-2.1757793,0.2010337
0.08063012,-0.030106008,-0.04193475,-0.9206508,-2.1080508,0.19477585
0.07812025,-0.02916886,-0.040629394,-0.8919925,-2.0424309,0.1887128
0.07568851,-0.028260887,-0.039364677,-0.8642264,-1.9788538,0.18283853
0.07333247,-0.02738118,-0.03813933,-0.83732474,-1.917256,0.17714712
0.07104978,-0.026528858,-0.03695213,-0.81126046,-1.8575757,0.17163289
0.06883815,-0.02570307,-0.035801888,-0.78600764,-1.7997532,0.16629031
0.06669536,-0.02490299,-0.034687452,-0.7615409,-1.7437307,0.16111405
0.06461929,-0.024127815,-0.033607706,-0.7378358,-1.6894523,0.15609893
0.06260783,-0.02337677,-0.032561578,-0.7148687,-1.6368635,0.15123993
0.060659,-0.022649108,-0.031548012,-0.6926165,-1.5859118,0.14653218
0.05877083,-0.021944094,-0.030565998,-0.67105705,-1.5365461,0.14197099
0.05694144,-0.021261029,-0.029614553,-0.65016866,-1.4887172,0.13755178
0.055168997,-0.020599227,-0.028692726,-0.62993056,-1.4423772,0.13327014
0.053451724,-0.019958025,-0.027799595,-0.6103224,-1.3974797,0.12912178
