ax,ay,az,gx,gy,gz
-4.2764025,1.1791017,-7.9000716,-13.15012,-21.695652,-11.4855585
-4.796989,1.3081758,-8.7824545,-13.108133,-37.473545,-13.341608
-5.226157,1.3585329,-9.228923,-13.172077,-51.69558,-17.274986
-5.5340867,1.3527719,-9.489417,-15.655142,-62.752907,-21.831839
-5.930066,1.3492653,-9.921833,-16.203236,-72.85509,-26.026438
-6.36066,1.3983719,-10.380764,-15.713677,-84.07033,-30.820112
-6.7934575,1.4200134,-10.866071,-14.394353,-98.29248,-35.60303
-7.0503864,1.2968594,-11.275732,-12.93068,-113.138435,-39.535355
-7.113076,0.9681437,-11.676895,-8.293062,-128.182,-43.26997
-6.908614,0.6930786,-11.825943,-1.634694,-141.9596,-47.647655
-6.38379,0.6011951,-11.644994,5.6113677,-154.39407,-51.976315
-5.52624,0.6508025,-11.111707,12.568549,-165.06017,-55.895996
-4.356673,0.7589628,-10.261966,18.861248,-172.97531,-59.57163
-2.8875937,0.91354096,-9.11688,23.415758,-176.19179,-61.450207
-1.2751397,1.0346739,-7.722712,25.604918,-176.16275,-60.37669
0.19791241,1.0787821,-6.2815323,25.247616,-173.22183,-56.566227
1.5085257,1.062519,-4.8571434,23.42501,-167.46649,-51.852016
2.6251938,1.0102559,-3.5473416,21.126457,-159.05501,-47.25873
3.5538597,0.9498936,-2.388813,18.718863,-147.79605,-42.97884
4.2682667,0.88061297,-1.4405682,16.506721,-135.56729,-38.69831
4.8241935,0.8155608,-0.70259655,14.540685,-122.91696,-34.237762
5.242816,0.7449034,-0.16400506,12.835864,-109.775894,-29.892239
5.5359592,0.67864543,0.21011144,11.541008,-96.098724,-25.928362
5.720442,0.6360153,0.4550239,10.196128,-81.91026,-21.933722
5.7606964,0.60019296,0.53140426,9.157722,-68.22802,-17.753696
5.7063913,0.572494,0.50664914,8.267498,-55.38673,-13.579566
5.5912395,0.54802203,0.39333165,7.650649,-43.4279,-9.49711
5.443339,0.5420368,0.2284421,7.179713,-32.119865,-5.571745
5.271155,0.56856257,0.013146641,7.1123304,-21.32694,-1.9674368
5.030331,0.6364454,-0.2697544,7.5024943,-11.715017,1.0624644
4.762363,0.7311843,-0.5621953,7.9652853,-3.2446308,3.6271052
4.4735775,0.8281796,-0.87402856,8.3589,4.0745487,5.953052
4.171398,0.9208603,-1.2069193,8.869528,10.37478,8.069543
3.873171,1.0456197,-1.5289342,9.053959,15.774159,9.738135
3.5765026,1.290063,-1.7862198,8.470074,20.546917,10.537979
3.2503195,1.5717093,-2.0023131,6.637439,24.319296,10.197412
2.9130833,1.8208561,-2.2085466,4.1055937,26.592144,9.29
2.6042795,2.0932999,-2.3565173,0.77476114,27.596498,7.9984784
2.350657,2.3807504,-2.457049,-3.7332299,27.819458,6.356393
2.1450238,2.6683125,-2.5395393,-9.004356,27.786459,4.517085
1.9282596,2.9267008,-2.6319165,-15.250361,27.346146,2.130478
1.681601,3.0874138,-2.77422,-21.735653,26.349894,-0.48565054
1.3920864,3.100663,-2.989172,-27.636726,24.48613,-3.5590353
1.0871352,2.9877744,-3.2368348,-32.145004,21.715176,-7.861674
0.82766855,2.7534158,-3.4823022,-35.711178,18.408667,-12.448697
0.6115009,2.4066322,-3.7196336,-38.637913,14.540839,-16.23683
0.40690753,1.9014003,-3.979206,-40.651817,9.859273,-18.83644
0.24114922,1.2496247,-4.269119,-40.825474,4.528419,-21.035294
0.20926589,0.5219611,-4.558849,-37.912365,-1.0364462,-22.948421
0.44292685,-0.22322512,-4.7816405,-32.935204,-6.0588436,-23.318882
0.7867453,-0.8412364,-4.8905244,-26.630655,-10.335975,-21.781023
1.142408,-1.2562534,-4.863389,-19.882435,-13.827877,-19.493183
1.4971786,-1.4521446,-4.6830106,-13.013505,-16.130838,-17.090466
1.8151971,-1.3892068,-4.3314567,-6.991511,-16.688559,-14.676544
2.0282013,-1.0752823,-3.8360507,-2.3176794,-16.4855,-11.865114
2.1368682,-0.66585773,-3.3239665,0.6633585,-16.092537,-8.695921
2.1591346,-0.23453198,-2.8615625,2.1107059,-15.782134,-5.5519505
2.1244566,0.16082446,-2.4779704,2.3135793,-15.546951,-2.8156147
2.050674,0.47168064,-2.1972423,1.7414845,-15.170632,-0.9031213
1.943976,0.6520792,-2.0559988,1.1638877,-14.78583,0.3330532
1.8366878,0.7673563,-1.9814519,0.93576837,-14.323384,0.9487207
1.7359415,0.86201036,-1.9342989,0.9865104,-13.849461,0.945652
1.6512375,0.94968927,-1.8906597,1.1558412,-13.457104,0.48309296
1.5935133,1.0244406,-1.8432721,1.213047,-13.210144,-0.26851496
1.5610329,1.0599791,-1.7933611,1.1661675,-12.9657755,-1.1003646
1.5382665,1.0542,-1.7471445,1.1306816,-12.616083,-1.8704894
1.5156641,1.0242609,-1.7061825,1.2059406,-12.076808,-2.5753696
1.4876829,0.9763303,-1.6779288,1.401662,-11.391732,-3.2622957
1.4658481,0.91397846,-1.6595033,1.7701317,-10.460677,-3.8130744
1.4191067,0.8848345,-1.6065869,1.7136877,-10.127118,-3.6914873
1.3739227,0.85666156,-1.5554335,1.6591243,-9.804673,-3.5739512
1.330238,0.8294235,-1.5059776,1.6063714,-9.492928,-3.4603152
1.2879972,0.8030858,-1.4581565,1.5553623,-9.191487,-3.3504355
1.2471479,0.7776156,-1.4119104,1.5060334,-8.899976,-3.2441752
1.2076396,0.75298154,-1.3671825,1.4583237,-8.618033,-3.141403
1.1694239,0.7291535,-1.3239182,1.4121753,-8.345317,-3.0419936
1.1324551,0.70610285,-1.2820653,1.3675324,-8.081497,-2.9458275
1.0966889,0.6838021,-1.241574,1.3243418,-7.82626,-2.8527896
1.0620831,0.6622249,-1.2023965,1.2825525,-7.5793047,-2.7627707
1.0285975,0.64134604,-1.1644869,1.2421157,-7.3403416,-2.6756651
0.99619293,0.6211414,-1.1278014,1.2029847,-7.1090946,-2.591372
0.9648324,0.6015876,-1.0922978,1.1651143,-6.885298,-2.5097947
0.9344802,0.5826625,-1.0579357,1.1284615,-6.6686964,-2.4308403
0.9051019,0.5643447,-1.0246762,1.0929847,-6.459045,-2.3544192
0.8766645,0.5466136,-0.9924819,1.0586443,-6.2561083,-2.2804458
0.8491364,0.5294494,-0.961317,1.0254018,-6.0596604,-2.2088375
0.822487,0.5128331,-0.9311469,0.9932205,-5.8694835,-2.1395152
0.796687,0.49674642,-0.9019385,0.9620649,-5.685368,-2.0724022
0.7717082,0.48117173,-0.8736596,0.9319009,-5.5071125,-2.0074253
0.74752325,0.46609205,-0.8462796,0.9026956,-5.3345222,-1.9445138
0.724106,0.45149106,-0.8197687,0.8744174,-5.167411,-1.8835992
0.7014313,0.43735301,-0.7940984,0.8470358,-5.005598,-1.824616
0.67947465,0.42366275,-0.76924103,0.82052135,-4.84891,-1.7675006
0.65821266,0.41040558,-0.7451701,0.7948458,-4.697179,-1.7121924
0.6376227,0.3975674,-0.72185993,0.7699817,-4.5502434,-1.6586322
0.6176829,0.38513464,-0.69928586,0.7459027,-4.4079475,-1.6067632
0.5983721,0.37309408,-0.67742395,0.7225834,-4.2701406,-1.5565307
0.57967013,0.3614331,-0.65625113,0.6999992,-4.136678,-1.5078815
0.5615572,0.3501394,-0.6357453,0.67812634,-4.0074196,-1.4607649
0.5440144,0.33920118,-0.6158849,0.65694195,-3.8822296,-1.4151312
0.5270234,0.32860705,-0.59664917,0.63642395,-3.7609773,-1.3709328
0.5105665,0.3183459,-0.5780181,0.61655086,-3.6435363,-1.3281239
0.49462655,0.30840713,-0.55997235,0.5973021,-3.529785,-1.2866598
0.4791871,0.2987804,-0.5424932,0.57865775,-3.4196053,-1.2464976
0.46423218,0.2894558,-0.5255626,0.56059843,-3.312883,-1.2075957
0.44974634,0.28042364,-0.50916296,0.54310554,-3.209508,-1.169914
0.4357146,0.27167466,-0.4932775,0.52616113,-3.109374,-1.1334137
0.42212263,0.26319984,-0.47788984,0.5097477,-3.012378,-1.0980572
0.40895638,0.2549905,-0.4629842,0.49384835,-2.9184203,-1.0638082
0.39620242,0.2470382,-0.44854528,0.4784469,-2.8274045,-1.0306315
0.38384765,0.2393348,-0.4345583,0.4635275,-2.7392375,-0.9984934
0.37187946,0.23187247,-0.42100897,0.44907495,-2.6538296,-0.96736085
0.36028564,0.22464354,-0.4078835,0.43507445,-2.571093,-0.93720216
0.34905437,0.21764068,-0.39516845,0.42151177,-2.4909437,-0.9079865
0.33817422,0.21085674,-0.3828509,0.4083731,-2.4133,-0.87968427
0.3276341,0.20428482,-0.3709183,0.39564505,-2.338083,-0.8522665
0.3174233,0.19791824,-0.35935858,0.3833147,-2.2652164,-0.82570547
0.3075315,0.19175056,-0.34815994,0.3713695,-2.1946256,-0.79997414
0.29794863,0.18577549,-0.33731106,0.35979742,-2.1262398,-0.7750464
0.288665,0.17998698,-0.32680094,0.34858665,-2.0599892,-0.7508971
0.27967116,0.17437921,-0.31661892,0.33772588,-1.9958069,-0.7275017
0.2709581,0.16894646,-0.30675474,0.3272041,-1.9336281,-0.70483655
0.26251692,0.16368327,-0.29719839,0.3170107,-1.8733897,-0.6828788
0.25433913,0.1585843,-0.28794023,0.30713537,-1.8150309,-0.66160613
0.2464165,0.15364441,-0.27897093,0.2975681,-1.7584928,-0.6409972
0.238741,0.14885862,-0.2702814,0.28829932,-1.7037184,-0.62103105
0.23130488,0.1442221,-0.2618629,0.2793196,-1.6506524,-0.60168767
0.22410068,0.13973017,-0.25370696,0.27061996,-1.5992414,-0.5829476
0.21712112,0.13537832,-0.24580531,0.26219156,-1.5494335,-0.56479186
0.21035919,0.13116214,-0.23815005,0.25402597,-1.5011785,-0.54720217
0.20380805,0.12707742,-0.23073344,0.24611494,-1.4544278,-0.5301609
0.19746114,0.12312001,-0.22354802,0.23845053,-1.4091346,-0.51365083
0.19131206,0.11928597,-0.21658657,0.23102501,-1.3652532,-0.49765536
0.18535464,0.115571424,-0.2098421,0.22383092,-1.3227394,-0.48215845
0.17958286,0.11197264,-0.20330782,0.21686104,-1.2815505,-0.4671445
0.17399096,0.108486004,-0.19697717,0.21010835,-1.2416452,-0.45259842
0.1685733,0.10510801,-0.19084378,0.20356609,-1.2029835,-0.4385056
0.16332446,0.10183527,-0.18490149,0.19722767,-1.1655263,-0.42485186
0.15823914,0.0986645,-0.17914434,0.19108674,-1.1292361,-0.41162357
0.15331225,0.095592506,-0.17356655,0.18513711,-1.0940765,-0.39880738
0.14853884,0.09261622,-0.16816252,0.17937285,-1.0600122,-0.38639045
0.14391415,0.08973265,-0.16292685,0.17378813,-1.0270091,-0.37436032
0.1394335,0.086938895,-0.15785426,0.16837738,-0.9950341,-0.36270493
0.13509242,0.08423217,-0.15293968,0.16313517,-0.964055,-0.3514126
0.13088655,0.08160975,-0.14817816,0.15805624,-0.93404084,-0.34047195
0.12681168,0.079068996,-0.14356495,0.1531355,-0.90496147,-0.32987207
0.12286371,0.076607384,-0.13909541,0.148368,-0.8767877,-0.31960234
0.1190387,0.07422243,-0.13476507,0.143749,-0.8494915,-0.30965245
0.11533281,0.07191175,-0.13056959,0.13927382,-0.82304525,-0.3000124
0.111742325,0.06967303,-0.12650476,0.13493803,-0.79742265,-0.29067257
0.10826366,0.067504026,-0.12256652,0.13073725,-0.7725979,-0.28162357
0.104893304,0.06540257,-0.118750915,0.12666728,-0.7485462,-0.27285638
0.10162791,0.06336654,-0.115054116,0.122724034,-0.72524345,-0.26436216
0.09846418,0.06139391,-0.11147243,0.11890358,-0.70266634,-0.25613245
0.09539898,0.059482705,-0.10800227,0.115202084,-0.68079215,-0.248159
0.092429206,0.05763101,-0.10464016,0.111615844,-0.6595991,-0.24043381
0.0895519,0.055836968,-0.10138273,0.108141266,-0.6390659,-0.23294917
0.08676419,0.054098785,-0.09822673,0.10477487,-0.61917204,-0.22569755
0.08406327,0.052414723,-0.095168985,0.10151329,-0.59989756,-0.21867171
0.08144644,0.05078309,-0.09220645,0.09835326,-0.5812232,-0.21186462
0.07891109,0.049202256,-0.08933614,0.09529161,-0.56313026,-0.20526947
0.07645467,0.04767064,-0.086555205,0.09232528,-0.5456006,-0.19887964
0.07407472,0.04618671,-0.08386084,0.0894513,-0.52861667,-0.19268875
0.07176887,0.044748977,-0.08125036,0.0866668,-0.51216155,-0.1866906
0.06953481,0.043356005,-0.07872115,0.08396898,-0.49621868,-0.18087919
0.067370296,0.0420064,-0.076270685,0.08135516,-0.48077217,-0.1752487
0.06527317,0.04069881,-0.073896505,0.07882271,-0.4658065,-0.16979349
0.06324133,0.039431926,-0.071596235,0.07636909,-0.45130676,-0.16450812
0.061272744,0.038204484,-0.06936757,0.073991865,-0.43725842,-0.15938728
0.059365444,0.03701525,-0.0672083,0.07168864,-0.4236474,-0.15442586
0.057517517,0.035863042,-0.065116234,0.069457114,-0.4104601,-0.1496189
0.055727117,0.0347467,-0.0630893,0.06729506,-0.39768335,-0.14496157
0.05399245,0.03366511,-0.06112547,0.065200314,-0.38530433,-0.14044923
0.052311786,0.03261719,-0.05922277,0.06317077,-0.37331066,-0.13607736
0.05068344,0.03160189,-0.0573793,0.061204407,-0.36169034,-0.13184159
0.049105782,0.030618198,-0.05559322,0.05929926,-0.35043177,-0.12773766
0.04757724,0.029665127,-0.053862736,0.057453416,-0.33952367,-0.1237615
0.046096276,0.028741725,-0.05218612,0.05566503,-0.32895514,-0.11990911
0.044661414,0.027847068,-0.050561696,0.05393232,-0.3187156,-0.116176635
0.043271217,0.02698026,-0.048987843,0.052253544,-0.3087948,-0.112560354
