ax,ay,az,gx,gy,gz
1.3181938,-0.37818527,-0.28727534,110.47465,52.379566,-50.825916
0.79255843,-1.0256156,-1.443053,124.40385,59.091766,-46.52965
-0.32480663,-1.0932815,-3.4059458,130.00113,44.31508,-42.775223
-1.2458203,-0.7284492,-5.145807,103.89848,13.982171,-43.09146
-1.5278087,-0.57899857,-5.9017315,74.93241,-14.584094,-43.17562
-1.5371077,-0.4293959,-6.4296885,47.744503,-40.654533,-39.42436
-1.5349514,-0.29431942,-6.986512,29.047731,-64.40969,-38.28377
-1.3793834,-0.33424097,-7.3515067,28.948616,-82.094536,-38.197594
-1.2668027,-0.15950502,-7.951126,25.735209,-101.73989,-37.835068
-1.1869563,0.05029791,-8.375914,22.902166,-121.0402,-37.419125
-1.1650406,0.19242164,-8.668526,17.634802,-138.69374,-36.963276
-1.1198928,0.17868696,-8.78496,12.140142,-154.8193,-36.48157
-0.92846406,0.0047509484,-8.600901,7.957128,-168.08138,-34.94169
-0.6065913,-0.31639266,-8.197691,6.6678896,-177.95195,-30.371117
-0.21659574,-0.6455209,-7.670611,6.6280255,-186.00539,-22.623287
0.25728774,-0.86417794,-6.916086,5.2822223,-190.89491,-12.265676
0.957748,-0.83174,-5.805183,4.7406836,-191.33102,-3.9921393
1.7385676,-0.74209464,-4.5914707,4.734515,-186.41853,0.51919603
2.4947076,-0.71624255,-3.3570209,5.679019,-176.69698,3.5625792
3.1136727,-0.6845424,-2.3320584,8.011219,-163.80254,5.811961
3.5554986,-0.6734976,-1.5662256,6.3246307,-149.97937,8.471087
3.370988,-0.6385468,-1.4849473,5.996418,-142.19627,8.031486
3.201639,-0.606468,-1.4103477,5.6951747,-135.05273,7.628006
3.0455916,-0.5769089,-1.3416076,5.4175925,-128.47029,7.256218
2.901282,-0.5495731,-1.2780381,5.1608906,-122.38297,6.912396
2.7673874,-0.5242103,-1.2190564,4.9227147,-116.73498,6.593388
2.6427798,-0.5006066,-1.1641659,4.701059,-111.47874,6.2965064
2.5264926,-0.47857895,-1.1129403,4.4942036,-106.57346,6.0194488
2.417692,-0.4579695,-1.0650128,4.3006654,-101.98399,5.7602277
2.3156552,-0.43864125,-1.0200647,4.119159,-97.67984,5.517122
2.2197526,-0.42047495,-0.97781885,3.9485648,-93.63444,5.2886305
2.129433,-0.4033662,-0.9380323,3.7879012,-89.82454,5.073441
2.0442116,-0.3872232,-0.90049165,3.6363068,-86.2297,4.8703985
1.9636608,-0.37196496,-0.8650084,3.4930208,-82.83188,4.678484
1.8874018,-0.35751966,-0.83141565,3.3573687,-79.61509,4.496794
1.8150971,-0.34382337,-0.79956484,3.228751,-76.56511,4.3245263
1.7464458,-0.3308192,-0.7693234,3.106632,-73.669235,4.1609626
1.6811786,-0.31845596,-0.74057263,2.9905324,-70.91611,4.0054607
1.619053,-0.3066879,-0.7132059,2.8800216,-68.2955,3.857445
1.5598512,-0.2954736,-0.687127,2.7747116,-65.798225,3.7163947
1.5033756,-0.2847758,-0.6622491,2.6742513,-63.41596,3.58184
1.4494481,-0.2745606,-0.63849354,2.5783231,-61.141163,3.4533558
1.3979058,-0.26479724,-0.61578876,2.486638,-58.966988,3.3305547
1.3486011,-0.25545773,-0.5940696,2.3989334,-56.887196,3.2130847
1.3013988,-0.24651648,-0.57327664,2.3149686,-54.89609,3.1006236
1.2561753,-0.23795006,-0.55335534,2.2345235,-52.988457,2.9928772
1.2128172,-0.22973697,-0.53425574,2.1573968,-51.15951,2.8895752
1.1712202,-0.22185749,-0.5159319,2.0834029,-49.40485,2.7904692
1.1312882,-0.2142934,-0.49834153,2.0123703,-47.72042,2.6953297
1.0929323,-0.20702788,-0.4814455,1.944142,-46.102486,2.603946
1.0560707,-0.20004539,-0.46520764,1.8785714,-44.547573,2.5161219
1.0206271,-0.19333151,-0.44959444,1.8155231,-43.052475,2.4316764
0.98653084,-0.18687285,-0.43457478,1.7548716,-41.614216,2.350441
0.95371616,-0.18065697,-0.42011964,1.6965,-40.230015,2.272259
0.9221218,-0.17467222,-0.40620208,1.6402988,-38.89729,2.1969843
0.8916905,-0.16890779,-0.39279684,1.5861667,-37.613625,2.1244807
0.86236876,-0.16335355,-0.37988037,1.5340083,-36.376762,2.0546207
0.83410645,-0.15799999,-0.3674306,1.4837345,-35.184593,1.987285
0.80685663,-0.1528382,-0.35542682,1.4352616,-34.03513,1.9223614
0.78057504,-0.14785983,-0.34384957,1.3885111,-32.92651,1.8597447
0.7552202,-0.143057,-0.33268055,1.3434091,-31.856981,1.799336
0.7307529,-0.13842231,-0.32190254,1.2998859,-30.824894,1.7410419
0.7071363,-0.13394876,-0.3114992,1.2578759,-29.828688,1.6847745
0.6843355,-0.12962973,-0.3014553,1.2173171,-28.866896,1.6304508
0.66231745,-0.12545899,-0.29175618,1.1781508,-27.938124,1.5779923
0.64105105,-0.121430606,-0.28238815,1.1403215,-27.041056,1.5273243
0.62050664,-0.117538996,-0.27333817,1.1037765,-26.174444,1.4783766
0.60065615,-0.11377884,-0.26459387,1.0684658,-25.337103,1.4310822
0.58147293,-0.11014506,-0.25614348,1.034342,-24.527908,1.3853775
0.56293154,-0.10663288,-0.24797587,1.00136,-23.74579,1.3412021
0.54500794,-0.10323771,-0.24008037,0.969477,-22.989729,1.2984986
0.5276791,-0.09995521,-0.23244688,0.9386519,-22.258757,1.257212
0.510923,-0.09678121,-0.22506571,0.9088457,-21.551949,1.2172903
0.4947189,-0.093711756,-0.21792766,0.88002133,-20.86842,1.1786834
0.4790467,-0.09074306,-0.21102393,0.8521431,-20.207329,1.141344
0.46388733,-0.08787151,-0.2043461,0.82517713,-19.56787,1.1052262
0.4492225,-0.08509363,-0.19788612,0.7990909,-18.949272,1.0702869
0.43503478,-0.08240613,-0.19163631,0.77385336,-18.3508,1.0364841
0.42130736,-0.07980583,-0.18558928,0.7494346,-17.771746,1.0037781
0.40802425,-0.077289686,-0.17973796,0.7258062,-17.211432,0.97213066
0.39517003,-0.07485478,-0.17407557,0.7029407,-16.66921,0.9415051
0.38272992,-0.07249833,-0.16859561,0.6808119,-16.144457,0.9118661
0.37068978,-0.07021763,-0.16329184,0.6593945,-15.636576,0.88318014
0.359036,-0.06801012,-0.15815824,0.63866436,-15.144991,0.8554146
0.34775546,-0.06587332,-0.15318908,0.61859816,-14.669151,0.82853836
0.3368356,-0.06380483,-0.14837879,0.5991736,-14.208526,0.80252147
0.32626432,-0.061802372,-0.14372206,0.58036906,-13.762604,0.77733505
0.31602997,-0.05986374,-0.13921374,0.5621639,-13.330895,0.7529514
0.30612135,-0.057986807,-0.13484892,0.54453814,-12.912926,0.72934383
0.29652768,-0.05616953,-0.13062283,0.5274726,-12.508242,0.7064866
0.28723854,-0.05440994,-0.12653089,0.51094884,-12.116404,0.6843549
0.2782439,-0.05270614,-0.12256868,0.4949489,-11.736989,0.6629249
0.26953414,-0.051056303,-0.11873196,0.4794557,-11.369591,0.64217365
0.26109993,-0.04945866,-0.115016624,0.46445268,-11.013816,0.6220789
0.2529323,-0.04791151,-0.11141872,0.44992384,-10.669286,0.60261923
0.24502258,-0.046413217,-0.107934415,0.43585375,-10.335634,0.58377403
0.23736238,-0.04496219,-0.10456004,0.42222756,-10.012509,0.5655234
0.22994366,-0.043556903,-0.10129203,0.4090309,-9.69957,0.54784805
0.22275862,-0.042195883,-0.09812696,0.39624995,-9.396488,0.5307295
0.21579973,-0.0408777,-0.09506152,0.38387126,-9.102945,0.51414967
0.20905973,-0.039600983,-0.0920925,0.37188193,-8.818636,0.49809143
0.2025316,-0.038364395,-0.0892168,0.3602695,-8.543264,0.48253796
0.19620855,-0.03716666,-0.08643145,0.34902185,-8.276544,0.4674731
0.19008404,-0.036006525,-0.08373355,0.33812737,-8.018196,0.45288125
0.18415172,-0.0348828,-0.08112031,0.3275748,-7.767957,0.4387473
0.17840546,-0.03379432,-0.078589045,0.31735316,-7.5255666,0.42505667
0.17283936,-0.032739967,-0.07613713,0.30745202,-7.290775,0.41179526
0.16744769,-0.031718653,-0.07376205,0.29786113,-7.063341,0.3989494
0.1622249,-0.03072933,-0.07146137,0.28857067,-6.843032,0.38650596
0.15716565,-0.029770985,-0.06923273,0.27957115,-6.6296206,0.37445214
0.15226476,-0.028842637,-0.06707385,0.27085328,-6.422889,0.3627756
0.14751722,-0.027943337,-0.064982526,0.2624082,-6.2226267,0.35146445
0.14291818,-0.027072169,-0.06295661,0.2542273,-6.0286283,0.3405071
0.13846296,-0.026228242,-0.060994048,0.2463022,-5.840697,0.32989237
0.13414702,-0.025410697,-0.059092842,0.23862487,-5.65864,0.31960952
0.12996596,-0.024618704,-0.05725105,0.23118748,-5.482273,0.309648
0.12591554,-0.023851458,-0.055466812,0.22398248,-5.311417,0.29999778
0.121991664,-0.023108179,-0.053738307,0.21700256,-5.1458983,0.290649
0.118190326,-0.022388114,-0.05206379,0.21024062,-4.985549,0.2815922
0.11450769,-0.021690533,-0.05044156,0.20368983,-4.8302064,0.27281818
0.11094002,-0.02101473,-0.04886997,0.19734354,-4.6797137,0.2643181
0.10748371,-0.020360019,-0.047347438,0.19119535,-4.5339184,0.25608334
0.10413527,-0.019725744,-0.04587242,0.18523903,-4.392673,0.24810556
0.1008913,-0.019111259,-0.04444343,0.17946857,-4.2558346,0.24037671
0.09774855,-0.018515944,-0.04305902,0.17387815,-4.1232657,0.232889
0.09470382,-0.0179392,-0.041717798,0.1684621,-3.9948323,0.22563486
0.09175407,-0.017380444,-0.040418405,0.16321498,-3.8704047,0.21860698
0.088896304,-0.016839115,-0.03915954,0.15813151,-3.7498574,0.21179827
0.08612765,-0.016314665,-0.037939925,0.15320654,-3.633069,0.20520186
0.083445325,-0.015806569,-0.036758337,0.14843513,-3.5199223,0.19881113
0.08084662,-0.015314311,-0.03561359,0.14381248,-3.4103026,0.19261964
0.07832893,-0.014837398,-0.03450452,0.13933393,-3.3041003,0.18662114
0.075889714,-0.01437535,-0.03343003,0.13499497,-3.2012084,0.18080963
0.07352652,-0.013927705,-0.032389022,0.13079125,-3.1015232,0.17517924
0.07123697,-0.013494009,-0.03138046,0.12671854,-3.0049446,0.16972433
0.069018774,-0.013073829,-0.030403325,0.12277273,-2.9113758,0.16443941
0.0668697,-0.012666741,-0.02945664,0.11894989,-2.8207226,0.15931916
0.06478758,-0.012272338,-0.028539449,0.115246154,-2.732894,0.15435846
0.06277034,-0.011890223,-0.027650837,0.11165781,-2.6478019,0.1495523
0.060815934,-0.011520012,-0.02678991,0.10818127,-2.5653605,0.14489588
0.05892242,-0.011161335,-0.0259558,0.10481303,-2.4854877,0.14038453
0.057087895,-0.010813831,-0.025147676,0.101549715,-2.408103,0.13601372
0.05531051,-0.010477152,-0.024364725,0.09838805,-2.3331287,0.13177904
0.05358849,-0.010150959,-0.02360616,0.09532487,-2.2604897,0.12767626
0.051920105,-0.009834927,-0.022871224,0.09235709,-2.1901133,0.12370129
0.050303683,-0.009528737,-0.022159176,0.08948175,-2.121929,0.119850114
0.048737604,-0.009232083,-0.021469306,0.08669596,-2.055868,0.11611888
0.047220297,-0.008944669,-0.02080092,0.08399693,-1.9918643,0.11250385
0.045750245,-0.008666205,-0.020153351,0.081381954,-1.929854,0.1090014
0.04432597,-0.008396413,-0.019525947,0.07884841,-1.8697747,0.10560802
0.042946048,-0.008135023,-0.01891808,0.07639376,-1.8115664,0.10232032
0.041609097,-0.007881772,-0.018329144,0.07401556,-1.7551706,0.09913499
0.04031378,-0.007636407,-0.017758545,0.0717114,-1.700531,0.096048854
0.039058793,-0.0073986826,-0.017205713,0.069478996,-1.6475928,0.09305881
0.037842885,-0.00716836,-0.016670095,0.0673161,-1.5963029,0.090161875
0.036664836,-0.006945209,-0.016151156,0.06522055,-1.5466099,0.08735513
0.035523467,-0.006729006,-0.015648374,0.063190244,-1.4984643,0.08463579
0.034417637,-0.0065195346,-0.015161246,0.06122316,-1.4518176,0.082001105
0.033346236,-0.0063165855,-0.014689285,0.059317317,-1.4066235,0.07944846
0.03230819,-0.006119955,-0.014232018,0.057470813,-1.3628362,0.076975286
0.031302467,-0.005929446,-0.013788988,0.0556818,-1.3204124,0.07457911
0.030328054,-0.0057448684,-0.013359752,0.05394848,-1.2793094,0.07225755
0.029383976,-0.0055660373,-0.012943878,0.052269127,-1.239486,0.070008256
0.028469292,-0.005392774,-0.012540952,0.05064206,-1.2009023,0.06782899
0.027583083,-0.0052249045,-0.01215057,0.049065642,-1.16352,0.06571757
0.026724463,-0.005062261,-0.011772341,0.047538307,-1.1273013,0.06367188
0.025892576,-0.0049046814,-0.011405888,0.046058517,-1.0922103,0.06168988
0.025086585,-0.0047520073,-0.011050843,0.044624794,-1.0582118,0.059769582
0.024305686,-0.004604086,-0.01070685,0.043235708,-1.0252715,0.057909064
0.023549097,-0.0044607697,-0.010373566,0.04188986,-0.9933568,0.056106467
0.02281606,-0.004321915,-0.010050658,0.040585916,-0.9624356,0.054359984
0.022105843,-0.0041873828,-0.009737802,0.03932256,-0.932477,0.05266787
0.021417737,-0.0040570386,-0.009434685,0.038098533,-0.903451,0.051028434
0.02075105,-0.0039307517,-0.009141005,0.036912613,-0.8753286,0.049440034
0.020105118,-0.0038083966,-0.008856466,0.035763606,-0.8480816,0.04790108
0.019479292,-0.0036898502,-0.008580785,0.03465037,-0.8216828,0.046410028
0.018872948,-0.003574994,-0.008313686,0.033571787,-0.7961058,0.044965398
0.01828548,-0.0034637132,-0.008054901,0.03252678,-0.771325,0.043565735
0.0177163,-0.0033558966,-0.007804172,0.031514302,-0.7473156,0.042209644
0.017164836,-0.0032514362,-0.0075612483,0.030533342,-0.72405356,0.040895764
