ax,ay,az,gx,gy,gz
-0.8827353,0.08272802,-10.383731,24.413858,-18.088346,-32.40484
-0.1591081,1.7762213,-11.40731,-11.937646,-37.998306,-37.6127
0.23551244,1.4497522,-10.824542,-26.95625,-50.177036,-47.351727
0.1555797,0.78907704,-10.717917,-16.711235,-57.13838,-46.383335
0.074766405,0.9431593,-11.134451,-19.423382,-70.87724,-45.70966
0.41157702,0.826628,-11.182037,-21.340189,-81.04606,-42.60976
0.5666392,0.68752205,-11.2436905,-21.604635,-89.32309,-37.22512
0.44252685,0.5950922,-11.32139,-18.950998,-96.91278,-33.421585
0.27607822,0.5098635,-11.353163,-12.840574,-106.11583,-29.46516
0.2713842,0.40281144,-11.074021,-7.117937,-113.69766,-22.96295
0.25232023,0.37279436,-10.745876,-6.3287406,-121.78848,-16.129982
0.20585608,0.28011128,-10.2616205,-10.4476595,-130.2262,-10.149747
0.28258687,0.029822828,-9.494618,-14.180155,-138.19865,-5.421713
0.55378157,-0.16640471,-8.448805,-18.430853,-145.5243,-1.7476615
1.127275,-0.36029252,-6.844466,-18.38781,-148.01282,0.93031263
1.8470199,-0.43379465,-5.073158,-15.577474,-146.17519,2.5217452
1.7295834,-0.40621328,-4.7505984,-14.587033,-136.88113,2.3614087
1.6246603,-0.38157085,-4.4624085,-13.702127,-128.57741,2.2181566
1.5302963,-0.35940835,-4.203222,-12.906277,-121.10934,2.089321
1.4449267,-0.33935827,-3.9687397,-12.186284,-114.353096,1.9727656
1.3672838,-0.3211229,-3.75548,-11.531455,-108.20834,1.8667592
1.2963294,-0.3044584,-3.5605915,-10.933037,-102.59293,1.7698848
1.2312055,-0.2891633,-3.3817174,-10.383792,-97.43896,1.6809708
1.1711966,-0.2750695,-3.216893,-9.877687,-92.68979,1.5990405
1.1157018,-0.26203588,-3.0644667,-9.409652,-88.29787,1.523273
1.064212,-0.24994287,-2.923041,-8.975395,-84.2229,1.4529737
1.0162935,-0.23868865,-2.791425,-8.571259,-80.43059,1.3875505
0.9715747,-0.2281859,-2.668597,-8.194108,-76.891495,1.3264956
0.92973495,-0.21835934,-2.5536768,-7.8412375,-73.580246,1.2693716
0.8904962,-0.20914365,-2.445901,-7.510304,-70.474846,1.2157989
0.85361636,-0.20048198,-2.3446043,-7.1992655,-67.55614,1.1654466
0.8188835,-0.19232455,-2.2492044,-6.906334,-64.80734,1.1180257
0.78611124,-0.1846276,-2.1591897,-6.6299376,-62.213707,1.0732815
0.7551351,-0.17735249,-2.0741084,-6.36869,-59.762222,1.0309896
0.7258093,-0.17046496,-1.9935601,-6.121361,-57.441345,0.99095094
0.6980042,-0.1639346,-1.9171885,-5.886857,-55.240818,0.9529885
0.67160404,-0.15773422,-1.8446759,-5.664202,-53.15148,0.9169442
0.6465052,-0.15183945,-1.7757376,-5.4525223,-51.16513,0.88267666
0.6226145,-0.14622845,-1.7101178,-5.2510324,-49.2744,0.8500586
0.59984815,-0.1408815,-1.6475861,-5.0590243,-47.47264,0.81897557
0.57813025,-0.13578078,-1.5879341,-4.8758593,-45.753864,0.78932405
0.5573921,-0.13091019,-1.5309733,-4.700957,-44.112625,0.76101017
0.5375713,-0.12625504,-1.476532,-4.533791,-42.543983,0.7339487
0.51861095,-0.12180196,-1.4244541,-4.3738823,-41.043438,0.70806205
0.5004591,-0.11753878,-1.3745968,-4.220793,-39.60688,0.6832792
0.48306817,-0.11345432,-1.3268298,-4.0741205,-38.230545,0.6595353
0.4663946,-0.10953833,-1.2810329,-3.9334981,-36.91098,0.6367708
0.45039827,-0.105781406,-1.2370963,-3.7985878,-35.645016,0.6149309
0.43504223,-0.102174856,-1.1949183,-3.6690772,-34.42972,0.59396523
0.42029232,-0.09871066,-1.1544051,-3.544679,-33.262398,0.57382715
0.406117,-0.095381424,-1.1154702,-3.4251266,-32.140545,0.5544735
0.392487,-0.09218025,-1.078033,-3.3101733,-31.061852,0.5358644
0.3793751,-0.08910077,-1.042019,-3.1995897,-30.024164,0.5179627
0.36675608,-0.086137034,-1.0073587,-3.0931628,-29.025478,0.50073385
0.3546063,-0.08328352,-0.97398716,-2.9906936,-28.063932,0.48414573
0.3429038,-0.08053505,-0.9418443,-2.8919964,-27.137785,0.46816823
0.331628,-0.07788679,-0.9108733,-2.7968981,-26.245405,0.4527733
0.3207596,-0.07533421,-0.8810214,-2.7052357,-25.385267,0.43793464
0.31028053,-0.072873086,-0.85223883,-2.616857,-24.555943,0.42362753
0.30017382,-0.070499405,-0.82447904,-2.5316186,-23.756086,0.40982878
0.29042348,-0.068209425,-0.7976981,-2.449386,-22.984434,0.39651662
0.2810145,-0.065999605,-0.77185464,-2.3700318,-22.239796,0.38367045
0.2719326,-0.063866615,-0.7469097,-2.2934365,-21.521046,0.37127092
0.26316443,-0.06180731,-0.7228264,-2.2194872,-20.827124,0.3592997
0.25469732,-0.059818704,-0.69957,-2.1480768,-20.157026,0.3477395
0.24651922,-0.057897978,-0.6771074,-2.0791042,-19.509802,0.3365739
0.23861876,-0.056042463,-0.6554075,-2.0124729,-18.884552,0.32578737
0.23098516,-0.054249622,-0.6344405,-1.9480923,-18.28042,0.31536517
0.22360817,-0.05251704,-0.61417824,-1.8858758,-17.696596,0.30529332
0.21647799,-0.050842438,-0.594594,-1.8257412,-17.132307,0.29555845
0.20958538,-0.049223628,-0.5756623,-1.76761,-16.586819,0.28614795
0.20292148,-0.047658533,-0.55735874,-1.7114078,-16.05943,0.2770497
0.19647788,-0.04614517,-0.5396603,-1.6570634,-15.549476,0.2682522
0.19024651,-0.04468166,-0.52254474,-1.6045089,-15.056317,0.25974447
0.18421967,-0.04326619,-0.50599104,-1.5536796,-14.579349,0.251516
0.17839007,-0.041897036,-0.489979,-1.5045136,-14.117987,0.24355683
0.17275064,-0.04057255,-0.47448936,-1.4569516,-13.671676,0.2358573
0.16729468,-0.03929115,-0.45950362,-1.4109368,-13.239885,0.22840825
0.16201574,-0.03805133,-0.4450041,-1.3664151,-12.822104,0.22120088
0.15690766,-0.036851633,-0.43097386,-1.3233343,-12.417845,0.21422678
0.1519645,-0.035690676,-0.41739663,-1.2816446,-12.026638,0.20747788
0.1471806,-0.03456712,-0.40425685,-1.241298,-11.648035,0.2009464
0.14255051,-0.033479687,-0.3915395,-1.2022485,-11.281605,0.19462492
0.13806899,-0.03242715,-0.37923023,-1.1644521,-10.926932,0.18850628
0.13373101,-0.03140832,-0.3673152,-1.1278661,-10.583619,0.1825836
0.12953173,-0.030422071,-0.35578117,-1.0924501,-10.251284,0.17685029
0.1254665,-0.029467301,-0.34461528,-1.0581645,-9.929556,0.17130001
0.12153082,-0.028542964,-0.3338053,-1.0249717,-9.618083,0.16592662
0.11772042,-0.027648045,-0.32333937,-0.9928354,-9.316524,0.16072427
0.11403112,-0.026781568,-0.31320608,-0.96172047,-9.024549,0.15568724
0.11045894,-0.0259426,-0.30339447,-0.93159324,-8.741842,0.15081012
0.107000016,-0.02513023,-0.29389393,-0.9024212,-8.468099,0.14608765
0.10365064,-0.024343587,-0.28469428,-0.87417305,-8.203026,0.14151472
0.10040722,-0.023581833,-0.27578568,-0.8468186,-7.946338,0.13708647
0.09726632,-0.022844154,-0.26715866,-0.8203287,-7.6977634,0.13279818
0.094224595,-0.022129769,-0.25880405,-0.7946753,-7.457038,0.12864529
0.09127883,-0.02143792,-0.250713,-0.7698312,-7.223907,0.124623425
0.08842593,-0.020767882,-0.242877,-0.7457703,-6.998125,0.12072834
0.08566288,-0.02011895,-0.23528783,-0.7224672,-6.7794547,0.11695595
0.08298681,-0.019490441,-0.22793755,-0.69989765,-6.5676675,0.1133023
0.08039491,-0.018881705,-0.22081845,-0.678038,-6.3625417,0.10976356
0.07788449,-0.018292101,-0.21392314,-0.6568655,-6.163864,0.10633607
0.07545293,-0.01772102,-0.20724444,-0.6363581,-5.971428,0.10301626
0.07309772,-0.017167872,-0.20077546,-0.6164946,-5.7850337,0.09980067
0.07081641,-0.01663208,-0.19450946,-0.59725446,-5.604489,0.096686
0.06860667,-0.016113093,-0.18844001,-0.57861775,-5.4296074,0.09366902
0.0664662,-0.015610379,-0.18256083,-0.5605654,-5.260208,0.09074662
0.064392805,-0.015123418,-0.1768659,-0.5430787,-5.096117,0.08791581
0.062384356,-0.014651709,-0.17134936,-0.5261398,-4.9371667,0.08517367
0.060438797,-0.014194773,-0.16600555,-0.50973123,-4.783193,0.082517385
0.058554135,-0.013752137,-0.16082901,-0.4938363,-4.634039,0.079944246
0.056728445,-0.013323352,-0.15581444,-0.47843874,-4.4895515,0.077451624
0.054959863,-0.01290798,-0.15095672,-0.4635228,-4.349584,0.07503697
0.053246588,-0.0125055965,-0.1462509,-0.44907328,-4.2139935,0.072697826
0.05158687,-0.012115791,-0.1416922,-0.43507552,-4.0826416,0.070431806
0.049979027,-0.011738171,-0.137276,-0.4215152,-3.9553952,0.06823661
0.04842142,-0.011372348,-0.13299775,-0.4083786,-3.8321245,0.06611
0.046912473,-0.011017953,-0.12885317,-0.39565235,-3.7127047,0.064049825
0.04545065,-0.0106746275,-0.124838024,-0.38332358,-3.5970144,0.062053993
0.044034474,-0.0103420215,-0.120948255,-0.3713798,-3.4849367,0.060120482
0.04266251,-0.010019799,-0.117179915,-0.35980886,-3.376358,0.05824733
0.04133337,-0.009707634,-0.113529205,-0.3485991,-3.2711682,0.05643265
0.04004571,-0.0094052125,-0.10999242,-0.33773917,-3.1692615,0.054674603
0.038798228,-0.009112227,-0.106566004,-0.32721812,-3.0705345,0.052971408
0.037589666,-0.008828381,-0.10324648,-0.3170253,-2.9748876,0.051321354
0.036418803,-0.00855339,-0.10003051,-0.30715045,-2.8822243,0.049722772
0.035284463,-0.008286977,-0.09691484,-0.29758358,-2.7924511,0.04817405
0.034185495,-0.008028871,-0.093896344,-0.28831506,-2.7054777,0.046673626
0.033120796,-0.0077788145,-0.09097197,-0.27933556,-2.6212163,0.045219988
0.032089297,-0.007536554,-0.08813877,-0.27063605,-2.5395823,0.04381167
0.031089952,-0.007301846,-0.0853939,-0.26220775,-2.460493,0.04244726
0.03012176,-0.007074455,-0.08273459,-0.25404218,-2.3838692,0.041125387
0.029183747,-0.0068541514,-0.08015818,-0.2461311,-2.309634,0.039844714
0.02827497,-0.006640714,-0.077662066,-0.23846662,-2.2377121,0.038603954
0.027394515,-0.0064339284,-0.07524374,-0.231041,-2.168032,0.037401862
0.026541496,-0.006233587,-0.07290078,-0.22384678,-2.1005232,0.036237232
0.025715059,-0.006039488,-0.070630826,-0.21687673,-2.035118,0.035108894
0.02491437,-0.005851437,-0.0684316,-0.21012387,-1.9717507,0.03401571
0.02413863,-0.005669245,-0.0663009,-0.20358138,-1.9103577,0.03295659
0.023387056,-0.005492729,-0.064236574,-0.19724274,-1.8508774,0.03193046
0.022658896,-0.0053217122,-0.062236555,-0.19110155,-1.79325,0.0309363
0.02195342,-0.0051560225,-0.06029884,-0.18515167,-1.7374178,0.02997311
0.02126992,-0.004995494,-0.05842149,-0.17938714,-1.6833248,0.029039923
0.020607708,-0.004839966,-0.056602612,-0.17380215,-1.6309166,0.028135803
0.019966122,-0.004689282,-0.054840386,-0.16839111,-1.5801408,0.027259843
0.01934452,-0.004543291,-0.053133048,-0.16314861,-1.5309465,0.026411166
0.018742276,-0.0044018473,-0.051478885,-0.15806939,-1.4832844,0.02558892
0.01815879,-0.0042648083,-0.049876235,-0.15314835,-1.4371065,0.024792284
0.017593473,-0.004132037,-0.048323497,-0.14838056,-1.3923668,0.024020454
0.017045762,-0.0040034004,-0.046819117,-0.14376126,-1.3490204,0.023272661
0.016515106,-0.0038787697,-0.04536158,-0.1392858,-1.3070238,0.022548156
0.016000977,-0.00375802,-0.043949433,-0.1349497,-1.2663349,0.02184621
0.015502855,-0.0036410303,-0.042581256,-0.13074863,-1.226913,0.021166123
0.015020245,-0.0035276834,-0.041255683,-0.12667836,-1.1887187,0.020507213
0.014552661,-0.003417866,-0.039971385,-0.122734845,-1.1517136,0.019868819
0.014099637,-0.0033114678,-0.038727075,-0.118914105,-1.1158608,0.019250304
0.013660718,-0.0032083825,-0.03752151,-0.115212336,-1.0811243,0.018651044
0.013235466,-0.0031085068,-0.03635348,-0.11162582,-1.0474693,0.018070444
0.012823453,-0.0030117407,-0.03522182,-0.108150974,-1.0148622,0.017507922
0.012424268,-0.0029179875,-0.034125388,-0.10478431,-0.9832702,0.016962914
0.012037512,-0.0028271533,-0.033063095,-0.10152247,-0.95266193,0.016434873
0.011662796,-0.0027391468,-0.032033876,-0.09836218,-0.92300653,0.015923273
0.011299747,-0.0026538805,-0.0310367,-0.09530028,-0.8942744,0.0154276
0.010948001,-0.0025712687,-0.030070568,-0.09233371,-0.86643684,0.014947359
0.010607205,-0.0024912287,-0.029134514,-0.089459494,-0.8394659,0.014482069
0.010277019,-0.0024136805,-0.028227601,-0.08667476,-0.81333464,0.014031265
0.009957112,-0.0023385466,-0.027348923,-0.083976716,-0.78801686,0.013594494
0.009647165,-0.0022657518,-0.026497597,-0.081362665,-0.7634873,0.013171322
0.009346866,-0.002195223,-0.025672777,-0.07883,-0.7397213,0.012761323
0.009055916,-0.00212689,-0.024873631,-0.07637617,-0.7166952,0.012364087
0.008774024,-0.0020606841,-0.024099365,-0.073998734,-0.69438595,0.011979218
0.008500907,-0.0019965393,-0.023349203,-0.071695305,-0.67277116,0.01160633
0.008236292,-0.0019343914,-0.022622392,-0.06946358,-0.65182924,0.01124505
0.007979915,-0.0018741781,-0.021918207,-0.06730134,-0.6315392,0.010895017
0.0077315182,-0.0018158392,-0.021235945,-0.0652064,-0.61188084,0.010555879
0.0074908542,-0.0017593164,-0.020574918,-0.06317668,-0.5928344,0.010227299
0.007257682,-0.0017045531,-0.019934472,-0.06121014,-0.57438093,0.009908948
0.007031768,-0.0016514946,-0.01931396,-0.05930482,-0.55650187,0.009600507
0.006812887,-0.0016000877,-0.018712765,-0.05745881,-0.5391794,0.009301667
0.006600819,-0.0015502811,-0.018130284,-0.055670265,-0.5223961,0.00901213
