ax,ay,az,gx,gy,gz
-3.070937,0.33909398,-3.7109425,1.3872854,23.471123,-8.267347
-2.8389277,0.6268353,-3.7028701,-0.1751858,22.29181,-6.334632
-2.792092,0.54803604,-3.6550834,7.593783,20.23589,1.452255
-2.8770177,0.54753757,-3.3461158,6.8704295,16.581917,3.293146
-2.803221,0.59813964,-3.0890007,5.32207,14.381951,0.7768501
-2.549985,0.7328253,-2.8414278,2.390901,13.648343,-2.099174
-2.3321853,0.83718383,-2.6305585,-1.461008,13.024433,-2.1044302
-2.2507308,0.8431927,-2.5236726,-6.3242683,11.126952,-0.42875
-2.1993825,0.7839229,-2.4954906,-10.231353,8.037062,1.1702462
-2.1108181,0.7392096,-2.4976819,-12.042983,5.0608053,1.5422524
-1.981369,0.7068235,-2.5316637,-12.212,2.6986272,1.3358107
-1.8506428,0.71398944,-2.5613294,-12.264122,1.0253062,1.2049603
-1.7617669,0.7399642,-2.6256766,-12.235092,-0.40248206,1.5144861
-1.7207195,0.7882388,-2.7414634,-12.5353775,-2.2508934,2.326364
-1.7218704,0.83092177,-2.9245307,-13.068815,-4.616003,3.452086
-1.7641591,0.8182162,-3.191488,-13.423592,-7.594133,4.413415
-1.8752897,0.71748924,-3.5669699,-13.175459,-10.914356,4.7770114
-2.027417,0.56307006,-3.9709322,-12.172536,-14.717593,4.5538893
-2.2217941,0.36413425,-4.354221,-10.299178,-18.999557,3.761189
-2.45661,0.15241781,-4.689763,-7.1572843,-23.85059,2.567352
-2.674311,0.04191645,-4.9551187,-3.0731497,-30.15495,0.8682362
-2.7505796,0.104297906,-5.0776873,0.5071077,-37.132523,-0.45643365
-2.7335703,0.25459257,-5.0663495,2.762902,-44.37072,-1.0314265
-2.697134,0.37699828,-4.957496,3.9758477,-51.558014,-1.1626136
-2.65164,0.416042,-4.808548,4.9963436,-58.378235,-1.4285456
-2.556218,0.42111656,-4.6414127,6.2473664,-64.86961,-2.3738606
-2.3297217,0.45105436,-4.38546,7.2605057,-70.92722,-3.4734294
-2.0276172,0.47481295,-4.0606623,7.8138504,-76.41116,-4.193413
-1.6615044,0.4690074,-3.7036338,8.039856,-81.22923,-4.417586
-1.237373,0.43448403,-3.3320413,8.03024,-85.02912,-4.1177845
-0.7711498,0.40418968,-2.946715,7.882213,-87.25326,-3.8056905
-0.2919483,0.41988796,-2.510214,7.573903,-88.096245,-3.717896
0.13855195,0.4155302,-2.0865068,7.268349,-87.68498,-3.3370636
0.4904104,0.3969105,-1.7082452,7.056498,-86.5146,-2.7077353
0.78022134,0.3790886,-1.3678066,7.0266147,-84.66703,-2.130888
1.0185338,0.39682233,-1.054905,7.2437654,-81.95195,-1.901957
1.2058856,0.46127835,-0.7755527,7.3899198,-78.66534,-1.8415563
1.3364286,0.54221463,-0.5402037,7.268839,-74.95452,-1.6837904
1.3954276,0.6164094,-0.36019546,6.727328,-71.22611,-1.3035462
1.3958507,0.66612387,-0.23173283,5.876504,-67.63297,-0.82067555
1.3621124,0.69312876,-0.1478178,4.877029,-64.063896,-0.77108556
1.3152966,0.69179696,-0.10302141,3.9883585,-60.515717,-1.1966207
1.269556,0.6823452,-0.07297252,3.1845496,-57.09191,-2.0005372
1.2247783,0.65827864,-0.07039875,3.0722291,-55.078255,-1.9299774
1.1819099,0.63523823,-0.06793473,2.9646983,-53.150463,-1.8624264
1.1408386,0.61316377,-0.065574005,2.8616753,-51.30349,-1.7977073
1.1014615,0.5919998,-0.06331065,2.7629018,-49.5327,-1.7356577
1.0636837,0.5716955,-0.061139237,2.6681402,-47.833836,-1.6761284
1.0274181,0.55220395,-0.059054732,2.5771716,-46.202972,-1.6189818
0.992584,0.5334817,-0.057052508,2.4897938,-44.636482,-1.564091
0.95910686,0.5154888,-0.055128284,2.40582,-43.131012,-1.5113385
0.9269175,0.4981881,-0.053278077,2.3250763,-41.68346,-1.4606153
0.8959518,0.48154506,-0.05149821,2.247402,-40.290936,-1.4118202
0.8661501,0.46552756,-0.04978524,2.1726475,-38.95075,-1.3648592
0.8374565,0.45010573,-0.048135974,2.1006727,-37.6604,-1.3196447
0.8098193,0.43525162,-0.046547417,2.0313475,-36.417557,-1.2760946
0.7831898,0.4209391,-0.045016784,1.9645501,-35.220028,-1.2341324
0.7575224,0.4071437,-0.043541458,1.9001662,-34.065765,-1.1936864
0.7327745,0.39384252,-0.042118978,1.8380888,-32.952854,-1.1546892
0.708906,0.381014,-0.040747046,1.778217,-31.879486,-1.1170777
0.6858791,0.36863777,-0.039423488,1.7204565,-30.843967,-1.0807924
0.6636583,0.35669482,-0.038146265,1.6647179,-29.8447,-1.0457774
0.64221007,0.34516707,-0.036913447,1.6109172,-28.880173,-1.0119798
0.6215027,0.33403754,-0.035723213,1.558975,-27.948963,-0.9793497
0.6015063,0.32329014,-0.03457384,1.5088161,-27.049726,-0.9478398
0.5821925,0.31290957,-0.03346371,1.4603693,-26.181183,-0.9174055
0.5635344,0.30288145,-0.032391265,1.4135674,-25.342129,-0.8880045
0.5455065,0.29319203,-0.031355042,1.3683463,-24.531414,-0.85959655
0.5280846,0.28382832,-0.03035365,1.3246453,-23.747952,-0.8321435
0.5112456,0.27477792,-0.029385768,1.2824064,-22.990704,-0.805609
0.49496764,0.26602906,-0.028450131,1.2415749,-22.258684,-0.7799586
0.47922984,0.2575705,-0.027545543,1.2020983,-21.550955,-0.7551593
0.4640123,0.24939156,-0.026670855,1.1639266,-20.866623,-0.73117983
0.44929594,0.241482,-0.025824979,1.1270121,-20.204828,-0.70799017
0.4350627,0.23383209,-0.025006868,1.0913095,-19.56476,-0.6855618
0.4212952,0.2264325,-0.024215529,1.0567752,-18.945635,-0.66386724
0.40797684,0.21927431,-0.023450006,1.0233675,-18.346708,-0.6428805
0.39509174,0.212349,-0.022709388,0.9910466,-17.767267,-0.6225765
0.38262475,0.20564838,-0.021992799,0.9597744,-17.206625,-0.6029312
0.3705612,0.19916463,-0.021299403,0.9295143,-16.66413,-0.5839218
0.3588872,0.19289023,-0.020628395,0.90023124,-16.13915,-0.5655262
0.3475893,0.18681797,-0.019979006,0.8718917,-15.6310835,-0.54772323
0.33665466,0.18094096,-0.019350495,0.84446317,-15.139352,-0.5304926
0.32607085,0.17525251,-0.018742152,0.81791484,-14.6634,-0.5138149
0.31582606,0.16974626,-0.018153293,0.79221684,-14.20269,-0.4976714
0.3059088,0.16441606,-0.017583262,0.7673404,-13.756712,-0.48204404
0.29630813,0.15925601,-0.017031427,0.7432582,-13.32497,-0.46691552
0.28701347,0.15426043,-0.016497182,0.7199434,-12.906989,-0.4522692
0.2780146,0.14942384,-0.015979938,0.69737077,-12.502311,-0.438089
0.26930177,0.14474097,-0.015479135,0.67551553,-12.110496,-0.42435953
0.26086554,0.14020675,-0.01499423,0.65435404,-11.731117,-0.41106588
0.25269675,0.1358163,-0.014524698,0.6338635,-11.363768,-0.39819372
0.24478668,0.1315649,-0.014070038,0.61402196,-11.008052,-0.38572922
0.23712687,0.12744801,-0.013629761,0.5948081,-10.66359,-0.37365904
0.22970915,0.12346122,-0.013203399,0.5762015,-10.330015,-0.3619704
0.22252566,0.11960032,-0.012790501,0.5581825,-10.006974,-0.3506508
0.21556878,0.11586123,-0.012390628,0.5407319,-9.694123,-0.33968833
0.20883122,0.11224001,-0.012003362,0.5238314,-9.391135,-0.32907143
0.20230588,0.10873285,-0.011628293,0.5074633,-9.097691,-0.31878895
0.19598593,0.10533608,-0.01126503,0.49161035,-8.813483,-0.3088301
0.18986477,0.102046154,-0.010913193,0.47625604,-8.538215,-0.29918453
0.18393603,0.098859645,-0.010572417,0.4613844,-8.271599,-0.28984216
0.17819354,0.09577324,-0.010242345,0.44697994,-8.013359,-0.28079325
0.17263134,0.09278375,-0.009922638,0.43302777,-7.7632275,-0.27202848
0.1672437,0.089888066,-0.009612963,0.41951343,-7.5209455,-0.26353878
0.16202505,0.087083206,-0.009313,0.40642297,-7.2862625,-0.25531533
0.15697,0.084366284,-0.009022443,0.39374292,-7.0589375,-0.2473497
0.15207337,0.0817345,-0.0087409895,0.38146022,-6.8387356,-0.2396337
0.1473301,0.07918516,-0.008468353,0.36956227,-6.625432,-0.23215939
0.14273538,0.07671563,-0.008204254,0.35803688,-6.418807,-0.22491911
0.13828446,0.074323416,-0.007948421,0.3468722,-6.2186494,-0.21790548
0.13397282,0.07200605,-0.007700593,0.33605692,-6.024755,-0.21111129
0.12979606,0.069761164,-0.0074605173,0.3255799,-5.8369255,-0.20452963
0.12574989,0.06758649,-0.007227949,0.31543052,-5.6549697,-0.19815378
0.12183022,0.06547979,-0.0070026508,0.30559844,-5.478702,-0.19197725
0.118033044,0.06343894,-0.0067843944,0.29607362,-5.3079433,-0.18599375
0.11435452,0.061461847,-0.0065729576,0.28684643,-5.1425204,-0.18019722
0.110790916,0.059546523,-0.0063681253,0.2779075,-4.982265,-0.17458177
0.1073386,0.057691015,-0.0061696908,0.2692477,-4.8270144,-0.1691417
0.10399409,0.055893447,-0.0059774523,0.26085836,-4.676612,-0.16387148
0.100753985,0.054151997,-0.005791215,0.2527309,-4.5309043,-0.15876581
0.09761502,0.052464906,-0.005610791,0.24485712,-4.389745,-0.15381949
0.09457401,0.050830465,-0.005435998,0.23722908,-4.252991,-0.14902754
0.091627896,0.049247023,-0.005266659,0.22983906,-4.1205044,-0.14438513
0.0887737,0.04771298,-0.0051026028,0.22267959,-3.992151,-0.13988754
0.08600853,0.046226796,-0.0049436647,0.21574345,-3.8678017,-0.13553025
0.0833296,0.04478696,-0.0047896835,0.20902365,-3.7473307,-0.13130887
0.08073423,0.04339203,-0.0046405043,0.20251343,-3.6306167,-0.12721914
0.07821979,0.042040598,-0.004495977,0.1962062,-3.517542,-0.12325693
0.07578374,0.0407313,-0.004355956,0.19009562,-3.4079928,-0.11941826
0.07342363,0.039462823,-0.0042203004,0.18417555,-3.3018591,-0.11569927
0.0711371,0.038233887,-0.004088873,0.17844003,-3.199034,-0.112096205
0.06892184,0.037043255,-0.0039615426,0.17288329,-3.0994139,-0.10860545
0.06677563,0.035889734,-0.003838181,0.16749972,-3.0028985,-0.10522349
0.0646963,0.03477216,-0.0037186637,0.16228394,-2.9093912,-0.101946935
0.062681764,0.033689417,-0.0036028707,0.15723069,-2.8187976,-0.09877248
0.060730007,0.03264041,-0.0034906862,0.15233491,-2.7310271,-0.09569695
0.058839064,0.031624086,-0.0033819969,0.14759167,-2.6459913,-0.09271724
0.057007033,0.03063943,-0.003276694,0.1429962,-2.563605,-0.08983037
0.055232078,0.02968545,-0.003174672,0.13854392,-2.4837854,-0.087033436
0.053512417,0.02876119,-0.003075828,0.13423035,-2.4064522,-0.08432364
0.05184633,0.027865719,-0.0029800632,0.13005112,-2.3315282,-0.08169825
0.05023214,0.026998144,-0.0028872814,0.12600209,-2.258938,-0.07915464
0.048668224,0.026157591,-0.0027973896,0.122079186,-2.188609,-0.076690264
0.047153022,0.02534322,-0.0027102977,0.11827846,-2.1204705,-0.07430264
0.045685016,0.024554214,-0.0026259185,0.11459611,-2.054454,-0.071989395
0.044262726,0.02378978,-0.002544167,0.11102845,-1.9904938,-0.069748186
0.042884734,0.023049153,-0.0024649617,0.10757189,-1.9285254,-0.06757677
0.041549653,0.022331592,-0.002388223,0.10422298,-1.868487,-0.06547298
0.04025615,0.021636374,-0.002313874,0.10097837,-1.8103182,-0.06343471
0.03900293,0.020962808,-0.0022418404,0.09783479,-1.7539608,-0.061459914
0.03778873,0.020310218,-0.0021720498,0.0947891,-1.6993583,-0.05954661
0.036612343,0.019677946,-0.0021044323,0.091838256,-1.6464562,-0.05769288
0.035472583,0.019065363,-0.0020389205,0.08897929,-1.5952013,-0.05589688
0.034368314,0.018471854,-0.0019754486,0.08620934,-1.5455424,-0.0541568
0.03329843,0.017896825,-0.0019139528,0.08352565,-1.4974296,-0.052470896
0.032261856,0.0173397,-0.0018543719,0.08092551,-1.450815,-0.050837487
0.03125756,0.016799923,-0.0017966459,0.078406334,-1.4056517,-0.04925494
0.030284528,0.016276952,-0.0017407174,0.07596559,-1.3618945,-0.04772166
0.029341793,0.015770262,-0.0016865302,0.073600836,-1.3194997,-0.04623612
0.02842841,0.015279347,-0.00163403,0.07130971,-1.2784249,-0.044796832
0.027543461,0.014803717,-0.0015831643,0.06908991,-1.2386289,-0.04340235
0.026686067,0.014342895,-0.0015338822,0.06693922,-1.2000718,-0.04205129
0.025855364,0.01389642,-0.0014861345,0.06485549,-1.1627151,-0.040742286
0.025050523,0.013463844,-0.0014398732,0.06283663,-1.1265215,-0.039474037
0.02427074,0.0130447345,-0.0013950522,0.060880624,-1.0914546,-0.038245272
0.02351523,0.012638674,-0.0013516266,0.058985513,-1.0574794,-0.03705476
0.022783242,0.012245254,-0.0013095528,0.057149395,-1.0245619,-0.035901308
0.022074042,0.011864082,-0.0012687888,0.05537044,-0.99266917,-0.034783766
0.02138692,0.011494775,-0.0012292939,0.053646863,-0.9617693,-0.033701014
0.020721188,0.011136966,-0.0011910284,0.051976945,-0.93183136,-0.03265197
0.02007618,0.010790296,-0.0011539542,0.05035901,-0.90282536,-0.031635582
0.019451251,0.010454417,-0.001118034,0.048791442,-0.87472236,-0.030650834
0.018845778,0.0101289945,-0.0010832321,0.047272675,-0.84749424,-0.029696742
0.018259153,0.009813702,-0.0010495136,0.045801185,-0.82111365,-0.02877235
0.017690787,0.009508224,-0.0010168448,0.0443755,-0.79555434,-0.027876735
0.017140117,0.009212256,-0.0009851928,0.042994197,-0.77079064,-0.027009
0.016606586,0.008925501,-0.0009545261,0.041655894,-0.7467978,-0.026168276
0.016089665,0.008647673,-0.00092481414,0.04035925,-0.72355187,-0.025353722
0.015588835,0.008378493,-0.000896027,0.03910297,-0.70102954,-0.024564525
