ax,ay,az,gx,gy,gz
-0.7090973,-0.2954572,-2.8845718,-14.204675,6.159147,-17.47834
-0.6561631,-0.11608779,-2.750412,-6.622334,5.2309194,-13.541608
-0.6173305,-0.056920055,-2.4322836,-5.527663,5.493033,-11.828309
-0.5553132,-0.081665196,-2.2432227,-4.6226916,6.6436205,-9.560091
-0.48915333,-0.059040852,-2.109404,-6.2154217,7.235619,-6.1324406
-0.5063389,-0.11265282,-2.0350323,-8.782763,7.199771,-2.521709
-0.6109096,-0.15323691,-1.9917812,-10.142701,5.91954,-1.6391252
-0.70730656,-0.1797226,-1.9194254,-11.077064,4.025188,-2.3765156
-0.7488694,-0.19830395,-1.8187569,-11.746211,1.7817208,-2.8984482
-0.707727,-0.16934174,-1.6749405,-12.390012,-0.3894181,-3.187613
-0.57567465,-0.094223276,-1.4954844,-13.067469,-1.645424,-3.311612
-0.41890395,-0.012703144,-1.3332162,-13.556004,-1.22496,-2.8160062
-0.33850473,0.03392991,-1.2439736,-13.956755,-0.774428,-2.1058917
-0.33501348,0.031007323,-1.244351,-14.004069,-0.44595146,-1.4071203
-0.37728816,0.014252086,-1.306255,-13.497322,-0.4316745,-1.0703207
-0.44650906,-0.007841356,-1.4118711,-12.594369,-0.7457858,-1.1620173
-0.52945065,-0.022856701,-1.5627584,-11.37059,-1.4279665,-1.4335097
-0.6459586,-0.020620832,-1.8006359,-10.299413,-2.5632315,-1.602003
-0.78936607,-0.029413277,-2.1001873,-9.297064,-4.420863,-1.668507
-0.961279,-0.0734056,-2.4408636,-8.094028,-6.813042,-1.9874089
-1.1770633,-0.15403986,-2.8015933,-6.3504915,-9.798819,-2.7136676
-1.420912,-0.2567888,-3.1736975,-3.9209757,-14.174412,-3.3931906
-1.671399,-0.3359732,-3.5443125,-1.4580492,-19.686766,-3.943278
-1.9118134,-0.39821532,-3.8874748,0.9482898,-26.194088,-4.587021
-2.1331959,-0.45847636,-4.1925516,3.6536589,-33.36295,-5.535155
-2.2891283,-0.4925132,-4.428169,6.651128,-41.186237,-6.781064
-2.3164089,-0.45439714,-4.545097,9.671497,-49.40953,-8.292307
-2.2119746,-0.35440746,-4.532728,12.001417,-57.295914,-9.514665
-1.9588891,-0.23712693,-4.3593645,13.50321,-64.53263,-10.019603
-1.6403364,-0.095231,-4.067127,14.378432,-70.8223,-10.297408
-1.2475848,0.046624653,-3.6961684,14.612077,-76.142365,-10.265253
-0.7994113,0.17342713,-3.2862191,13.684729,-80.286,-8.946062
-0.33711615,0.24384642,-2.8789198,11.971895,-83.709656,-6.948988
0.111545525,0.26178142,-2.4828312,10.1846,-86.07022,-5.0902495
0.54038113,0.26408118,-2.0981755,8.717695,-87.04401,-3.7500768
0.9270205,0.2693647,-1.7323934,7.4694805,-86.72569,-2.6360447
1.2439711,0.28379908,-1.3988231,6.1089163,-85.23921,-1.1858581
1.4716394,0.28249857,-1.1380514,4.8199763,-83.26946,0.40496686
1.6377589,0.26126882,-0.93225515,4.177244,-80.8239,1.6282412
1.7545953,0.24732745,-0.75925326,4.2008204,-77.80379,2.1511955
1.8239437,0.26244956,-0.6014961,4.579067,-74.44985,2.2235637
1.8560145,0.3113974,-0.45067644,4.986237,-70.9845,2.1350496
1.8669308,0.3784137,-0.3051412,5.3385205,-67.55956,1.9354144
1.8797364,0.4443901,-0.15936354,5.649658,-64.126175,1.5377963
1.9139416,0.48861763,-0.014271946,5.8492804,-60.66402,0.9135968
1.8474323,0.4716382,-0.013775997,5.6460185,-58.55595,0.8818494
1.7836664,0.45535916,-0.013300505,5.4511404,-56.534836,0.8514115
1.7224904,0.4397413,-0.012844326,5.2641783,-54.595814,0.82220995
1.6637633,0.42474863,-0.012406407,5.084699,-52.7344,0.7941772
1.6073542,0.41034773,-0.011985773,4.912305,-50.94647,0.767251
1.5531424,0.3965078,-0.011581526,4.7466264,-49.22818,0.7413737
1.5010163,0.3832003,-0.011192829,4.5873213,-47.575996,0.7164919
1.4508715,0.37039867,-0.010818909,4.4340715,-45.986618,0.6925559
1.4026116,0.3580782,-0.010459042,4.2865825,-44.456978,0.66951966
1.3561465,0.3462159,-0.010112559,4.144578,-42.984222,0.64734
1.3113917,0.33479032,-0.00977883,4.007801,-41.565685,0.6259769
1.2682688,0.32378128,-0.009457271,3.8760116,-40.198868,0.6053927
1.226704,0.31317005,-0.009147328,3.7489836,-38.881435,0.5855523
1.1866281,0.30293894,-0.008848489,3.626506,-37.6112,0.5664226
1.1479764,0.29307136,-0.008560269,3.5083807,-36.386093,0.54797256
1.1106875,0.28355175,-0.008282213,3.3944204,-35.204193,0.5301732
1.0747039,0.27436537,-0.008013889,3.2844496,-34.063663,0.51299685
1.0399715,0.26549837,-0.0077548944,3.178302,-32.962788,0.49641773
1.0064387,0.25693768,-0.007504847,3.0758212,-31.899939,0.4804113
0.97405726,0.24867089,-0.007263384,2.9768589,-30.87358,0.4649544
0.94278115,0.24068628,-0.007030163,2.8812747,-29.882257,0.45002514
0.9125669,0.23297277,-0.00680486,2.7889354,-28.924591,0.43560275
0.8833732,0.22551979,-0.0065871673,2.6997154,-27.999271,0.42166746
0.8551608,0.21831733,-0.006376792,2.6134942,-27.105053,0.40820062
0.82789236,0.21135588,-0.006173456,2.5301578,-26.240759,0.39518437
0.80153245,0.20462635,-0.005976895,2.4495983,-25.405258,0.3826018
0.7760472,0.19812013,-0.0057868557,2.3717117,-24.597483,0.37043673
0.75140446,0.19182898,-0.005603099,2.2963998,-23.816408,0.3586738
0.7275734,0.18574505,-0.005425394,2.2235687,-23.061062,0.34729832
0.7045246,0.17986083,-0.005253523,2.1531281,-22.330511,0.33629626
0.68223,0.17416915,-0.005087276,2.0849926,-21.623863,0.3256542
0.6606627,0.16866316,-0.0049264524,2.0190802,-20.940271,0.31535932
0.6397971,0.16333629,-0.004770861,1.9553118,-20.278917,0.3053994
0.61960846,0.15818226,-0.0046203174,1.8936124,-19.63902,0.29576257
0.6000732,0.15319504,-0.004474647,1.83391,-19.019836,0.2864377
0.5811688,0.14836885,-0.004333679,1.7761352,-18.420643,0.27741387
0.56287336,0.14369814,-0.0041972534,1.7202219,-17.840754,0.26868078
0.5451662,0.1391776,-0.0040652137,1.6661061,-17.27951,0.26022846
0.5280272,0.13480212,-0.003937411,1.6137269,-16.736275,0.25204736
0.5114371,0.13056678,-0.003813702,1.5630252,-16.210438,0.2441283
0.49537748,0.12646686,-0.0036939478,1.5139447,-15.701414,0.23646243
0.47983053,0.122497804,-0.0035780168,1.466431,-15.20864,0.22904128
0.46477908,0.118655264,-0.0034657805,1.4204316,-14.731571,0.22185665
0.45020667,0.11493502,-0.0033571164,1.3758962,-14.269686,0.21490069
0.4360974,0.11133301,-0.0032519063,1.3327763,-13.822482,0.20816581
0.42243606,0.10784535,-0.0031500356,1.2910253,-13.389473,0.20164473
0.40920785,0.10446827,-0.003051395,1.250598,-12.970194,0.1953304
0.39639857,0.101198144,-0.0029558786,1.2114509,-12.564193,0.18921605
0.38399455,0.09803147,-0.0028633839,1.1735425,-12.171037,0.18329515
0.37198257,0.094964884,-0.0027738125,1.1368321,-11.790306,0.17756137
0.3603499,0.09199513,-0.0026870694,1.1012809,-11.421598,0.17200865
0.3490842,0.08911907,-0.002603063,1.0668514,-11.064523,0.1666311
0.33817363,0.08633366,-0.0025217046,1.0335071,-10.718703,0.16142307
0.3276067,0.083636,-0.002442909,1.0012132,-10.383776,0.15637909
0.3173724,0.081023246,-0.0023665936,0.9699357,-10.059391,0.15149388
0.30746004,0.07849268,-0.0022926787,0.939642,-9.74521,0.14676233
0.29785925,0.076041654,-0.002221087,0.9103006,-9.440905,0.1421795
0.28856006,0.07366763,-0.0021517447,0.881881,-9.146159,0.13774064
0.27955285,0.07136814,-0.0020845793,0.85435367,-8.860667,0.13344117
0.2708283,0.069140814,-0.0020195218,0.8276902,-8.584135,0.1292766
0.2623774,0.06698336,-0.001956505,0.8018631,-8.316277,0.12524268
0.25419146,0.06489353,-0.0018954636,0.7768456,-8.056816,0.12133521
0.24626203,0.06286919,-0.001836335,0.7526121,-7.8054857,0.11755019
0.23858097,0.06090827,-0.0017790588,0.7291377,-7.5620284,0.113883734
0.23114043,0.059008744,-0.001723576,0.70639837,-7.3261943,0.11033208
0.22393279,0.057168677,-0.0016698297,0.68437076,-7.097742,0.1068916
0.21695067,0.055386186,-0.0016177653,0.6630324,-6.8764377,0.10355877
0.21018696,0.05365945,-0.0015673294,0.6423615,-6.662056,0.1003302
0.20363475,0.051986713,-0.0015184706,0.62233704,-6.454378,0.09720258
0.19728738,0.050366268,-0.0014711393,0.6029386,-6.253193,0.09417274
0.19113839,0.048796464,-0.0014252872,0.5841464,-6.058295,0.09123759
0.18518151,0.047275715,-0.0013808679,0.56594133,-5.8694873,0.08839415
0.17941074,0.04580247,-0.0013378361,0.548305,-5.6865773,0.08563954
0.17382018,0.044375233,-0.0012961484,0.5312195,-5.50938,0.082970954
0.1684042,0.042992566,-0.0012557623,0.51466745,-5.3377156,0.08038571
0.1631573,0.041653067,-0.001216637,0.49863216,-5.1714106,0.07788116
0.15807417,0.040355373,-0.001178733,0.48309737,-5.0102963,0.07545479
0.15314968,0.03909818,-0.0011420118,0.46804744,-4.8542104,0.07310414
0.14837885,0.037880216,-0.0011064365,0.45346707,-4.702995,0.07082684
0.14375687,0.036700252,-0.0010719711,0.43934163,-4.556497,0.06862059
0.13927905,0.035557095,-0.0010385808,0.4256568,-4.414569,0.06648317
0.1349409,0.034449592,-0.001006232,0.4123988,-4.2770677,0.06441241
0.13073805,0.033376627,-0.000974892,0.39955425,-4.1438546,0.062406223
0.12666625,0.03233712,-0.00094452925,0.38711023,-4.0147953,0.060462598
0.122721404,0.031330027,-0.00091511314,0.37505424,-3.88976,0.05857957
0.11889954,0.030354328,-0.00088661414,0.36337405,-3.7686229,0.056755252
0.11519682,0.029409045,-0.0008590036,0.35205802,-3.6512618,0.054987803
0.1116095,0.028493227,-0.0008322536,0.34109467,-3.537559,0.053275444
0.108134,0.02760595,-0.00080633734,0.33047304,-3.4273999,0.051616453
0.10476681,0.026746329,-0.00078122877,0.3201824,-3.320674,0.050009165
0.10150455,0.025913494,-0.0007569026,0.3102125,-3.2172737,0.048451968
0.098343946,0.02510661,-0.0007333345,0.30055323,-3.1170957,0.04694329
0.09528182,0.024324868,-0.00071050075,0.29119492,-3.0200388,0.04548162
0.09231509,0.023567481,-0.00068837835,0.28212819,-2.926006,0.04406549
0.0894408,0.022833692,-0.00066694524,0.27334392,-2.8349028,0.04269348
0.08665605,0.022122761,-0.0006461798,0.26483333,-2.7466378,0.04136421
0.083958045,0.021433977,-0.0006260612,0.25658783,-2.661122,0.040076353
0.08134408,0.020766648,-0.00060656935,0.24859919,-2.5782704,0.038828608
0.078811534,0.020120105,-0.00058768457,0.24085937,-2.4979992,0.037619732
0.07635788,0.019493701,-0.00056938804,0.23336063,-2.4202282,0.036448505
0.07398064,0.018886806,-0.00055166136,0.22609545,-2.3448796,0.03531376
0.07167743,0.018298812,-0.0005344868,0.21905653,-2.2718778,0.034214355
0.06944596,0.017729132,-0.000517847,0.21223684,-2.2011492,0.033149187
0.06728398,0.01717719,-0.00050172553,0.20562951,-2.1326237,0.03211719
0.06518933,0.01664244,-0.00048610606,0.19922796,-2.0662317,0.031117337
0.06315991,0.01612434,-0.000470973,0.19302575,-2.0019076,0.030148616
0.061193682,0.015622375,-0.00045631116,0.18701668,-1.9395863,0.029210063
0.059288684,0.01513604,-0.0004421059,0.18119472,-1.8792056,0.028300732
0.057443,0.014664848,-0.00042834293,0.17555405,-1.8207052,0.02741972
0.055654787,0.014208328,-0.00041500854,0.17008902,-1.7640262,0.026566138
0.053922255,0.013766023,-0.00040208932,0.16479415,-1.709112,0.025739133
0.052243665,0.013337489,-0.00038957235,0.15966414,-1.6559078,0.02493788
0.05061734,0.012922299,-0.00037744513,0.15469386,-1.60436,0.024161573
0.04904165,0.012520035,-0.00036569548,0.14987834,-1.5544173,0.023409437
0.047515023,0.012130296,-0.00035431166,0.14521272,-1.5060294,0.022680718
0.046035923,0.01175269,-0.00034328224,0.14069238,-1.459148,0.021974688
0.04460287,0.011386842,-0.00033259622,0.13631278,-1.4137262,0.02129064
0.043214437,0.011032382,-0.0003222429,0.13206953,-1.3697187,0.020627886
0.041869227,0.010688959,-0.0003122119,0.12795837,-1.3270811,0.019985767
0.040565897,0.010356227,-0.0003024932,0.12397521,-1.2857709,0.01936364
0.039303143,0.010033853,-0.00029307703,0.120116055,-1.2457469,0.018760879
0.0380797,0.009721516,-0.00028395402,0.11637703,-1.2069688,0.018176883
0.036894348,0.009418902,-0.00027511505,0.11275442,-1.169398,0.01761107
0.035745893,0.009125709,-0.00026655121,0.109244585,-1.1329968,0.017062869
0.034633193,0.008841643,-0.00025825397,0.10584401,-1.0977287,0.016531734
0.03355513,0.0085664205,-0.00025021506,0.1025493,-1.0635587,0.016017135
0.03251063,0.008299766,-0.00024242638,0.09935715,-1.0304523,0.0155185545
0.031498645,0.008041412,-0.00023488016,0.09626438,-0.99837655,0.015035495
0.030518161,0.0077911005,-0.00022756887,0.09326788,-0.9672993,0.014567474
0.0295682,0.0075485813,-0.00022048518,0.090364665,-0.93718946,0.014114022
0.028647812,0.007313612,-0.00021362198,0.087551825,-0.908017,0.013674686
0.027756074,0.0070859566,-0.00020697244,0.08482655,-0.8797526,0.013249026
0.026892096,0.0068653882,-0.0002005299,0.08218611,-0.85236806,0.012836616
0.026055012,0.006651686,-0.00019428792,0.079627864,-0.82583594,0.012437045
0.025243986,0.006444636,-0.00018824023,0.07714925,-0.80012983,0.012049911
