ax,ay,az,gx,gy,gz
-2.0663824,2.4363859,-4.8464074,-2.6636605,0.99909997,-9.3773575
-1.9070603,1.9387704,-4.172013,-6.2802067,0.95950556,2.1285372
-1.7732501,1.6182641,-3.8892384,-5.2566733,0.17598799,6.4112816
-1.5229955,1.4551575,-3.6223397,-4.1340656,0.44674817,6.246212
-1.1950707,1.3673245,-3.3551178,-3.71576,2.2975454,6.0975976
-1.0044147,1.2519243,-3.1348312,-4.8583417,3.8365114,7.87635
-1.0317591,1.1094933,-2.9845636,-6.2207675,4.4737153,8.81673
-1.1011568,1.021214,-2.8830805,-6.735272,4.11862,7.808422
-1.1177781,0.96508974,-2.7730072,-6.369185,2.7291992,5.757176
-1.0565765,0.9194426,-2.6138847,-5.9006634,0.90915936,4.0577536
-0.9415143,0.85149693,-2.4191365,-5.9822173,-0.45659214,3.7077143
-0.82533556,0.7769316,-2.2326033,-6.2187753,-1.347968,3.7300525
-0.7207717,0.69396484,-2.0896983,-6.273146,-1.9444888,3.8713818
-0.6472923,0.58976614,-1.9903243,-6.031325,-2.3849804,3.9060369
-0.5994818,0.5000707,-1.9070933,-5.47981,-2.70827,3.5867755
-0.56994724,0.43972334,-1.8160379,-4.819198,-3.2620397,3.02832
-0.53008497,0.42696103,-1.6944675,-4.3187346,-3.857924,2.4399154
-0.47560367,0.42605343,-1.5835457,-4.0789466,-4.3903146,2.1956275
-0.43020636,0.41937086,-1.4993527,-4.1114755,-4.890384,2.3800602
-0.40938655,0.39915556,-1.456545,-4.079595,-5.2577157,2.6286404
-0.40436843,0.38415515,-1.4541514,-3.5750463,-5.4343576,2.339781
-0.40772247,0.40246585,-1.5003815,-3.113962,-5.6116104,1.9238065
-0.42401326,0.44067293,-1.602193,-2.982041,-6.071752,1.7229178
-0.4565221,0.48426232,-1.7757463,-3.1906943,-6.941966,1.7162932
-0.5010848,0.52187204,-2.0194495,-3.499362,-8.168952,1.8055964
-0.57556725,0.5620286,-2.3089747,-3.5716627,-9.735521,1.4039701
-0.7108032,0.62506527,-2.6367736,-3.5290372,-11.891487,0.72788906
-0.88796335,0.71399015,-2.9662693,-3.6987066,-14.8810835,-0.14743493
-1.1087536,0.8112289,-3.296816,-4.0257034,-18.684872,-1.213463
-1.3879026,0.8836416,-3.6316721,-4.3581166,-23.426815,-2.4476635
-1.7142975,0.9140136,-3.9695902,-4.316655,-29.87053,-4.085389
-1.9903203,0.9219881,-4.274002,-3.7635417,-37.68501,-6.089718
-2.1253371,0.97529614,-4.4534144,-3.0413473,-46.37986,-8.545157
-2.1066463,1.0526351,-4.4810205,-2.4477081,-55.427914,-11.698163
-1.8901151,1.1000282,-4.369796,-1.7742788,-63.90385,-15.190448
-1.4859111,1.1009848,-4.140792,-0.8411728,-70.462494,-18.052696
-0.9435798,1.089563,-3.761933,-0.2945576,-75.3947,-20.170116
-0.37270835,1.0785173,-3.314823,-0.616567,-78.92049,-21.16812
0.15227984,1.0363712,-2.867322,-1.8884132,-81.25933,-20.965534
0.5797597,0.9356556,-2.4711568,-3.3972468,-82.532906,-20.335049
0.9288271,0.7687238,-2.1493554,-4.213422,-82.17002,-19.788849
1.1612059,0.5748148,-1.909186,-4.127962,-81.00249,-19.683287
1.3247743,0.43933815,-1.6740217,-3.219372,-79.27238,-20.433163
1.4746815,0.3632479,-1.4364041,-2.0897174,-77.249245,-21.25383
1.6082911,0.3404886,-1.2027237,-1.3649981,-75.224785,-21.550293
1.7033916,0.33664915,-0.99531114,-1.3239238,-73.287315,-21.227736
1.7600533,0.31612426,-0.8479863,-1.4846673,-71.17486,-20.669897
1.7776462,0.28165066,-0.75078666,-1.4630368,-68.7735,-20.2645
1.7538944,0.24317001,-0.6936858,-1.1446962,-66.28513,-20.000183
1.7018886,0.21966842,-0.6536214,-0.723036,-63.87635,-19.822891
1.6404412,0.21033715,-0.6204465,-0.26636726,-61.56963,-19.56397
1.5635363,0.21901833,-0.5914341,0.11537673,-59.349598,-19.304773
1.477094,0.2264007,-0.56542885,0.41328928,-57.305725,-19.114561
1.4052103,0.22143123,-0.53946966,0.8096379,-55.488926,-18.819834
1.3612098,0.21442701,-0.5009929,1.3166023,-53.65879,-18.465307
1.3496194,0.20735061,-0.45271212,1.899585,-51.728844,-18.278906
1.3848499,0.17975,-0.3977078,2.6840959,-50.021812,-18.396368
1.3394644,0.17385907,-0.38467377,2.5961304,-48.382454,-17.793467
1.2957047,0.16817918,-0.37210667,2.511316,-46.801823,-17.212162
1.2535,0.16270112,-0.35998613,2.4295154,-45.277355,-16.651514
1.2127835,0.15741621,-0.34829295,2.3505993,-43.806644,-16.110634
1.1734923,0.1523163,-0.3370091,2.2744455,-42.387417,-15.58869
1.1355672,0.14739372,-0.32611758,2.2009397,-41.017532,-15.084891
1.098952,0.14264117,-0.31560227,2.1299727,-39.694965,-14.598496
1.063594,0.1380518,-0.305448,2.0614424,-38.41781,-14.128799
1.029443,0.13361908,-0.29564035,1.9952514,-37.18425,-13.675137
0.9964514,0.12933685,-0.28616565,1.9313076,-35.99257,-13.236876
0.96457416,0.12519927,-0.277011,1.8695235,-34.841137,-12.813418
0.9337684,0.12120076,-0.26816407,1.8098162,-33.728413,-12.404194
0.9039934,0.11733604,-0.25961316,1.7521069,-32.652916,-12.008663
0.87521046,0.11360009,-0.25134712,1.6963202,-31.613256,-11.626309
0.84738266,0.10998811,-0.24335538,1.6423846,-30.608093,-11.256644
0.8204747,0.10649552,-0.23562783,1.590232,-29.636156,-10.899199
0.79445297,0.10311797,-0.2281548,1.5397972,-28.696234,-10.553526
0.7692855,0.099851295,-0.22092707,1.4910179,-27.787167,-10.219201
0.74494153,0.09669151,-0.21393587,1.4438348,-26.907845,-9.895815
0.7213918,0.093634814,-0.20717274,1.3981911,-26.057209,-9.58298
0.69860816,0.09067756,-0.20062962,1.3540322,-25.234247,-9.280322
0.6765638,0.08781625,-0.1942988,1.311306,-24.437988,-8.987484
0.65523285,0.08504755,-0.18817289,1.2699628,-23.6675,-8.7041235
0.6345907,0.082368255,-0.18224478,1.2299544,-22.921888,-8.429913
0.61461353,0.07977527,-0.17650764,1.191235,-22.200298,-8.1645355
0.5952787,0.07726566,-0.17095496,1.1537604,-21.50191,-7.907691
0.5765642,0.07483657,-0.16558047,1.1174884,-20.82593,-7.659088
0.55844915,0.072485276,-0.1603781,1.082378,-20.1716,-7.4184475
0.54091334,0.07020917,-0.15534207,1.0483903,-19.538193,-7.185501
0.5239372,0.06800572,-0.1504668,1.0154876,-18.925003,-6.9599905
0.50750226,0.0658725,-0.14574692,0.98363346,-18.33136,-6.7416677
0.49159032,0.06380717,-0.14117725,0.9527932,-17.756609,-6.5302935
0.47618413,0.061807487,-0.13675283,0.92293316,-17.200127,-6.3256373
0.461267,0.059871282,-0.13246886,0.894021,-16.661308,-6.127478
0.44682285,0.057996467,-0.12832071,0.8660255,-16.139574,-5.9356017
0.43283612,0.056181025,-0.12430394,0.83891666,-15.634363,-5.7498016
0.4192919,0.05442302,-0.12041425,0.81266546,-15.145136,-5.56988
0.40617576,0.052720577,-0.11664749,0.7872439,-14.671371,-5.395645
0.39347377,0.051071893,-0.11299967,0.7626251,-14.212566,-5.2269115
0.3811725,0.049475223,-0.10946694,0.738783,-13.768235,-5.063502
0.36925903,0.04792888,-0.106045574,0.71569246,-13.337912,-4.905243
0.35772082,0.04643125,-0.102731965,0.6933293,-12.921143,-4.751969
0.34654576,0.044980757,-0.099522665,0.67166996,-12.517491,-4.6035194
0.3357222,0.04357589,-0.096414305,0.6506919,-12.126537,-4.459739
0.3252389,0.042215183,-0.09340366,0.6303733,-11.747872,-4.320479
0.31508493,0.04089722,-0.09048759,0.61069304,-11.381103,-4.185593
0.30524978,0.03962064,-0.087663084,0.59163064,-11.025849,-4.0549426
0.29572326,0.038384125,-0.08492721,0.5731665,-10.681745,-3.9283922
0.28649554,0.037186388,-0.08227715,0.55528146,-10.348433,-3.8058112
0.2775571,0.036026206,-0.07971017,0.53795713,-10.02557,-3.687073
0.2688988,0.03490238,-0.077223636,0.5211757,-9.712825,-3.5720558
0.2605117,0.033813752,-0.07481499,0.50491995,-9.409877,-3.4606414
0.2523872,0.032759216,-0.07248176,0.4891732,-9.116414,-3.3527155
0.24451703,0.031737685,-0.070221566,0.47391933,-8.832137,-3.248168
0.2368931,0.030748121,-0.06803209,0.45914274,-8.556755,-3.1468916
0.22950765,0.02978951,-0.0659111,0.4448284,-8.289988,-3.0487833
0.22235316,0.028860874,-0.06385644,0.43096164,-8.031562,-2.9537427
0.21542233,0.027961269,-0.06186601,0.41752842,-7.781215,-2.8616736
0.20870811,0.02708978,-0.05993779,0.404515,-7.5386925,-2.7724817
0.20220368,0.026245521,-0.058069818,0.39190823,-7.3037477,-2.6860769
0.19590244,0.025427638,-0.056260195,0.37969524,-7.0761423,-2.602371
0.189798,0.024635296,-0.05450709,0.3678637,-6.855645,-2.5212796
0.18388417,0.023867697,-0.05280873,0.35640162,-6.642033,-2.4427202
0.17815496,0.02312406,-0.05116339,0.34529734,-6.43509,-2.3666134
0.17260459,0.022403635,-0.04956941,0.33453968,-6.2346063,-2.292882
0.16722743,0.021705694,-0.04802517,0.32411775,-6.0403795,-2.2214518
0.16201806,0.02102953,-0.046529118,0.31402102,-5.852213,-2.1522503
0.1569712,0.020374462,-0.045079738,0.3042393,-5.669917,-2.085208
0.15208179,0.019739829,-0.04367557,0.2947627,-5.4933076,-2.0202568
0.14734487,0.019124988,-0.042315204,0.28558168,-5.3222065,-1.9573317
0.14275569,0.018529324,-0.04099726,0.276687,-5.1564417,-1.8963687
0.1383096,0.017952234,-0.03972041,0.26806965,-4.995846,-1.8373069
0.13400213,0.017393136,-0.03848337,0.25972098,-4.840257,-1.7800864
0.12982896,0.016851468,-0.0372849,0.2516326,-4.689519,-1.7246499
0.12578587,0.016326686,-0.036123786,0.24379635,-4.5434794,-1.6709416
0.12186881,0.015818262,-0.034998868,0.23620436,-4.4019923,-1.6189072
0.118073836,0.015325683,-0.033909008,0.228849,-4.264915,-1.5684947
0.11439713,0.014848456,-0.03285311,0.22172286,-4.1321096,-1.5196533
0.110835,0.014386101,-0.031830125,0.21481878,-4.003443,-1.4723339
0.10738387,0.013938152,-0.030839011,0.20812984,-3.8787854,-1.426489
0.104040265,0.0135041615,-0.029878778,0.20164932,-3.7580118,-1.3820724
0.100800835,0.013083692,-0.028948465,0.1953707,-3.6410015,-1.3390399
0.09766233,0.012676322,-0.028047133,0.1892877,-3.5276363,-1.2973479
0.0946216,0.012281642,-0.027173882,0.1833942,-3.4178026,-1.2569548
0.09167559,0.011899258,-0.026327834,0.17768429,-3.3113906,-1.2178199
0.088821344,0.011528784,-0.025508137,0.17215224,-3.2082932,-1.1799041
0.08605601,0.011169851,-0.024713974,0.1667925,-3.1084073,-1.1431694
0.0833768,0.010822097,-0.023944547,0.16159971,-3.0116324,-1.1075788
0.08078104,0.010485174,-0.023199085,0.15656865,-2.9178715,-1.0730966
0.07826613,0.010158745,-0.02247684,0.15169427,-2.827031,-1.0396885
0.075829536,0.0098424805,-0.021777088,0.1469717,-2.7390194,-1.0073208
0.07346883,0.009536066,-0.021099128,0.14239621,-2.6537488,-0.975961
0.07118163,0.009239195,-0.02044228,0.1379632,-2.5711336,-0.9455779
0.06896566,0.008951567,-0.019805888,0.13366824,-2.4910913,-0.9161409
0.0668187,0.008672897,-0.019189311,0.12950702,-2.413541,-0.8876206
0.06473859,0.008402904,-0.018591935,0.12547538,-2.338406,-0.8599884
0.06272325,0.008141317,-0.01801316,0.121569276,-2.2656105,-0.83321655
0.060770657,0.007887877,-0.017452408,0.117784806,-2.1950815,-0.8072784
0.05887887,0.007642327,-0.016909113,0.11411816,-2.1267486,-0.7821478
0.05704598,0.007404423,-0.016382737,0.110565685,-2.0605433,-0.7577997
0.05527016,0.007173926,-0.015872749,0.10712382,-1.9963995,-0.7342097
0.053549632,0.006950606,-0.015378639,0.10378912,-1.9342527,-0.7113542
0.051882673,0.006734239,-0.014899913,0.100558236,-1.8740408,-0.68921024
0.05026761,0.006524608,-0.014436092,0.09742795,-1.8157036,-0.6677557
0.048702832,0.006321504,-0.013986711,0.09439512,-1.7591827,-0.6469692
0.04718677,0.006124723,-0.013551322,0.09145671,-1.7044214,-0.6268298
0.04571791,0.005934068,-0.013129487,0.088609785,-1.6513649,-0.6073174
0.044294775,0.005749349,-0.012720784,0.08585148,-1.5999603,-0.58841246
0.042915948,0.0055703805,-0.012324806,0.083179064,-1.550156,-0.57009614
0.041580044,0.0053969836,-0.011941155,0.08058983,-1.5019022,-0.5523499
0.04028573,0.005228985,-0.011569448,0.07808121,-1.4551506,-0.53515625
0.03903171,0.0050662165,-0.011209312,0.075650685,-1.4098544,-0.5184978
0.037816726,0.0049085147,-0.010860388,0.073295824,-1.3659683,-0.50235796
0.036639567,0.0047557224,-0.0105223255,0.07101428,-1.3234485,-0.4867206
0.035499055,0.004607687,-0.010194788,0.06880375,-1.2822523,-0.47157
0.034394044,0.0044642594,-0.009877446,0.066662036,-1.2423385,-0.45689103
0.033323437,0.004325297,-0.009569983,0.064587,-1.2036673,-0.44266903
0.032286152,0.0041906605,-0.009272091,0.06257655,-1.1661999,-0.42888975
0.031281162,0.004060215,-0.008983473,0.06062869,-1.1298989,-0.41553944
0.030307453,0.00393383,-0.008703839,0.058741465,-1.0947279,-0.4026047
0.029364057,0.00381138,-0.00843291,0.05691299,-1.0606517,-0.39007258
0.028450027,0.003692741,-0.008170415,0.05514143,-1.0276362,-0.3779306
0.027564451,0.0035777956,-0.00791609,0.053425018,-0.9956485,-0.3661666
