ax,ay,az,gx,gy,gz
-4.032764,1.5918326,-4.9855,6.8800626,0.94364494,-0.05545505
-3.9514005,1.5699949,-5.024332,9.069399,-2.0069458,-0.75612116
-3.647172,1.40906,-4.895928,10.280496,-6.4472632,3.3542655
-3.3178637,1.264364,-4.6122136,9.45219,-7.7527575,4.2066207
-3.0588253,1.2104272,-4.3110795,8.020684,-7.463552,1.9315386
-2.8313055,1.1977792,-4.0054064,6.1882668,-6.5516114,-0.6103101
-2.6785438,1.2207898,-3.7184668,4.137666,-7.567885,-2.2654738
-2.5163667,1.2159152,-3.3593812,1.7078366,-9.385779,-3.1159196
-2.296984,1.1835463,-3.0387015,-0.89265364,-11.281181,-3.0950174
-2.064415,1.1093289,-2.7583842,-3.5624108,-12.68117,-2.7672982
-1.8665395,1.0023115,-2.5332751,-5.137326,-13.257503,-2.719793
-1.7082295,0.91845757,-2.355862,-5.783188,-13.571918,-3.0113533
-1.5889236,0.85941845,-2.198827,-6.3128324,-13.907742,-3.117305
-1.5066493,0.80533445,-2.0700147,-6.7278485,-14.380345,-3.2910762
-1.4255162,0.7457149,-1.9822105,-6.9598804,-14.860976,-3.791945
-1.3247322,0.6827154,-1.9417896,-6.9148655,-15.124425,-4.4161806
-1.2289318,0.6408332,-1.9628485,-6.4014525,-15.536534,-4.8455358
-1.1581411,0.633321,-2.0821228,-6.1574955,-16.312029,-4.851509
-1.1189275,0.6270876,-2.2919087,-6.232335,-17.342754,-4.310908
-1.1539654,0.5928857,-2.5924904,-6.3341265,-18.72465,-3.6516306
-1.2729899,0.53405213,-2.9553356,-6.0167074,-20.447193,-3.488189
-1.4572157,0.4762909,-3.352726,-5.1153164,-23.367493,-4.0768695
-1.6823176,0.4406079,-3.7549887,-3.9997838,-27.626926,-4.9636626
-1.8976837,0.41026208,-4.1149335,-2.7666266,-33.00055,-5.837293
-2.1077478,0.37224844,-4.4088063,-1.4064189,-39.355255,-7.038534
-2.2670698,0.34754664,-4.607907,0.32321632,-46.4992,-8.919268
-2.2934074,0.34761208,-4.7100325,2.575959,-53.765984,-11.254903
-2.1773126,0.39550316,-4.6531367,4.7991543,-60.585125,-13.582297
-1.9955696,0.47080025,-4.4614105,6.8424006,-66.91797,-15.851838
-1.7477646,0.56623244,-4.1547794,8.428925,-72.47327,-17.895288
-1.4439131,0.63472307,-3.8075247,9.313384,-77.229515,-18.898304
-1.1164508,0.66984904,-3.444638,8.899683,-81.58965,-18.79242
-0.694695,0.68822455,-2.9971013,7.993908,-84.951324,-18.812212
-0.20967977,0.705593,-2.4990666,6.950171,-86.51259,-18.785212
0.24409677,0.7049486,-2.013236,5.661031,-86.613495,-18.013004
0.5916717,0.67629534,-1.5896431,3.9079661,-86.08255,-16.504583
0.8469094,0.6002234,-1.2580302,2.255017,-84.95281,-14.947718
1.0266323,0.4728156,-1.0316325,1.3564185,-83.21273,-14.078877
1.1844375,0.35774907,-0.8474327,1.2002742,-80.83016,-13.95106
1.3160948,0.27939788,-0.6824322,1.4130403,-77.90577,-13.996655
1.396649,0.24086064,-0.5374853,1.5187594,-74.84869,-13.786023
1.4229192,0.21934302,-0.4258731,1.4642799,-71.88575,-13.20832
1.3908825,0.19980843,-0.35884717,1.5142316,-69.07556,-12.736464
1.3420019,0.17978159,-0.3139533,1.6804177,-66.37876,-12.530503
1.2985307,0.16694388,-0.27685395,1.976231,-63.617516,-12.380331
1.2502446,0.16645934,-0.24311687,2.2172134,-60.842648,-12.138878
1.2004987,0.17179346,-0.2183649,2.2059884,-58.18224,-11.563984
1.1444045,0.16655298,-0.21811229,2.2329125,-55.690594,-10.895211
1.0843506,0.14147474,-0.23580346,2.5792122,-53.225822,-10.265719
1.0190386,0.11057163,-0.2618827,3.3939986,-50.83146,-9.884541
0.9554613,0.09345261,-0.27662548,4.384974,-48.598293,-9.8167305
0.9233944,0.09031618,-0.26734143,4.2378063,-46.967247,-9.487263
0.89254636,0.08729897,-0.2584103,4.0962334,-45.398205,-9.1703205
0.8628579,0.08439517,-0.24981488,3.9599814,-43.888138,-8.865291
0.8342734,0.081599355,-0.2415391,3.8287966,-42.434227,-8.571605
0.80674124,0.07890646,-0.23356798,3.702441,-41.033836,-8.28873
0.7802129,0.07631176,-0.22588749,3.5806925,-39.68451,-8.016169
0.7546431,0.0738108,-0.21848452,3.463343,-38.383934,-7.753456
0.7299893,0.07139944,-0.21134673,3.350197,-37.12995,-7.5001545
0.70621145,0.06907376,-0.20446257,3.241072,-35.920525,-7.2558537
0.6832721,0.06683009,-0.19782117,3.1357944,-34.753742,-7.020167
0.6611358,0.06466496,-0.19141224,3.0342023,-33.627808,-6.792731
0.6397691,0.0625751,-0.18522614,2.9361424,-32.541016,-6.5732017
0.61914045,0.06055744,-0.17925374,2.8414698,-31.491768,-6.361256
0.59922004,0.058609046,-0.17348638,2.7500477,-30.478542,-6.1565876
0.5799796,0.056727163,-0.16791588,2.661746,-29.499905,-5.958905
0.5613924,0.05490917,-0.16253452,2.5764425,-28.554491,-5.767934
0.54343307,0.053152584,-0.15733491,2.49402,-27.64101,-5.583413
0.52607733,0.05145504,-0.15231009,2.4143682,-26.758236,-5.405095
0.5093024,0.0498143,-0.14745338,2.3373814,-25.904999,-5.2327433
0.4930863,0.048228223,-0.1427585,2.2629597,-25.08019,-5.066134
0.47740832,0.046694778,-0.13821942,2.1910076,-24.28275,-4.905053
0.4622486,0.045212023,-0.13383037,2.1214337,-23.511671,-4.749297
0.4475882,0.043778107,-0.12958588,2.0541518,-22.76599,-4.598671
0.43340904,0.04239126,-0.12548073,1.9890783,-22.044785,-4.45299
0.41969386,0.041049793,-0.1215099,1.9261341,-21.34718,-4.3120756
0.40642613,0.03975209,-0.11766863,1.8652434,-20.672335,-4.1757584
0.39359003,0.038496602,-0.11395231,1.8063337,-20.019442,-4.0438757
0.3811704,0.037281852,-0.11035658,1.7493353,-19.387733,-3.9162724
0.36915272,0.03610642,-0.106877215,1.6941817,-18.77647,-3.792799
0.35752308,0.03496894,-0.1035102,1.6408088,-18.184944,-3.6733122
0.34626815,0.033868104,-0.10025167,1.5891557,-17.612476,-3.557675
0.33537504,0.03280266,-0.09709789,1.5391631,-17.058413,-3.4457557
0.3248315,0.031771407,-0.09404531,1.4907746,-16.52213,-3.3374276
0.31462562,0.030773181,-0.09109051,1.4439361,-16.003021,-3.232569
0.30474606,0.029806875,-0.08823018,1.3985951,-15.50051,-3.1310632
0.29518187,0.028871411,-0.085461155,1.3547014,-15.01404,-3.0327976
0.28592253,0.027965765,-0.08278038,1.3122067,-14.5430765,-2.937664
0.2769579,0.027088944,-0.08018494,1.2710646,-14.087101,-2.8455582
0.26827818,0.026239991,-0.07767198,1.2312301,-13.645618,-2.7563798
0.259874,0.025417987,-0.0752388,1.1926601,-13.218151,-2.6700325
0.25173625,0.024622045,-0.072882764,1.155313,-12.804236,-2.5864227
0.24385627,0.02385131,-0.070601344,1.1191487,-12.40343,-2.505461
0.23622556,0.02310496,-0.068392105,1.0841286,-12.015305,-2.4270606
0.22883604,0.0223822,-0.066252686,1.0502152,-11.639446,-2.351138
0.22167985,0.02168226,-0.06418082,1.0173727,-11.275455,-2.2776132
0.21474943,0.021004403,-0.062174324,0.98556644,-10.922949,-2.2064075
0.20803747,0.020347914,-0.060231075,0.9547627,-10.581553,-2.1374466
0.20153692,0.019712104,-0.058349036,0.92492926,-10.250913,-2.070658
0.195241,0.019096306,-0.056526236,0.8960349,-9.930678,-2.0059714
0.1891431,0.018499877,-0.054760773,0.8680493,-9.620517,-1.9433197
0.1832369,0.017922197,-0.053050805,0.8409435,-9.320105,-1.8826373
0.17751622,0.017362665,-0.051394556,0.81468916,-9.029131,-1.8238612
0.17197518,0.0168207,-0.049790308,0.7892592,-8.7472925,-1.7669307
0.16660802,0.016295746,-0.048236407,0.7646273,-8.4742985,-1.7117866
0.1614092,0.015787255,-0.04673124,0.7407679,-8.2098675,-1.6583722
0.15637337,0.0152947055,-0.045273267,0.71765655,-7.953727,-1.6066324
0.15149534,0.014817591,-0.04386098,0.69526947,-7.705612,-1.5565139
0.14677012,0.014355422,-0.04249293,0.6735836,-7.46527,-1.5079653
0.14219286,0.013907725,-0.04116772,0.6525768,-7.2324533,-1.460937
0.13775885,0.013474041,-0.03988399,0.63222754,-7.006924,-1.4153807
0.1334636,0.013053927,-0.038640425,0.612515,-6.7884517,-1.3712498
0.12930271,0.012646954,-0.03743576,0.5934191,-6.5768127,-1.3284993
0.12527192,0.012252707,-0.036268767,0.5749203,-6.3717923,-1.2870857
0.12136714,0.011870786,-0.035138257,0.5569998,-6.173181,-1.2469667
0.11758441,0.011500801,-0.034043077,0.53963935,-5.9807773,-1.2081016
0.11391987,0.011142376,-0.03298212,0.5228214,-5.794385,-1.1704509
0.1103698,0.010795148,-0.0319543,0.5065288,-5.613816,-1.1339763
0.10693061,0.010458765,-0.030958585,0.49074507,-5.4388857,-1.0986409
0.10359881,0.010132885,-0.02999396,0.47545415,-5.269418,-1.0644089
0.100371026,0.009817178,-0.029059451,0.46064064,-5.105241,-1.0312456
0.09724399,0.009511326,-0.02815411,0.44628948,-4.9461884,-0.9991173
0.09421454,0.00921502,-0.027277024,0.4323862,-4.7920995,-0.96799177
0.091279626,0.008927959,-0.026427306,0.41891676,-4.642819,-0.9378374
0.08843627,0.008649854,-0.025604097,0.40586755,-4.498195,-0.9086239
0.08568162,0.008380423,-0.024806568,0.39322537,-4.3580832,-0.8803216
0.08301287,0.008119397,-0.024033915,0.3809775,-4.2223415,-0.8529021
0.08042736,0.007866511,-0.023285355,0.36911163,-4.0908327,-0.8263377
0.07792248,0.007621511,-0.02256014,0.35761574,-3.963425,-0.8006016
0.07549568,0.0073841494,-0.021857535,0.34647828,-3.8399894,-0.77566797
0.073144555,0.0071541877,-0.021176836,0.33568805,-3.7204022,-0.7515117
0.07086671,0.006931395,-0.020517355,0.32523417,-3.6045427,-0.7281084
0.06865987,0.0067155464,-0.019878428,0.31510615,-3.4922948,-0.70543456
0.066521816,0.0065064253,-0.019259417,0.3052938,-3.3835452,-0.68346745
0.06445039,0.006303821,-0.018659698,0.29578725,-3.278185,-0.66218495
0.062443517,0.006107531,-0.018078666,0.28657693,-3.176108,-0.6415656
0.060499176,0.0059173573,-0.017515741,0.27765363,-3.0772114,-0.6215888
0.05861542,0.005733109,-0.016970355,0.26900834,-2.9813967,-0.6022345
0.056790352,0.005554601,-0.016441962,0.26063243,-2.888567,-0.5834831
0.055022143,0.005381655,-0.015930029,0.25251746,-2.7986293,-0.56531596
0.05330902,0.005214096,-0.015434044,0.24465528,-2.7114937,-0.54771477
0.051649265,0.005051757,-0.014953512,0.23703803,-2.6270723,-0.5306618
0.050041206,0.004894475,-0.014487946,0.22965805,-2.5452807,-0.5141401
0.048483238,0.004742092,-0.014036883,0.22250794,-2.4660366,-0.49813306
0.0469738,0.004594455,-0.013599869,0.21558054,-2.3892608,-0.48262453
0.04551137,0.0044514164,-0.013176466,0.2088689,-2.3148763,-0.46759906
0.044094484,0.004312833,-0.0127662495,0.20236629,-2.2428083,-0.45304152
0.04272173,0.004178565,-0.012368809,0.1960662,-2.1729848,-0.43893737
0.041391727,0.004048479,-0.011983746,0.1899623,-2.105336,-0.42527246
0.040103137,0.0039224434,-0.011610674,0.18404849,-2.0397937,-0.41203308
0.03885468,0.003800333,-0.011249219,0.17831884,-1.9762925,-0.399206
0.037645098,0.0036820252,-0.01089902,0.17276761,-1.9147687,-0.38677835
0.03647318,0.0035674013,-0.0105597265,0.16738923,-1.8551606,-0.37473768
0.035337754,0.0034563465,-0.010230998,0.16217834,-1.7974087,-0.36307192
0.034237683,0.0033487498,-0.009912505,0.15712969,-1.741455,-0.35176942
0.033171862,0.0032445032,-0.009603929,0.15223825,-1.6872435,-0.34081885
0.03213923,0.0031435024,-0.00930496,0.1474991,-1.63472,-0.33020923
0.03113875,0.0030456465,-0.0090153,0.14290752,-1.5838318,-0.31992996
0.030169418,0.0029508374,-0.008734659,0.13845888,-1.534528,-0.3099707
0.029230265,0.0028589799,-0.008462756,0.13414876,-1.4867593,-0.30032155
0.028320353,0.0027699824,-0.008199318,0.12997283,-1.4404777,-0.2909728
0.027438771,0.0026837557,-0.007944082,0.12592691,-1.3956372,-0.28191513
0.026584635,0.0026002135,-0.0076967916,0.12200695,-1.3521926,-0.27313945
0.02575709,0.0025192723,-0.007457201,0.118209034,-1.3101007,-0.26463696
0.024955308,0.002440851,-0.0072250688,0.11452936,-1.269319,-0.25639918
0.024178486,0.002364871,-0.007000163,0.11096423,-1.2298071,-0.24841788
0.023425851,0.0022912563,-0.00678226,0.1075101,-1.1915252,-0.24068505
0.022696644,0.0022199336,-0.0065711397,0.1041635,-1.1544352,-0.23319294
0.021990139,0.0021508313,-0.0063665924,0.10092108,-1.1184998,-0.22593407
0.021305628,0.00208388,-0.0061684125,0.0977796,-1.083683,-0.21890117
0.020642428,0.002019013,-0.005976402,0.09473591,-1.0499501,-0.21208721
0.019999871,0.0019561653,-0.005790369,0.09178699,-1.0172673,-0.20548539
0.01937732,0.001895274,-0.0056101275,0.088929854,-0.98560196,-0.19908907
0.018774146,0.0018362784,-0.005435497,0.086161666,-0.9549224,-0.19289187
0.01818975,0.0017791193,-0.0052663023,0.08347965,-0.92519784,-0.18688759
0.017623546,0.0017237394,-0.0051023746,0.080881126,-0.8963986,-0.18107022
0.017074967,0.0016700836,-0.00494355,0.07836349,-0.8684959,-0.17543393
0.016543465,0.001618098,-0.0047896695,0.075924225,-0.8414617,-0.1699731
0.016028509,0.0015677307,-0.004640579,0.07356089,-0.8152692,-0.16468227
0.015529582,0.0015189312,-0.0044961297,0.07127114,-0.7898919,-0.15955614
