ax,ay,az,gx,gy,gz
-4.463677,0.97455436,-7.5255227,11.930109,-52.990482,-26.800243
-4.5391126,0.82277375,-7.6334314,19.390577,-61.331284,-26.361301
-4.414657,0.82607853,-7.0192766,16.71393,-58.513508,-17.30965
-4.533473,0.9670685,-6.802799,10.336219,-57.173553,-7.1849813
-4.646437,1.0047407,-6.642625,0.74602705,-59.428867,0.35039935
-4.510994,0.9581155,-6.363671,-7.38731,-61.94715,6.0195208
-4.3752613,0.7961036,-6.0802617,-11.437865,-64.09061,9.045692
-4.2313414,0.7044803,-5.8164563,-13.390727,-65.992355,9.435295
-3.9945352,0.6177464,-5.5256734,-14.341875,-67.34265,8.916644
-3.6850998,0.48758167,-5.2372093,-15.125476,-68.52184,9.425931
-3.38605,0.33539543,-4.966505,-15.530713,-69.79329,10.738601
-3.1351676,0.21293771,-4.7295403,-14.892084,-71.23676,11.043876
-2.9747412,0.1022329,-4.587843,-13.492773,-73.046455,10.207429
-2.842332,0.0011671574,-4.442063,-12.333212,-76.15407,9.202846
-2.6160135,-0.048331175,-4.1689634,-11.672764,-79.61155,8.578124
-2.290216,-0.091860086,-3.8065088,-11.365514,-82.680626,8.539181
-1.9322379,-0.117365204,-3.4020338,-11.411261,-84.37014,9.020737
-1.6042746,-0.1177677,-2.9967973,-11.522502,-85.1058,8.94741
-1.2723767,-0.09146992,-2.5962157,-11.739526,-85.32426,8.278859
-0.93735904,-0.079170726,-2.2036355,-12.06183,-85.04861,7.639947
-0.6278268,-0.1075873,-1.8486825,-12.351686,-84.41746,7.560691
-0.36255142,-0.15317205,-1.5371767,-12.619737,-83.014,7.9158206
-0.14891523,-0.19837685,-1.2813601,-12.620453,-81.12182,8.143655
0.05120659,-0.20854512,-1.0484147,-12.2819805,-78.860634,8.020409
0.22381327,-0.1936884,-0.8407151,-11.850417,-76.65966,7.7184644
0.36499524,-0.18761095,-0.64929736,-11.509164,-74.442856,7.5565944
0.46428028,-0.18758345,-0.4853852,-11.065144,-72.08578,7.41973
0.51377004,-0.16397278,-0.36128303,-10.570205,-69.741066,6.9777436
0.56171006,-0.1185846,-0.24043354,-10.225383,-67.20296,6.34872
0.61029935,-0.07095358,-0.124649085,-10.110656,-64.54701,5.4805913
0.6373309,-0.058696687,-0.040011525,-9.906784,-62.06592,4.5230956
0.6600626,-0.07343848,0.026637677,-9.886123,-59.66222,3.924311
0.6780694,-0.09595256,0.07499714,-9.830009,-57.215866,3.4228394
0.68512005,-0.12270994,0.10466868,-9.894829,-54.809807,3.0546916
0.68826103,-0.14804173,0.12681758,-9.792622,-52.413414,2.5781572
0.6910476,-0.17738491,0.1457876,-9.347331,-49.972916,1.9813718
0.6969461,-0.21322595,0.16451769,-8.6521435,-47.357956,1.7748476
0.717764,-0.24191883,0.18949988,-8.203343,-44.449894,2.246818
0.73721033,-0.2531557,0.2159032,-8.132527,-41.156303,3.2644515
0.71025366,-0.24389887,0.20800853,-7.835156,-39.65139,3.1450844
0.6845385,-0.23506835,0.20047745,-7.551479,-38.215786,3.0312145
0.65998334,-0.22663622,0.1932861,-7.2805996,-36.844948,2.9224818
0.6365144,-0.21857704,0.18641287,-7.021702,-35.534744,2.8185585
0.6140643,-0.21086773,0.17983802,-6.7740436,-34.281418,2.7191467
0.59257144,-0.20348717,0.17354351,-6.536946,-33.081535,2.623974
0.57197964,-0.196416,0.1675129,-6.3097873,-31.931955,2.5327911
0.5522372,-0.18963653,0.16173102,-6.091999,-30.829794,2.4453695
0.5332967,-0.1831324,0.156184,-5.8830566,-29.772398,2.3614986
0.51511425,-0.17688861,0.150859,-5.6824775,-28.757328,2.2809849
0.49764955,-0.17089128,0.1457442,-5.4898157,-27.782324,2.203649
0.48086518,-0.16512759,0.14082864,-5.3046594,-26.8453,2.1293259
0.4647265,-0.15958561,0.13610218,-5.1266255,-25.944324,2.057862
0.4492013,-0.15425432,0.1315554,-4.9553595,-25.077599,1.9891146
0.43425965,-0.1491234,0.1271795,-4.7905307,-24.24345,1.9229513
0.41987365,-0.1441833,0.12296635,-4.6318316,-23.440321,1.8592485
0.40601724,-0.13942504,0.11890829,-4.478975,-22.666758,1.7978907
0.39266604,-0.13484028,0.11499819,-4.3316913,-21.9214,1.7387701
0.37979725,-0.13042118,0.111229375,-4.189729,-21.202974,1.6817856
0.36738947,-0.12616038,0.10759556,-4.052853,-20.510283,1.6268425
0.35542256,-0.122050986,0.10409087,-3.9208403,-19.842205,1.5738517
0.3438776,-0.118086495,0.100709766,-3.7934823,-19.197685,1.5227294
0.33273682,-0.11426078,0.097447015,-3.6705828,-18.575727,1.4733967
0.32198337,-0.11056808,0.09429771,-3.5519562,-17.975393,1.4257792
0.31160137,-0.10700294,0.09125718,-3.4374275,-17.395798,1.3798065
0.30157584,-0.103560194,0.088321045,-3.3268306,-16.8361,1.3354123
0.2918925,-0.10023497,0.08548514,-3.220009,-16.295507,1.2925334
0.28253794,-0.09702264,0.08274551,-3.1168141,-15.773269,1.2511102
0.27349934,-0.09391881,0.08009841,-3.0171049,-15.26867,1.2110863
0.26476455,-0.09091931,0.0775403,-2.9207473,-14.781033,1.1724076
0.25632203,-0.088020176,0.07506778,-2.8276136,-14.309711,1.1350232
0.24816078,-0.08521763,0.07267764,-2.7375832,-13.854094,1.0988843
0.24027036,-0.08250809,0.07036681,-2.6505399,-13.413593,1.0639446
0.23264077,-0.079888105,0.06813237,-2.566374,-12.987656,1.0301598
0.22526248,-0.07735442,0.06597152,-2.4849806,-12.575747,0.99748796
0.21812639,-0.07490391,0.06388161,-2.4062588,-12.17736,0.9658885
0.2112238,-0.072533585,0.061860085,-2.3301132,-11.792008,0.93532306
0.2045464,-0.07024059,0.05990451,-2.2564514,-11.4192295,0.9057548
0.19808623,-0.06802219,0.058012553,-2.1851861,-11.058577,0.8771485
0.19183567,-0.06587577,0.056181982,-2.1162333,-10.709626,0.8494703
0.18578742,-0.063798815,0.054410655,-2.049512,-10.37197,0.8226879
0.17993446,-0.061788924,0.052696526,-1.9849449,-10.045216,0.7967703
0.17427005,-0.059843786,0.05103762,-1.9224582,-9.728989,0.7716877
0.16878776,-0.05796119,0.04943205,-1.8619804,-9.422929,0.7474115
0.1634814,-0.056138996,0.047877997,-1.8034433,-9.12669,0.72391427
0.15834498,-0.054375168,0.04637372,-1.746781,-8.839938,0.70116967
0.1533728,-0.052667733,0.044917542,-1.6919303,-8.562356,0.67915225
0.14855932,-0.051014803,0.043507844,-1.6388307,-8.293633,0.6578376
0.14389928,-0.04941456,0.04214308,-1.5874233,-8.033477,0.63720244
0.13938755,-0.047865245,0.04082175,-1.5376523,-7.7816,0.617224
0.13501921,-0.04636517,0.039542418,-1.489463,-7.537729,0.5978805
0.13078955,-0.04491272,0.038303696,-1.4428035,-7.301599,0.57915103
0.126694,-0.043506317,0.03710425,-1.3976234,-7.072956,0.5610154
0.12272814,-0.042144455,0.035942793,-1.3538741,-6.851554,0.54345423
0.11888775,-0.04082568,0.034818076,-1.311509,-6.6371565,0.52644855
0.11516874,-0.039548583,0.03372891,-1.2704828,-6.4295354,0.5099804
0.11156717,-0.038311817,0.032674134,-1.2307521,-6.22847,0.49403217
0.108079225,-0.037114065,0.031652637,-1.1922748,-6.033748,0.47858715
0.10470123,-0.035954073,0.030663338,-1.1550105,-5.8451643,0.463629
0.101429634,-0.034830615,0.029705202,-1.11892,-5.6625204,0.449142
0.09826101,-0.033742525,0.028777225,-1.0839653,-5.4856257,0.435111
0.09519206,-0.032688655,0.027878435,-1.0501102,-5.3142953,0.4215213
0.092219576,-0.031667914,0.027007898,-1.0173193,-5.1483502,0.40835884
0.08934048,-0.030679239,0.02616471,-0.98555857,-4.9876184,0.39560986
0.08655178,-0.029721608,0.025347997,-0.954795,-4.8319335,0.38326114
0.083850585,-0.028794028,0.024556912,-0.92499685,-4.6811337,0.37129998
0.08123412,-0.027895542,0.02379064,-0.89613336,-4.535064,0.35971397
0.078699686,-0.027025225,0.023048393,-0.86817473,-4.3935738,0.3484912
0.07624467,-0.02618218,0.022329405,-0.8410923,-4.2565174,0.3376201
0.07386655,-0.025365543,0.021632938,-0.81485814,-4.1237545,0.32708955
0.07156291,-0.024574477,0.02095828,-0.78944546,-3.9951484,0.31688872
0.06933136,-0.023808172,0.02030474,-0.7648282,-3.8705678,0.3070072
0.067169644,-0.023065845,0.019671647,-0.7409812,-3.7498856,0.29743487
0.06507555,-0.022346739,0.019058358,-0.7178802,-3.632978,0.28816196
0.06304693,-0.021650117,0.018464247,-0.69550157,-3.5197263,0.279179
0.061081734,-0.020975275,0.01788871,-0.6738225,-3.410015,0.27047688
0.059177957,-0.020321524,0.017331159,-0.652821,-3.3037326,0.26204675
0.057333663,-0.0196882,0.01679103,-0.63247573,-3.2007713,0.25388002
0.055546984,-0.01907466,0.016267775,-0.61276597,-3.101026,0.24596839
0.053816106,-0.01848028,0.015760861,-0.5936718,-3.0043962,0.23830386
0.052139275,-0.017904462,0.015269775,-0.57517385,-2.9107835,0.23087867
0.05051479,-0.01734662,0.014794021,-0.5572534,-2.8200936,0.22368526
0.048941016,-0.01680619,0.014333117,-0.5398923,-2.7322342,0.21671641
0.047416355,-0.016282627,0.013886596,-0.523073,-2.647117,0.20996504
0.045939267,-0.0157754,0.013454009,-0.50677854,-2.5646553,0.20342432
0.044508263,-0.015283997,0.013034918,-0.49099243,-2.4847665,0.19708768
0.043121897,-0.014807924,0.0126289,-0.47569874,-2.4073699,0.19094868
0.041778773,-0.014346699,0.012235546,-0.4608821,-2.332387,0.18500118
0.040477533,-0.013899858,0.011854459,-0.4465275,-2.2597427,0.17923914
0.039216872,-0.0134669505,0.011485254,-0.43262053,-2.1893637,0.17365679
0.037995517,-0.013047541,0.011127562,-0.41914713,-2.1211789,0.16824849
0.03681224,-0.012641206,0.010781021,-0.4060938,-2.05512,0.1630088
0.035665844,-0.012247539,0.010445282,-0.3934474,-1.9911201,0.15793243
0.034555186,-0.011866142,0.010120009,-0.38119516,-1.9291153,0.1530143
0.033479143,-0.011496632,0.009804873,-0.3693248,-1.8690429,0.14824946
0.032436635,-0.011138638,0.009499559,-0.3578244,-1.8108426,0.14363311
0.031426612,-0.0107918,0.009203759,-0.34668234,-1.7544562,0.13916063
0.030448064,-0.0104557695,0.008917176,-0.3358875,-1.6998266,0.13482751
0.029500004,-0.010130209,0.008639523,-0.325429,-1.6468992,0.13062939
0.028581483,-0.009814791,0.00837052,-0.31529635,-1.5956209,0.12656207
0.027691578,-0.009509201,0.008109898,-0.30547938,-1.5459402,0.12262148
0.026829397,-0.009213131,0.007857395,-0.2959682,-1.497807,0.118803635
0.025994074,-0.008926284,0.007612758,-0.28675336,-1.4511733,0.11510473
0.025184771,-0.008648371,0.007375741,-0.27782553,-1.4059923,0.11152104
0.024400676,-0.008379115,0.007146107,-0.2691758,-1.3622186,0.108048975
0.023641003,-0.008118246,0.0069236252,-0.26079547,-1.3198082,0.10468506
0.02290499,-0.007865502,0.006708073,-0.25267616,-1.2787188,0.101425916
0.0221919,-0.007620629,0.0064992337,-0.24480972,-1.2389091,0.09826827
0.02150102,-0.0073833824,0.0062968987,-0.23718826,-1.2003392,0.09520897
0.020831654,-0.0071535246,0.006100865,-0.22980417,-1.1629705,0.09224494
0.020183133,-0.0069308244,0.005910936,-0.22265002,-1.1267655,0.089373216
0.019554807,-0.0067150593,0.0057269214,-0.21571866,-1.0916879,0.08659092
0.018946048,-0.006506013,0.005548637,-0.20900314,-1.0577027,0.083895266
0.018356245,-0.0063034766,0.005375904,-0.20249672,-1.0247756,0.08128355
0.017784808,-0.006107247,0.00520855,-0.19619292,-0.9928739,0.07875316
0.017231163,-0.0059171272,0.0050464068,-0.1900854,-0.96196556,0.07630155
0.016694756,-0.005732927,0.004889312,-0.18416803,-0.9320196,0.07392629
0.016175052,-0.005554462,0.004737109,-0.17843492,-0.903006,0.07162498
0.015671529,-0.005381554,0.0045896443,-0.1728803,-0.8748958,0.06939532
0.0151836835,-0.005214029,0.0044467715,-0.16749865,-0.8476608,0.06723508
0.014711027,-0.0050517204,0.0043083467,-0.16228454,-0.82127374,0.06514211
0.0142530855,-0.0048944647,0.0041742316,-0.15723276,-0.7957082,0.06311429
0.013809402,-0.004742105,0.004044292,-0.15233827,-0.77093863,0.06114961
0.013379531,-0.004594489,0.003918398,-0.14759617,-0.7469402,0.059246093
0.0129630435,-0.0044514686,0.0037964236,-0.14300169,-0.72368896,0.05740184
0.012559523,-0.004312901,0.0036782462,-0.13855025,-0.70116156,0.055615
0.012168564,-0.0041786465,0.0035637482,-0.1342374,-0.6793355,0.05388379
0.011789776,-0.0040485724,0.0034528144,-0.1300588,-0.6581889,0.05220648
0.011422781,-0.003922547,0.0033453344,-0.1260103,-0.6377006,0.05058138
0.011067212,-0.0038004455,0.0032412002,-0.12208783,-0.6178501,0.049006876
0.010722711,-0.003682145,0.003140308,-0.11828747,-0.5986177,0.047481388
0.010388934,-0.0035675273,0.0030425566,-0.11460542,-0.5799839,0.046003386
0.010065548,-0.0034564775,0.002947848,-0.111037984,-0.5619302,0.044571396
0.009752229,-0.0033488849,0.0028560879,-0.107581615,-0.54443854,0.043183986
0.009448664,-0.0032446415,0.0027671843,-0.10423284,-0.5274914,0.041839764
0.009154549,-0.0031436433,0.0026810481,-0.100988306,-0.51107174,0.040537387
0.008869589,-0.003045789,0.0025975935,-0.09784478,-0.4951633,0.039275553
0.008593501,-0.002950981,0.0025167365,-0.09479911,-0.47975007,0.038053002
0.008326006,-0.0028591242,0.0024383967,-0.09184825,-0.46481663,0.036868505
0.008066838,-0.0027701268,0.0023624955,-0.08898924,-0.45034805,0.03572088
0.007815738,-0.0026838998,0.0022889571,-0.08621923,-0.43632987,0.03460898
