ax,ay,az,gx,gy,gz
-3.610942,1.7309248,-6.9646087,-28.298439,19.364721,-34.013947
-3.9649847,1.0796303,-8.222192,-14.96049,4.205581,-43.224556
-4.1049204,0.52810556,-9.078519,1.6103247,-13.307937,-39.354786
-4.1448436,0.42330205,-9.313652,8.80661,-31.073153,-25.61134
-4.138955,0.79201084,-9.139498,2.2639587,-43.801056,-13.368517
-4.245869,0.90172887,-8.951916,-2.1610692,-52.289356,-7.0856075
-4.2941294,0.92260575,-8.794356,-3.5252464,-57.66684,-4.358145
-4.3005223,0.91134536,-8.70245,-4.493469,-62.23192,-3.8181417
-4.3248596,0.8923067,-8.654731,-5.4429603,-68.10154,-4.1299934
-4.295739,0.9047037,-8.554518,-7.381765,-76.422165,-5.935242
-4.1704016,0.8497922,-8.352435,-8.668706,-85.006744,-8.979631
-3.928621,0.72712797,-8.0517235,-9.425759,-92.59066,-11.634473
-3.6624188,0.62698984,-7.702781,-10.21141,-99.04937,-13.153188
-3.3601434,0.58855325,-7.2973285,-11.066835,-104.626595,-14.195638
-3.0191004,0.54524875,-6.856875,-11.414949,-108.595436,-15.35386
-2.6718225,0.43612033,-6.40806,-11.349525,-110.85251,-16.037575
-2.372619,0.33291972,-5.9999895,-10.786986,-111.88783,-17.063046
-2.072538,0.25290897,-5.6037946,-9.836385,-112.10939,-18.264307
-1.6817292,0.22154985,-5.089895,-9.410387,-111.34437,-18.958258
-1.2638493,0.17477028,-4.5248413,-9.375722,-108.31989,-19.317116
-0.9251664,0.08902175,-4.0489736,-8.1307,-104.188385,-20.394548
-0.6169048,0.056586593,-3.6196003,-6.2929254,-100.48881,-21.892244
-0.18446796,0.0823288,-3.0911252,-5.378864,-96.599556,-22.420628
0.33716905,0.1296392,-2.4791412,-5.726532,-91.81693,-21.158281
0.76195014,0.18518923,-1.9408631,-6.976377,-86.01743,-18.886156
0.9610904,0.18019629,-1.587636,-8.240274,-80.245,-17.161057
1.0432159,0.10075959,-1.3651284,-9.13342,-74.861916,-15.522652
1.0533267,-0.0142066805,-1.2412575,-9.607038,-70.335144,-13.907711
1.0252781,-0.12693906,-1.1620519,-9.295813,-66.706955,-12.501859
0.9945417,-0.1926536,-1.0750246,-8.26722,-63.65724,-11.793932
0.9727764,-0.20766014,-0.9784026,-7.237263,-60.843956,-11.530453
0.9472328,-0.21772417,-0.9078313,-6.239963,-58.48253,-11.264938
0.9246518,-0.22165725,-0.84640634,-5.4015713,-56.383823,-10.794578
0.8995256,-0.2195035,-0.7924853,-4.7822714,-54.49396,-9.974789
0.8723982,-0.20950332,-0.7422137,-4.4851327,-52.683468,-8.776771
0.83181363,-0.19121058,-0.70404965,-4.0584407,-50.76811,-7.8910723
0.79403615,-0.1722158,-0.6709154,-3.5863633,-48.83871,-7.3848553
0.77706814,-0.16559298,-0.62581116,-3.1945841,-46.86072,-7.017648
0.7847889,-0.1773223,-0.56218415,-3.0066168,-44.75464,-6.4718943
0.8082352,-0.1932166,-0.47931942,-3.1756377,-42.406216,-5.52554
0.8636938,-0.20233259,-0.3642463,-3.3589964,-39.494152,-4.5454335
0.9427287,-0.21362004,-0.24769245,-2.9932911,-36.21428,-4.038632
0.9092053,-0.20602372,-0.23888452,-2.8868499,-34.926502,-3.8950183
0.87713724,-0.19875719,-0.23045896,-2.7850294,-33.69463,-3.7576394
0.8464366,-0.19180049,-0.22239268,-2.6875508,-32.515285,-3.6261187
0.81702304,-0.18513545,-0.21466456,-2.5941586,-31.385382,-3.5001113
0.7888227,-0.17874531,-0.20725521,-2.504619,-30.302086,-3.3793015
0.7617678,-0.17261474,-0.20014681,-2.418716,-29.262789,-3.263399
0.7357958,-0.16672955,-0.19332293,-2.3362513,-28.265093,-3.1521354
0.710849,-0.16107666,-0.1867684,-2.2570417,-27.306778,-3.0452635
0.686874,-0.15564398,-0.1804692,-2.1809177,-26.385794,-2.9425552
0.6638213,-0.1504203,-0.17441234,-2.1077223,-25.50024,-2.8437977
0.6416449,-0.14539517,-0.16858572,-2.0373094,-24.64835,-2.7487946
0.620302,-0.14055894,-0.1629781,-1.969543,-23.82848,-2.6573622
0.5997529,-0.13590255,-0.15757902,-1.9042966,-23.039097,-2.56933
0.5799602,-0.13141759,-0.1523787,-1.8414521,-22.278776,-2.4845386
0.5608892,-0.12709613,-0.14736798,-1.7808992,-21.546175,-2.4028387
0.5425073,-0.12293083,-0.14253831,-1.722534,-20.840046,-2.324091
0.5247838,-0.118914746,-0.13788165,-1.6662596,-20.159212,-2.248164
0.50769013,-0.11504135,-0.13339046,-1.6119848,-19.50257,-2.1749349
0.4911992,-0.11130455,-0.12905763,-1.559624,-18.869081,-2.104288
0.47528556,-0.10769855,-0.124876484,-1.5090959,-18.257769,-2.0361142
0.45992517,-0.10421793,-0.1208407,-1.4603246,-17.667711,-1.9703108
0.44509542,-0.10085754,-0.11694433,-1.4132382,-17.098036,-1.9067802
0.43077478,-0.09761252,-0.113181725,-1.3677682,-16.547918,-1.845431
0.41694298,-0.09447827,-0.10954756,-1.3238504,-16.01658,-1.7861758
0.4035808,-0.09145043,-0.10603678,-1.2814237,-15.503281,-1.7289325
0.39066994,-0.08852486,-0.102644585,-1.2404299,-15.0073185,-1.6736226
0.37819305,-0.08569763,-0.09936641,-1.2008141,-14.528028,-1.6201719
0.36613366,-0.082965,-0.096197926,-1.1625239,-14.0647745,-1.5685097
0.35447603,-0.08032341,-0.093135,-1.1255094,-13.616955,-1.5185686
0.34320527,-0.07776948,-0.09017372,-1.0897231,-13.183995,-1.4702848
0.33230704,-0.07529997,-0.08731032,-1.0551199,-12.765348,-1.4235971
0.3217678,-0.07291181,-0.08454124,-1.0216563,-12.36049,-1.3784472
0.31157452,-0.07060203,-0.08186306,-0.98929125,-11.968922,-1.3347793
0.30171478,-0.06836784,-0.07927251,-0.9579852,-11.590167,-1.2925404
0.2921767,-0.06620653,-0.076766476,-0.9277006,-11.223768,-1.2516794
0.2829489,-0.06411554,-0.074341975,-0.8984011,-10.869289,-1.2121478
0.27402055,-0.06209239,-0.07199613,-0.8700523,-10.526312,-1.1738988
0.26538113,-0.06013472,-0.069726214,-0.84262097,-10.194434,-1.1368877
0.25702068,-0.05824026,-0.06752959,-0.81607544,-9.873274,-1.1010717
0.24892958,-0.056406837,-0.06540373,-0.79038507,-9.562459,-1.0664096
0.2410986,-0.05463236,-0.06334622,-0.7655207,-9.261638,-1.0328618
0.23351891,-0.05291482,-0.061354738,-0.7414541,-8.970469,-1.0003906
0.226182,-0.05125229,-0.059427034,-0.7181584,-8.688626,-0.9689594
0.21907966,-0.04964292,-0.05756097,-0.69560754,-8.415795,-0.9385331
0.21220404,-0.048084922,-0.05575447,-0.67377657,-8.151673,-0.9090781
0.20554757,-0.046576582,-0.05400555,-0.65264136,-7.8959694,-0.8805619
0.19910295,-0.045116246,-0.052312292,-0.6321788,-7.6484036,-0.85295326
0.19286317,-0.043702327,-0.05067285,-0.6123667,-7.4087067,-0.8262222
0.18682146,-0.04233329,-0.049085453,-0.5931834,-7.1766186,-0.80033964
0.18097131,-0.04100766,-0.047548387,-0.5746084,-6.951889,-0.7752777
0.17530644,-0.039724015,-0.04606,-0.5566217,-6.7342772,-0.75100946
0.16982079,-0.03848098,-0.044618696,-0.539204,-6.5235496,-0.727509
0.1645085,-0.03727723,-0.043222953,-0.5223368,-6.319482,-0.7047514
0.15936399,-0.036111493,-0.041871276,-0.5060022,-6.121858,-0.68271226
0.15438175,-0.034982532,-0.040562246,-0.49018294,-5.9304695,-0.6613685
0.14955658,-0.03388916,-0.03929448,-0.47486237,-5.7451134,-0.64069754
0.14488338,-0.032830223,-0.038066648,-0.46002436,-5.565596,-0.6206777
0.14035729,-0.03180462,-0.03687746,-0.44565338,-5.3917294,-0.60128796
0.13597356,-0.03081128,-0.03572568,-0.43173444,-5.2233315,-0.58250815
0.13172762,-0.029849162,-0.034610104,-0.41825303,-5.060227,-0.56431866
0.12761508,-0.02891727,-0.033529576,-0.40519518,-4.9022465,-0.5467006
0.12363166,-0.028014636,-0.032482974,-0.39254728,-4.749226,-0.5296357
0.119773254,-0.027140329,-0.031469215,-0.3802963,-4.6010075,-0.51310635
0.11603586,-0.026293445,-0.03048725,-0.36842954,-4.457438,-0.49709544
0.112415634,-0.025473112,-0.029536074,-0.35693488,-4.31837,-0.48158646
0.10890886,-0.024678485,-0.028614704,-0.34580037,-4.1836596,-0.4665635
0.10551193,-0.02390875,-0.027722197,-0.33501467,-4.053169,-0.45201114
0.10222137,-0.023163116,-0.026857633,-0.3245667,-3.9267642,-0.43791443
0.09903381,-0.022440821,-0.026020134,-0.31444573,-3.804316,-0.42425895
0.095945984,-0.021741128,-0.025208838,-0.3046415,-3.6856992,-0.41103077
0.09295474,-0.02106332,-0.024422921,-0.2951439,-3.570793,-0.39821637
0.090057045,-0.020406708,-0.02366158,-0.2859433,-3.4594798,-0.38580266
0.08724993,-0.019770622,-0.022924038,-0.27703035,-3.3516464,-0.37377706
0.08453055,-0.019154418,-0.02220955,-0.26839593,-3.2471833,-0.36212727
0.08189614,-0.018557467,-0.021517385,-0.2600313,-3.1459842,-0.35084152
0.07934402,-0.017979164,-0.020846842,-0.251928,-3.0479465,-0.3399083
0.07687161,-0.017418921,-0.02019724,-0.24407777,-2.9529705,-0.32931653
0.074476406,-0.016876174,-0.019567924,-0.23647267,-2.8609602,-0.31905553
0.072155975,-0.01635037,-0.018958254,-0.22910498,-2.7718225,-0.30911484
0.06990797,-0.015840977,-0.018367615,-0.22196728,-2.685467,-0.29948443
0.06773013,-0.015347483,-0.017795406,-0.21505232,-2.6018064,-0.29015458
0.065620236,-0.014869386,-0.017241055,-0.20835313,-2.5207565,-0.28111586
0.06357617,-0.014406207,-0.016703997,-0.20186295,-2.4422352,-0.2723591
0.06159587,-0.013957475,-0.016183693,-0.19557522,-2.3661633,-0.26387554
0.059677333,-0.0135227395,-0.015679616,-0.18948361,-2.292464,-0.25565657
0.05781863,-0.013101561,-0.015191261,-0.18358196,-2.2210631,-0.24769391
0.056017883,-0.012693517,-0.014718133,-0.17786436,-2.1518886,-0.23997955
0.05427328,-0.012298195,-0.0142597575,-0.17232502,-2.084871,-0.23250571
0.052583072,-0.011915197,-0.013815671,-0.16695836,-2.0199428,-0.22526489
0.05094555,-0.011544138,-0.013385429,-0.16175902,-1.9570385,-0.21824977
0.04935907,-0.011184646,-0.012968597,-0.15672173,-1.8960949,-0.21145332
0.047822036,-0.010836357,-0.012564757,-0.15184143,-1.8370508,-0.20486869
0.046332903,-0.010498923,-0.012173503,-0.14711323,-1.7798468,-0.19848928
0.044890177,-0.010172005,-0.01179444,-0.14253238,-1.7244254,-0.19230866
0.043492403,-0.009855273,-0.01142719,-0.13809426,-1.670731,-0.18632063
0.042138185,-0.009548411,-0.011071383,-0.13379444,-1.6187096,-0.18051918
0.040826157,-0.009251108,-0.0107266605,-0.12962857,-1.568309,-0.17489849
0.039555006,-0.008963069,-0.010392679,-0.1255925,-1.5194786,-0.1694529
0.038323455,-0.008684002,-0.010069101,-0.12168215,-1.4721693,-0.16417696
0.037130266,-0.008413629,-0.009755603,-0.11789363,-1.4263339,-0.15906537
0.03597425,-0.008151677,-0.009451871,-0.11422311,-1.3819262,-0.154113
0.034854237,-0.0078978855,-0.009157599,-0.110666916,-1.3389016,-0.1493149
0.033769112,-0.0076519987,-0.008872493,-0.1072215,-1.2972172,-0.14466622
0.032717783,-0.00741377,-0.008596267,-0.103883386,-1.2568312,-0.14016235
0.031699196,-0.007182961,-0.008328644,-0.10064923,-1.2177029,-0.13579875
0.03071233,-0.00695934,-0.008069355,-0.09751581,-1.1797932,-0.13157104
0.029756201,-0.0067426832,-0.007818141,-0.09447996,-1.1430641,-0.127475
0.028829847,-0.0065327734,-0.007574751,-0.09153866,-1.1074789,-0.123506516
0.027932338,-0.0063294,-0.0073389397,-0.088688955,-1.0730016,-0.11966161
0.027062777,-0.00613236,-0.007110472,-0.085927986,-1.0395981,-0.11593643
0.026220296,-0.0059414557,-0.006889118,-0.08325299,-1.0072347,-0.11232725
0.025404047,-0.0057564955,-0.0066746566,-0.08066128,-0.9758791,-0.10883045
0.024613213,-0.0055772946,-0.0064668735,-0.07815028,-0.9454998,-0.10544254
0.023847004,-0.0054036733,-0.0062655597,-0.075717464,-0.91606635,-0.10216011
0.02310465,-0.0052354583,-0.006070514,-0.0733604,-0.8875494,-0.09897989
0.022385413,-0.0050724805,-0.0058815414,-0.07107671,-0.8599203,-0.09589869
0.021688567,-0.004914577,-0.0056984522,-0.06886414,-0.8331515,-0.09291341
0.021013418,-0.0047615897,-0.0055210637,-0.06672045,-0.8072161,-0.09002109
0.02035929,-0.004613366,-0.005349198,-0.0646435,-0.7820882,-0.08721881
0.019725526,-0.0044697565,-0.005182683,-0.06263121,-0.7577426,-0.084503785
0.019111494,-0.0043306183,-0.0050213523,-0.060681578,-0.73415494,-0.081873275
0.018516578,-0.0041958117,-0.004865044,-0.05879264,-0.7113017,-0.07932467
0.017940184,-0.004065202,-0.004713602,-0.05696251,-0.68915987,-0.076855406
0.017381733,-0.0039386586,-0.004566875,-0.055189352,-0.6677074,-0.07446302
0.016840668,-0.0038160547,-0.0044247154,-0.0534714,-0.64692277,-0.072145104
0.016316447,-0.0036972675,-0.004286982,-0.05180693,-0.62678516,-0.06989935
0.015808547,-0.0035821784,-0.004153536,-0.050194275,-0.60727453,-0.06772351
0.015316457,-0.003470672,-0.0040242444,-0.048631825,-0.5883712,-0.06561541
0.014839686,-0.003362637,-0.0038989778,-0.04711801,-0.5700564,-0.063572936
0.014377758,-0.0032579652,-0.0037776108,-0.045651328,-0.5523117,-0.061594043
0.013930209,-0.0031565516,-0.0036600218,-0.0442303,-0.5351195,-0.05967675
0.013496593,-0.0030582952,-0.0035460936,-0.04285351,-0.51846236,-0.057819147
0.013076475,-0.0029630975,-0.0034357118,-0.04151958,-0.50232387,-0.05601937
0.012669435,-0.0028708633,-0.0033287662,-0.04022717,-0.4866877,-0.05427562
0.012275066,-0.0027815,-0.0032251496,-0.038974997,-0.47153825,-0.05258615
0.011892973,-0.002694919,-0.0031247586,-0.0377618,-0.45686042,-0.05094927
0.011522775,-0.002611033,-0.0030274927,-0.03658637,-0.4426395,-0.04936335
0.0111641,-0.002529758,-0.0029332547,-0.03544753,-0.4288613,-0.047826793
