ax,ay,az,gx,gy,gz
-0.30454823,1.6009237,0.08727352,10.542823,-2.3300211,-6.5473323
0.05020441,1.8344289,0.18005426,0.8663398,-3.139052,-7.091776
0.43308997,1.7379868,0.42952082,-10.321128,0.36052862,-6.594819
0.75939655,1.4004004,0.5833773,-15.683852,7.862774,-7.4458146
0.8200891,1.0976511,0.47478354,-11.914907,14.054931,-9.854388
0.61387396,1.1013496,0.2250951,-8.347125,16.284422,-13.051754
0.45318103,1.2965506,0.029116996,-7.4867477,15.5281925,-15.701378
0.37273225,1.5719405,-0.11830355,-8.639888,13.822257,-18.974545
0.36253166,1.7879162,-0.2589134,-9.850608,11.993856,-23.874763
0.42604473,1.9640589,-0.37923136,-12.11136,11.18237,-29.351553
0.46978667,2.1718707,-0.5460793,-16.543768,10.566345,-33.923668
0.4643774,2.3149822,-0.7773075,-21.92276,9.477254,-38.30493
0.43212023,2.3384724,-1.0525743,-26.858866,7.6067905,-42.925888
0.40756235,2.2721474,-1.3263224,-31.16116,5.335773,-47.511204
0.38383976,2.111518,-1.6019396,-35.102608,2.5077055,-51.87173
0.3101281,1.6805218,-1.9407187,-38.39318,-1.5023175,-55.771675
0.20432015,0.9216422,-2.3025794,-39.157547,-6.4711366,-59.412697
0.09844233,-0.11574847,-2.6305537,-36.3674,-12.165704,-61.69198
0.07076949,-1.2332659,-2.8841088,-31.195734,-17.65583,-60.278374
0.10285946,-2.280304,-3.078239,-24.198252,-23.116425,-53.388187
0.16288887,-3.1029685,-3.1812894,-15.587494,-28.643625,-44.36335
0.26642406,-3.5928018,-3.1478026,-5.5234747,-33.925877,-34.32321
0.44032386,-3.6526945,-2.9418402,3.9803176,-38.292698,-24.163687
0.66563255,-3.337996,-2.5808315,11.419763,-41.325893,-14.561165
0.92341375,-2.7868838,-2.108004,15.468324,-42.002388,-6.424207
1.1665599,-2.1006362,-1.580969,17.751497,-41.001972,-0.274457
1.3613671,-1.3443769,-1.1077352,17.806902,-38.7408,3.3353436
1.4886483,-0.63606244,-0.71243423,16.139765,-35.475784,4.9288993
1.5599343,-0.00013521202,-0.4190212,12.9503765,-31.430027,5.6181846
1.5704458,0.5647317,-0.25108972,7.705305,-27.45806,5.0152893
1.5408986,1.0019187,-0.21749851,2.045033,-23.719824,3.2934523
1.5054624,1.3616543,-0.25458667,-3.9711761,-20.124704,0.68343204
1.4549779,1.6508975,-0.35089293,-10.280427,-16.771585,-2.6000009
1.3757762,1.8560401,-0.49358004,-16.465147,-14.068823,-6.225352
1.2853765,1.9926608,-0.67565566,-21.853405,-12.244858,-10.520352
1.1871759,2.033473,-0.8990876,-26.347319,-11.495193,-15.609782
1.0986649,1.9648831,-1.1153903,-29.810812,-11.831464,-21.02145
1.0395557,1.8038163,-1.2979729,-32.309814,-12.769284,-25.979362
1.0018426,1.578,-1.4561721,-34.02539,-14.056662,-29.934006
0.957165,1.3066456,-1.6093762,-34.104687,-16.444014,-33.102173
0.89980924,0.93725216,-1.7387254,-33.159405,-20.102558,-36.031635
0.89963675,0.48720497,-1.8042358,-31.218983,-23.992323,-38.06482
0.9503581,-0.007938572,-1.8229319,-28.572187,-27.677492,-38.50616
1.0321023,-0.48038816,-1.8009961,-24.93594,-30.77644,-37.22122
1.114211,-0.86755484,-1.7469898,-20.363106,-33.330933,-34.292717
1.1684482,-1.1284031,-1.6636599,-15.290554,-35.551384,-30.859194
1.2007742,-1.3066295,-1.5669234,-10.026955,-37.16199,-27.129116
1.2098023,-1.4169098,-1.464444,-5.046224,-38.41201,-22.81784
1.2107978,-1.4565306,-1.3482693,-0.65400773,-39.11674,-17.838428
1.1976496,-1.4326099,-1.2285773,3.1033597,-39.311497,-12.67896
1.168892,-1.3538024,-1.1225866,6.4714556,-39.25576,-8.426557
1.1338236,-1.2784964,-1.0247009,9.925082,-39.165287,-5.1571174
1.108106,-1.1818997,-0.90511316,13.284137,-38.984444,-2.3402212
1.1021152,-1.0201799,-0.75499487,15.729206,-38.43889,0.47836706
1.0985668,-0.82389253,-0.5999907,16.856035,-37.487003,2.8686476
1.0760411,-0.6480977,-0.47154966,17.671467,-36.340534,4.389396
1.0378293,-0.48926806,-0.3776826,18.603693,-35.04317,4.9816446
0.97700846,-0.3353907,-0.3195212,19.118172,-34.054737,5.054412
0.9283633,-0.20764013,-0.27608636,19.163576,-33.323044,4.887294
0.9140194,-0.10657843,-0.23715904,18.734182,-32.645172,4.3642955
0.9382506,-0.044973236,-0.1988248,17.947227,-31.606577,3.8280032
0.95794016,-0.0021121565,-0.17641136,16.950542,-30.200958,3.371781
0.9512522,0.036770254,-0.18402517,15.672891,-28.727833,2.8840742
0.9236756,0.046837755,-0.21281815,14.510212,-27.352829,2.2341318
0.8878117,0.037802,-0.24660699,14.078715,-25.918987,1.2707008
0.85930485,0.03658821,-0.23868866,13.62666,-25.086752,1.2298998
0.83176583,0.03541563,-0.23103917,13.189954,-24.282772,1.1904839
0.805157,0.03428266,-0.22364806,12.767997,-23.505947,1.1523994
0.7794426,0.03318777,-0.21650536,12.360223,-22.755234,1.1155951
0.7545886,0.032129515,-0.20960169,11.966094,-22.02964,1.0800222
0.7305627,0.031106517,-0.20292802,11.585096,-21.328222,1.0456345
0.707334,0.030117465,-0.1964758,11.216742,-20.650078,1.012388
0.68487316,0.029161109,-0.19023687,10.860562,-19.994352,0.9802404
0.6631521,0.028236253,-0.18420343,10.516115,-19.360222,0.9491517
0.64214414,0.027341757,-0.17836805,10.182975,-18.74691,0.9190835
0.62182355,0.02647653,-0.1727236,9.860736,-18.153666,0.8899992
0.60216594,0.02563953,-0.16726331,9.54901,-17.579777,0.86186373
0.58314776,0.02482976,-0.16198066,9.247425,-17.024557,0.8346436
0.5647467,0.024046265,-0.1568694,8.955625,-16.48735,0.80830663
0.54694116,0.023288125,-0.15192357,8.673268,-15.967532,0.7828221
0.5297106,0.022554467,-0.14713743,8.400029,-15.464498,0.7581604
0.5130351,0.021844443,-0.1425055,8.135593,-14.97767,0.7342932
0.49689576,0.021157248,-0.13802248,7.8796597,-14.506494,0.71119344
0.48127428,0.020492105,-0.13368331,7.631938,-14.050437,0.68883485
0.46615314,0.019848263,-0.12948312,7.3921504,-13.608987,0.66719234
0.45151547,0.019225009,-0.12541722,7.1600294,-13.181651,0.64624184
0.4373451,0.01862165,-0.12148111,6.9353185,-12.767957,0.6259602
0.4236263,0.01803752,-0.11767046,6.7177696,-12.367449,0.60632485
0.41034418,0.017471982,-0.11398109,6.5071445,-11.979687,0.5873145
0.3974842,0.01692442,-0.110408984,6.303214,-11.60425,0.5689084
0.38503247,0.016394239,-0.10695027,6.105757,-11.24073,0.55108654
0.37297553,0.015880868,-0.10360122,5.914561,-10.888737,0.53382975
0.3613004,0.015383755,-0.10035823,5.7294197,-10.547892,0.51711947
0.3499947,0.01490237,-0.09721784,5.5501356,-10.217829,0.5009379
0.33904627,0.014436199,-0.0941767,5.3765182,-9.898198,0.48526773
0.32844356,0.013984748,-0.0912316,5.208383,-9.58866,0.47009236
0.31817538,0.013547541,-0.088379405,5.0455523,-9.288888,0.45539576
0.30823085,0.013124114,-0.085617125,4.8878546,-8.998566,0.44116247
0.29859957,0.012714026,-0.082941845,4.735124,-8.717387,0.42737746
0.28927144,0.012316844,-0.08035078,4.5872006,-8.44506,0.41402638
0.28023672,0.011932157,-0.077841215,4.44393,-8.181298,0.40109524
0.271486,0.011559562,-0.07541053,4.3051634,-7.925828,0.38857058
0.2630102,0.011198672,-0.073056206,4.170756,-7.6783834,0.3764394
0.25480053,0.010849113,-0.07077581,4.040569,-7.438708,0.36468908
0.24684846,0.010510523,-0.06856697,3.9144666,-7.2065535,0.35330752
0.23914583,0.010182554,-0.06642742,3.79232,-6.981681,0.34228295
0.23168468,0.009864867,-0.064354934,3.674003,-6.7638583,0.331604
0.22445734,0.0095571345,-0.0623474,3.5593934,-6.5528617,0.3212597
0.21745639,0.009259042,-0.06040275,3.448374,-6.348474,0.31123945
0.21067466,0.008970284,-0.05851899,3.3408308,-6.1504865,0.30153292
0.2041052,0.008690564,-0.056694195,3.2366538,-5.9586964,0.29213023
0.1977413,0.008419597,-0.0549265,3.1357365,-5.772907,0.28302175
0.19157647,0.008157105,-0.053214096,3.0379758,-5.5929294,0.2741982
0.18560441,0.0079028215,-0.05155524,2.9432724,-5.4185796,0.26565054
0.17981905,0.0076564876,-0.04994824,2.8515294,-5.2496805,0.2573701
0.1742145,0.0074178525,-0.04839147,2.7626538,-5.08606,0.24934848
0.16878507,0.0071866736,-0.04688334,2.6765552,-4.9275517,0.24157749
0.16352524,0.0069627166,-0.045422323,2.593146,-4.7739954,0.23404925
0.1584297,0.006745754,-0.044006936,2.512342,-4.6252346,0.22675613
0.15349326,0.006535566,-0.042635743,2.434061,-4.481119,0.21969074
0.14871094,0.00633194,-0.04130736,2.3582242,-4.3415027,0.21284592
0.14407788,0.0061346698,-0.040020436,2.284754,-4.206244,0.20621476
0.13958941,0.0059435563,-0.03877368,2.213577,-4.0752068,0.19979054
0.135241,0.005758406,-0.037565824,2.144621,-3.9482584,0.19356678
0.13102825,0.005579032,-0.03639565,2.0778162,-3.8252704,0.1875372
0.12694693,0.0054052537,-0.03526198,2.0130954,-3.706119,0.18169568
0.12299289,0.0052368953,-0.034163672,1.9503932,-3.590684,0.17603639
0.119162165,0.0050737876,-0.033099614,1.8896464,-3.4788487,0.17055358
0.11545089,0.004915766,-0.032068733,1.8307939,-3.370501,0.16524173
0.11185533,0.004762671,-0.031069998,1.7737763,-3.2655313,0.1600955
0.10837186,0.004614349,-0.030102396,1.7185364,-3.1638343,0.15510972
0.10499699,0.0044706506,-0.029164959,1.6650183,-3.0653074,0.15027934
0.10172731,0.0043314314,-0.028256742,1.6131685,-2.9698515,0.14559954
0.098559536,0.0041965516,-0.02737683,1.5629346,-2.8773708,0.1410656
0.095490485,0.004065875,-0.026524343,1.5142664,-2.7877722,0.13667294
0.09251708,0.0039392705,-0.02569842,1.4671147,-2.7009656,0.13241719
0.08963632,0.0038166111,-0.024898233,1.4214323,-2.6168642,0.12829404
0.086845316,0.0036977734,-0.02412298,1.3771733,-2.535383,0.12429935
0.08414128,0.0035826387,-0.023371879,1.3342932,-2.4564407,0.12042913
0.08152148,0.0034710907,-0.022644179,1.292749,-2.3799577,0.11667948
0.07898329,0.0033630177,-0.02193915,1.2524991,-2.3058572,0.113046646
0.076524176,0.0032583114,-0.021256082,1.213503,-2.2340653,0.109526984
0.07414167,0.0031568666,-0.020594291,1.1757216,-2.1645095,0.10611695
0.07183336,0.0030585816,-0.019953115,1.139117,-2.0971203,0.10281314
0.06959695,0.0029633578,-0.01933191,1.1036526,-2.03183,0.09961223
0.0674302,0.0028711,-0.018730052,1.0692927,-1.9685735,0.096511014
0.06533093,0.0027817157,-0.018146938,1.036003,-1.9072868,0.09350639
0.06329703,0.0026951148,-0.017581984,1.00375,-1.8479089,0.090595335
0.061326485,0.002611211,-0.017034626,0.9725014,-1.7903801,0.08777493
0.0594173,0.00252992,-0.016504312,0.942226,-1.7346429,0.08504237
0.057567567,0.0024511607,-0.015990514,0.91289335,-1.6806414,0.0823949
0.055775434,0.0023748537,-0.015492714,0.88447416,-1.6283214,0.07982987
0.05403911,0.002300923,-0.015010416,0.85693985,-1.5776308,0.07734471
0.052356847,0.0022292943,-0.014543135,0.83026296,-1.5285184,0.074936934
0.05072697,0.0021598958,-0.014090404,0.8044167,-1.4809353,0.072604135
0.049147837,0.0020926583,-0.01365177,0.7793752,-1.4348338,0.07034397
0.047617875,0.0020275142,-0.013226793,0.7551134,-1.3901677,0.06815418
0.04613555,0.0019643987,-0.012815048,0.731607,-1.3468924,0.066032566
0.04469938,0.0019032479,-0.0124161225,0.70883256,-1.3049643,0.063977
0.04330792,0.0018440012,-0.012029618,0.6867671,-1.2643417,0.061985448
0.04195978,0.0017865992,-0.011655147,0.66538864,-1.2249839,0.060055897
0.040653616,0.0017309842,-0.011292335,0.6446758,-1.1868515,0.05818642
0.039388116,0.0016771007,-0.010940817,0.6246078,-1.1499062,0.056375146
0.038162015,0.0016248947,-0.010600244,0.6051646,-1.1141111,0.05462026
0.036974087,0.0015743141,-0.010270273,0.58632666,-1.0794303,0.05292001
0.03582314,0.001525308,-0.009950575,0.5680752,-1.0458294,0.05127269
0.034708027,0.0014778277,-0.009640831,0.550392,-1.0132744,0.049676657
0.033627626,0.0014318256,-0.009340728,0.5332592,-0.98173296,0.048130307
0.03258086,0.0013872554,-0.009049969,0.51665986,-0.9511734,0.0466321
0.03156668,0.0013440729,-0.0087682605,0.5005772,-0.92156523,0.045180533
0.030584073,0.0013022346,-0.0084953215,0.48499525,-0.8928788,0.043774154
0.029632054,0.0012616987,-0.00823088,0.46989834,-0.8650853,0.042411555
0.028709672,0.0012224248,-0.00797467,0.45527142,-0.83815706,0.041091375
0.027816003,0.0011843734,-0.007726437,0.44109985,-0.8120671,0.039812293
0.026950154,0.0011475065,-0.007485931,0.42736942,-0.7867893,0.038573027
0.02611126,0.0011117874,-0.007252911,0.4140664,-0.7622984,0.03737234
0.02529848,0.0010771801,-0.0070271455,0.40117753,-0.7385699,0.03620903
0.024511,0.0010436501,-0.0068084076,0.38868985,-0.71558005,0.03508193
0.023748035,0.0010111639,-0.006596479,0.3765909,-0.6933058,0.033989917
0.023008818,0.000979689,-0.0063911476,0.3648686,-0.671725,0.032931898
