ax,ay,az,gx,gy,gz
1.0436459,-0.20454732,0.430913,-22.361113,-12.706479,30.573006
1.0295206,0.16402245,0.47193062,-18.017586,-1.9409564,27.958153
0.75563085,0.50689423,0.3443025,-7.973723,4.603786,18.92303
0.34101707,0.96030384,0.16870138,-7.725066,3.6111434,10.794186
0.17922127,1.410895,0.23268805,-11.3190155,2.2603457,5.087808
0.28096095,1.8464819,0.43182403,-15.9810295,3.2802029,0.02368334
0.4887774,2.2317767,0.6153964,-19.99837,6.819239,-6.6613307
0.6443795,2.486529,0.66548723,-22.302027,11.530792,-15.342777
0.78340685,2.7159295,0.57346857,-26.45074,15.648503,-24.411585
0.9239468,2.852647,0.31905004,-31.795609,18.779852,-32.612923
1.0127498,2.7745152,-0.01105584,-37.386566,21.04179,-40.21701
1.024402,2.4793963,-0.4108017,-41.458977,22.079006,-47.037582
0.9633632,2.10146,-0.8512519,-43.948227,21.576283,-52.67107
0.8274538,1.7184781,-1.3003197,-44.924007,18.595638,-57.509895
0.61095357,1.228245,-1.7391717,-44.837547,13.686743,-61.74609
0.41066194,0.6262071,-2.134398,-42.752613,7.344561,-65.19779
0.2531282,-0.004472032,-2.4669044,-38.87009,-0.17368189,-67.3508
0.14659472,-0.57899064,-2.6998594,-34.627438,-8.568121,-67.241684
0.08528339,-1.0954006,-2.7957032,-30.730207,-17.422348,-63.89628
0.11818149,-1.5729647,-2.7123752,-26.424723,-25.071688,-58.7791
0.19538876,-1.9602876,-2.5499144,-21.731642,-31.051376,-52.491734
0.25650024,-2.2553964,-2.340836,-16.92971,-36.02497,-45.086308
0.33087638,-2.4375365,-2.0845344,-12.175882,-40.203552,-36.618313
0.43927988,-2.4918065,-1.7839781,-8.1524105,-42.840157,-27.571934
0.574024,-2.434719,-1.4654703,-4.5010056,-44.112953,-19.30146
0.6954902,-2.3049116,-1.1485354,-0.9723175,-44.220715,-11.444789
0.8277128,-2.012149,-0.8266123,1.7509826,-43.1942,-4.4408727
0.9481585,-1.5902969,-0.51945245,3.0624146,-41.22643,0.9539687
1.0367341,-1.1158491,-0.24197228,2.9436696,-37.929222,3.859319
1.0590291,-0.630296,-0.03909779,1.9513359,-34.280575,5.0591288
1.0603533,-0.1483798,0.1081777,-0.23509566,-30.608622,4.854658
1.0604203,0.3050749,0.20033126,-3.5459223,-27.01632,3.137226
1.0540001,0.68486804,0.23653671,-7.2145796,-23.367863,-0.4422713
1.0199943,0.96598333,0.20609546,-10.761533,-20.313799,-5.545193
0.98077095,1.1899464,0.10962518,-14.90173,-18.017406,-11.1371
0.9443094,1.3346419,-0.019232335,-19.582464,-16.50648,-16.72429
0.92251205,1.3661616,-0.16128433,-24.264475,-15.602847,-22.123837
0.9085907,1.2963456,-0.31102133,-28.250353,-15.238705,-27.097542
0.9027672,1.1865438,-0.46452555,-31.331636,-15.435678,-31.475481
0.8974005,1.0238429,-0.6195451,-33.67427,-16.060818,-35.471077
0.8813831,0.8112852,-0.7627549,-35.418434,-17.172049,-38.77661
0.86332625,0.5513175,-0.8914331,-36.512486,-18.530914,-41.188633
0.84197867,0.25775915,-1.008801,-36.442554,-20.096619,-42.960026
0.81901836,-0.03758695,-1.1116214,-35.135696,-22.108847,-43.700882
0.78499687,-0.30206844,-1.1768763,-33.500008,-24.377087,-43.495815
0.7447566,-0.5461494,-1.2098235,-31.644468,-26.728401,-42.50187
0.7018616,-0.77042896,-1.2207366,-29.243969,-29.248156,-41.032772
0.6744967,-0.9678669,-1.2131659,-26.526485,-31.858183,-39.09999
0.6707635,-1.1523561,-1.1828845,-23.53697,-34.07656,-36.31022
0.66521114,-1.3522791,-1.1473225,-20.177067,-35.994217,-33.034595
0.6419659,-1.5605357,-1.1283232,-16.293434,-37.830997,-29.306057
0.60179365,-1.7542027,-1.1293192,-12.145419,-39.826546,-24.823746
0.55483,-1.8910985,-1.130745,-7.863508,-42.107136,-19.48619
0.5492808,-1.8741977,-1.0958277,-3.3567958,-44.480656,-15.173543
0.59038293,-1.7394942,-0.99327016,1.0813752,-46.151264,-12.248585
0.6507958,-1.5802462,-0.8523123,4.9633822,-46.664623,-9.388995
0.69437295,-1.3669897,-0.70705646,7.880975,-46.514984,-6.12388
0.7150404,-1.0734764,-0.55652887,9.731004,-46.158745,-3.21077
0.7359149,-0.7177878,-0.3959409,9.953483,-45.484257,-1.8456815
0.76432115,-0.4012196,-0.23776928,9.166052,-44.273094,-1.6165748
0.7943568,-0.17510329,-0.10771771,7.8611717,-42.21248,-1.9803902
0.8123259,-0.033004336,-0.024238387,6.329087,-39.844334,-2.5015244
0.8160643,0.05761601,0.018752513,4.8088684,-37.54078,-3.2570422
0.81396633,0.104511,0.03481795,3.415937,-35.261692,-4.2718205
0.81271267,0.09407009,0.036303822,2.072791,-32.901783,-5.0789504
0.8179557,0.044491403,0.04390392,0.9146229,-30.399014,-5.4959526
0.837282,-0.032535713,0.07239768,0.14006668,-27.406147,-5.503678
0.8724949,-0.10728102,0.13943763,-0.77234447,-24.030123,-5.3217564
0.9147638,-0.15549713,0.2544932,-1.5040134,-20.13992,-4.9081464
0.88559484,-0.15053882,0.2463782,-1.4560552,-19.49772,-4.751641
0.85739774,-0.1457457,0.23853357,-1.4096947,-18.876917,-4.6003494
0.83013624,-0.14111163,0.23094925,-1.3648726,-18.276714,-4.4540787
0.8037759,-0.13663073,0.22361565,-1.3215321,-17.696352,-4.312643
0.77828383,-0.13229744,0.21652359,-1.2796192,-17.135105,-4.1758657
0.75362855,-0.12810639,0.20966433,-1.2390821,-16.592281,-4.0435786
0.7297801,-0.12405247,0.20302953,-1.1998715,-16.06722,-3.9156199
0.7067096,-0.120130815,0.19661118,-1.1619401,-15.559289,-3.7918358
0.6843897,-0.11633674,0.19040163,-1.1252427,-15.067882,-3.6720786
0.662794,-0.112665765,0.18439355,-1.089736,-14.592419,-3.5562072
0.6418972,-0.1091136,0.17857994,-1.0553784,-14.132344,-3.4440858
0.62167513,-0.10567613,0.17295402,-1.0221303,-13.687125,-3.3355849
0.60210454,-0.10234941,0.16750938,-0.9899532,-13.256249,-3.2305796
0.5831632,-0.09912964,0.16223978,-0.9588107,-12.839227,-3.12895
0.56482965,-0.09601319,0.15713926,-0.9286675,-12.435585,-3.0305817
0.5470833,-0.09299656,0.1522021,-0.8994897,-12.044872,-2.935364
0.52990437,-0.09007637,0.1474228,-0.87124485,-11.666652,-2.8431907
0.5132738,-0.087249406,0.14279607,-0.84390163,-11.300505,-2.7539597
0.49717328,-0.08451255,0.13831681,-0.8174299,-10.946027,-2.6675727
0.4815852,-0.08186279,0.13398011,-0.7918007,-10.602832,-2.5839353
0.46649256,-0.07929725,0.12978125,-0.7669861,-10.270545,-2.5029562
0.45187905,-0.076813154,0.12571566,-0.74295914,-9.948806,-2.4245477
0.43772885,-0.07440782,0.12177899,-0.719694,-9.637267,-2.348625
0.4240268,-0.07207866,0.11796699,-0.6971657,-9.335596,-2.275107
0.41075823,-0.06982319,0.11427559,-0.6753502,-9.043468,-2.2039146
0.39790905,-0.06763901,0.11070086,-0.6542241,-8.760573,-2.1349726
0.38546556,-0.06552379,0.10723901,-0.6337651,-8.486611,-2.0682075
0.3734147,-0.0634753,0.10388637,-0.61395156,-8.221293,-2.0035486
0.36174366,-0.061491396,0.100639425,-0.5947626,-7.964338,-1.9409281
0.3504403,-0.059569977,0.097494744,-0.57617813,-7.7154765,-1.88028
0.33949268,-0.057709035,0.09444905,-0.55817854,-7.474448,-1.8215408
0.32888943,-0.05590663,0.09149916,-0.54074514,-7.2410016,-1.7646493
0.31861946,-0.05416088,0.08864199,-0.52385974,-7.014893,-1.7095461
0.30867216,-0.052469976,0.08587458,-0.5075048,-6.7958875,-1.656174
0.29903716,-0.05083216,0.08319407,-0.49166343,-6.5837584,-1.6044776
0.28970453,-0.04924574,0.08059767,-0.47631913,-6.3782864,-1.5544035
0.28066462,-0.04770908,0.0780827,-0.4614561,-6.179259,-1.5059001
0.2719081,-0.0462206,0.07564659,-0.44705907,-5.986471,-1.4589173
0.263426,-0.04477876,0.07328682,-0.4331132,-5.799725,-1.4134067
0.2552096,-0.043382086,0.071000956,-0.41960412,-5.6188283,-1.3693218
0.24725048,-0.042029146,0.06878668,-0.4065181,-5.443596,-1.3266172
0.23954047,-0.04071855,0.0666417,-0.39384165,-5.2738485,-1.2852495
0.23207173,-0.039448965,0.06456385,-0.38156188,-5.1094127,-1.245176
0.22483659,-0.038219094,0.06255099,-0.3696662,-4.95012,-1.206356
0.21782771,-0.037027683,0.060601074,-0.3581425,-4.795809,-1.16875
0.21103793,-0.035873514,0.058712114,-0.34697905,-4.646322,-1.1323196
0.20446037,-0.03475542,0.05688219,-0.3361645,-4.5015063,-1.0970278
0.19808832,-0.033672262,0.05510945,-0.3256879,-4.361216,-1.0628387
0.19191532,-0.032622937,0.05339208,-0.31553853,-4.2253084,-1.0297177
0.18593512,-0.031606387,0.05172835,-0.30570614,-4.093645,-0.997631
0.18014166,-0.030621577,0.05011657,-0.29618078,-3.9660928,-0.9665463
0.17452906,-0.029667513,0.04855511,-0.2869528,-3.842523,-0.936432
0.16909164,-0.02874323,0.047042385,-0.27801287,-3.72281,-0.9072577
0.16382392,-0.02784779,0.04557687,-0.2693519,-3.6068332,-0.87899387
0.15872057,-0.026980292,0.044157088,-0.2609612,-3.4944751,-0.8516119
0.15377644,-0.026139857,0.0427816,-0.2528323,-3.3856225,-0.82508427
0.14898653,-0.025325641,0.041449014,-0.24495696,-3.2801657,-0.7993842
0.14434603,-0.024536818,0.040157996,-0.23732723,-3.1779978,-0.7744856
0.13985024,-0.023772597,0.038907237,-0.22993547,-3.0790162,-0.7503635
0.13549465,-0.023032205,0.037695482,-0.22277418,-2.983121,-0.7269937
0.13127485,-0.022314899,0.03652151,-0.21583618,-2.8902159,-0.70435244
0.12718661,-0.021619955,0.035384133,-0.20911449,-2.800207,-0.6824171
0.123225816,-0.020946676,0.034282215,-0.20260233,-2.7130039,-0.66116554
0.119388476,-0.020294381,0.033214644,-0.19629315,-2.628519,-0.64057636
0.11567073,-0.019662417,0.032180343,-0.1901806,-2.5466673,-0.6206289
0.112068854,-0.019050147,0.031178279,-0.18425857,-2.4673667,-0.6013031
0.108579226,-0.018456958,0.03020744,-0.17852107,-2.390537,-0.58257955
0.10519833,-0.017882254,0.029266855,-0.17296235,-2.3161016,-0.5644394
0.10192278,-0.017325455,0.028355574,-0.16757683,-2.2439852,-0.5468645
0.09874928,-0.016786005,0.027472686,-0.16235912,-2.174116,-0.5298372
0.09567465,-0.016263362,0.026617305,-0.15730394,-2.1064231,-0.51334035
0.09269581,-0.015756998,0.025788572,-0.15240626,-2.0408394,-0.49735743
0.08980975,-0.01526641,0.024985654,-0.14766115,-1.9772986,-0.48187238
0.0870136,-0.014791104,0.024207747,-0.14306384,-1.915737,-0.46686968
0.08430455,-0.014330601,0.02345407,-0.13860974,-1.856093,-0.4523343
0.08167987,-0.013884443,0.022723868,-0.13429436,-1.7983068,-0.43825164
0.079136945,-0.013452181,0.022016408,-0.1301134,-1.7423204,-0.42460763
0.07667322,-0.013033381,0.021330982,-0.12606265,-1.6880776,-0.41138852
0.074286215,-0.012627624,0.020666903,-0.122138046,-1.6355242,-0.39858112
0.07197355,-0.0122345025,0.020023506,-0.118335664,-1.5846074,-0.38617256
0.069732904,-0.011853624,0.019400144,-0.114651695,-1.535276,-0.37415045
0.067562036,-0.011484607,0.018796194,-0.11108245,-1.4874811,-0.3625027
0.06545877,-0.011127081,0.01821105,-0.10762435,-1.4411744,-0.35121763
0.06342099,-0.0107806865,0.017644128,-0.10427393,-1.3963097,-0.340284
0.061446667,-0.01044508,0.01709486,-0.10102784,-1.352842,-0.3296908
0.05953382,-0.0101199215,0.016562693,-0.09788282,-1.3107277,-0.31942746
0.057680532,-0.009804889,0.016047096,-0.09483573,-1.2699248,-0.30948368
0.05588495,-0.009499664,0.015547553,-0.09188352,-1.2303923,-0.29984954
0.054145273,-0.009203943,0.015063564,-0.08902322,-1.1920906,-0.29051533
0.05245976,-0.00891743,0.014594644,-0.086251974,-1.1549816,-0.28147176
0.05082673,-0.008639838,0.014140324,-0.083567016,-1.1190279,-0.27270976
0.049244538,-0.008370887,0.013700148,-0.080965646,-1.0841935,-0.26422054
0.047711607,-0.00811031,0.013273677,-0.07844527,-1.0504436,-0.25599563
0.0462264,-0.007857845,0.012860483,-0.076003365,-1.0177447,-0.24802679
0.044787433,-0.0076132407,0.012460153,-0.07363748,-0.98606354,-0.24030603
0.04339326,-0.0073762517,0.012072286,-0.07134525,-0.9553688,-0.23282565
0.042042498,-0.00714664,0.011696494,-0.06912438,-0.9256296,-0.22557814
0.040733784,-0.006924177,0.011332401,-0.06697265,-0.8968163,-0.21855627
0.03946581,-0.0067086397,0.010979643,-0.06488791,-0.86889994,-0.211753
0.038237315,-0.006499812,0.010637867,-0.062868066,-0.8418527,-0.20516151
0.03704706,-0.0062974854,0.010306731,-0.060911104,-0.8156475,-0.19877523
0.035893857,-0.006101457,0.009985903,-0.059015065,-0.790258,-0.19258775
0.034776557,-0.0059115314,0.009675063,-0.05717805,-0.7656589,-0.18659289
0.03369404,-0.0057275183,0.009373899,-0.05539822,-0.7418256,-0.18078466
0.032645218,-0.0055492334,0.009082111,-0.053673796,-0.7187342,-0.17515723
0.03162905,-0.0053764987,0.008799405,-0.052003056,-0.69636166,-0.16970499
0.03064451,-0.0052091405,0.0085255,-0.05038432,-0.67468554,-0.16442248
0.02969062,-0.0050469926,0.008260122,-0.048815977,-0.6536842,-0.1593044
0.028766423,-0.0048898924,0.008003005,-0.047296457,-0.63333666,-0.15434565
0.027870998,-0.004737682,0.007753891,-0.045824237,-0.6136225,-0.14954126
0.027003445,-0.00459021,0.007512532,-0.044397846,-0.59452194,-0.14488642
