ax,ay,az,gx,gy,gz
14.072855,-2.3145666,12.123747,-11.041919,-87.7808,7.3800673
16.329948,-2.5754006,13.998765,-2.6108742,-38.77293,11.453828
17.190233,-2.6308556,14.667794,7.5429583,2.8508182,11.006945
17.45212,-2.4658906,14.593668,16.11099,38.31223,10.165065
17.710768,-2.3475275,14.223782,23.228676,69.66302,7.56927
18.039303,-2.4128087,13.677866,29.384293,99.224144,5.892482
18.398647,-2.5328696,12.95226,35.704926,130.95367,5.6350756
18.713736,-2.5910692,11.844108,41.564854,162.03612,5.2798095
18.823605,-2.6182683,10.478128,46.759365,191.17313,3.849107
18.748669,-2.5519233,8.937833,50.557674,218.08212,2.0269375
18.497322,-2.4098723,7.246301,52.75331,242.11794,-0.59306616
18.067131,-2.2879765,5.461526,52.152195,262.6,-3.218492
17.316523,-2.241161,3.5287519,50.564644,278.46573,-5.1035657
16.36208,-2.2075915,1.6249942,49.458317,288.95697,-6.127144
15.330847,-2.086732,-0.17624386,49.659706,294.36234,-6.5397096
14.264893,-1.8232358,-1.8735818,49.991943,294.83667,-7.4537663
13.154065,-1.5126246,-3.485911,49.817036,289.0909,-10.235731
11.947094,-1.2417834,-5.033572,48.93134,279.20688,-14.028329
10.746528,-1.0712664,-6.4605036,48.08518,265.54233,-18.215635
9.616045,-1.0008492,-7.74317,47.146008,248.42357,-22.020838
8.615661,-1.0008036,-8.848272,46.118004,228.61026,-24.70759
7.7831354,-1.0079752,-9.770007,44.475388,205.8825,-25.648924
7.148633,-0.9616578,-10.506635,42.572235,182.28116,-25.96095
6.6567683,-0.88281333,-11.122919,40.31581,158.18639,-26.186035
6.2824054,-0.80696195,-11.638877,37.746143,133.94325,-26.42309
6.0205307,-0.7529218,-12.084463,34.609863,109.70901,-26.310665
5.873133,-0.74747705,-12.485364,30.399426,85.1522,-25.587679
5.8480024,-0.865117,-12.845591,25.78797,60.69086,-24.31406
5.9897685,-1.064627,-13.048052,22.317106,37.099903,-22.838558
6.3242464,-1.2547728,-13.013146,20.151646,14.509297,-21.76389
6.9614463,-1.3948474,-12.554263,18.61434,-6.2378902,-20.928265
7.905985,-1.4001839,-11.575558,16.344524,-21.895626,-19.070919
9.093478,-1.2158414,-10.076841,13.213527,-33.000618,-17.860697
10.332803,-1.0093693,-8.378563,10.270992,-39.32908,-18.474865
11.501245,-0.8224412,-6.61892,8.260302,-39.8236,-19.852741
12.429082,-0.607242,-5.030282,6.0054917,-35.55763,-21.030565
13.04146,-0.3886196,-3.7646217,2.8280926,-27.19493,-22.086544
13.307678,-0.26803598,-2.9549448,0.26806605,-17.35352,-23.904797
13.444529,-0.2181843,-2.4095125,-1.3251884,-6.5942187,-26.61664
13.540824,-0.22121252,-2.054404,-2.2230167,5.0603156,-30.004324
13.614654,-0.26917732,-1.8655044,-3.3314161,17.6388,-33.443703
13.641211,-0.3767482,-1.8475149,-5.40568,31.340038,-36.329468
13.551592,-0.58677405,-2.0680392,-7.479368,44.85846,-38.25413
13.356667,-0.8499699,-2.418908,-9.010939,57.458523,-39.07699
13.086961,-1.1163281,-2.8418975,-9.92604,68.91245,-39.02095
12.770877,-1.3509133,-3.2978547,-10.376467,79.09721,-38.352154
12.434972,-1.5361634,-3.764412,-10.551309,87.93492,-37.14637
12.0483675,-1.6681017,-4.2728977,-11.03723,95.41302,-35.589714
11.621119,-1.7825189,-4.8002048,-12.2029085,101.39733,-33.52105
11.146146,-1.8843166,-5.344162,-13.9144125,105.65342,-30.95461
10.617062,-1.9752009,-5.898566,-15.763059,107.58635,-27.94055
10.068324,-2.0535946,-6.4277825,-17.067368,106.11415,-24.302973
9.73197,-1.9849898,-6.2130485,-16.497196,102.569176,-23.49108
9.408258,-1.9189637,-6.006386,-15.948454,99.15745,-22.709702
9.096585,-1.8553929,-5.8074083,-15.420119,95.8726,-21.957382
8.796385,-1.7941624,-5.6157556,-14.911234,92.70867,-21.23276
8.507131,-1.7351643,-5.431091,-14.420903,89.6601,-20.534555
8.228328,-1.678298,-5.2530985,-13.948289,86.72168,-19.86158
7.959512,-1.6234689,-5.0814824,-13.492605,83.88853,-19.212711
7.7002487,-1.5705879,-4.915964,-13.053113,81.156044,-18.586899
7.4501266,-1.5195717,-4.7562823,-12.629118,78.51991,-17.983154
7.208761,-1.4703412,-4.6021905,-12.219966,75.97606,-17.400545
6.975787,-1.4228225,-4.4534564,-11.825039,73.520645,-16.83819
6.7508607,-1.3769451,-4.3098593,-11.443753,71.150055,-16.295261
6.5336566,-1.3326429,-4.1711926,-11.075559,68.860855,-15.770973
6.323867,-1.289853,-4.0372596,-10.719933,66.649796,-15.264582
6.121199,-1.2485157,-3.9078734,-10.37638,64.5138,-14.775382
5.9253774,-1.2085748,-3.7828577,-10.044432,62.449955,-14.302706
5.736138,-1.1699764,-3.6620438,-9.723641,60.455482,-13.845919
5.5532303,-1.1326694,-3.5452728,-9.413585,58.527744,-13.404415
5.3764167,-1.0966055,-3.4323921,-9.113858,56.664234,-12.977622
5.20547,-1.0617383,-3.323257,-8.824078,54.86256,-12.56499
5.0401745,-1.0280236,-3.2177296,-8.543876,53.120445,-12.165998
4.8803234,-0.99541944,-3.115678,-8.272903,51.435707,-11.780149
4.7257195,-0.9638855,-3.0169764,-8.010826,49.806274,-11.406966
4.5761747,-0.93338346,-2.9215045,-7.757324,48.23016,-11.045994
4.4315085,-0.90387654,-2.8291473,-7.512093,46.705467,-10.696798
4.2915487,-0.8753295,-2.7397947,-7.2748394,45.230373,-10.358962
4.1561303,-0.8477087,-2.6533413,-7.045284,43.803143,-10.032088
4.025094,-0.82098186,-2.569686,-6.823158,42.4221,-9.715793
3.8982894,-0.795118,-2.4887316,-6.608204,41.08565,-9.409711
3.77557,-0.7700874,-2.4103854,-6.400175,39.792263,-9.11349
3.6567957,-0.74586153,-2.334558,-6.198835,38.540455,-8.826793
3.541833,-0.72241306,-2.261164,-6.0039554,37.328815,-8.549294
3.4305522,-0.6997156,-2.1901205,-5.815317,36.155983,-8.280684
3.3228297,-0.67774385,-2.1213486,-5.6327105,35.02065,-8.020663
3.2185457,-0.65647346,-2.0547721,-5.455933,33.92156,-7.768942
3.1175854,-0.635881,-1.9903173,-5.28479,32.8575,-7.5252438
3.0198386,-0.61594397,-1.9279141,-5.119094,31.827303,-7.2893014
2.9251983,-0.59664065,-1.8674943,-4.958664,30.829853,-7.0608587
2.8335624,-0.57795006,-1.8089925,-4.803327,29.864063,-6.8396673
2.744832,-0.55985206,-1.7523454,-4.652915,28.928898,-6.625489
2.6589115,-0.5423272,-1.6974925,-4.5072665,28.023348,-6.418094
2.5757093,-0.5253568,-1.644375,-4.366226,27.146446,-6.2172604
2.495137,-0.5089228,-1.5929362,-4.2296433,26.29726,-6.022774
2.4171088,-0.4930077,-1.5431216,-4.0973735,25.47489,-5.8344293
2.3415422,-0.47759467,-1.4948786,-3.9692764,24.678463,-5.652026
2.2683578,-0.46266755,-1.4481565,-3.8452172,23.90714,-5.4753733
2.1974783,-0.4482106,-1.4029061,-3.725066,23.160116,-5.3042846
2.12883,-0.4342087,-1.3590798,-3.6086965,22.436604,-5.138581
2.062341,-0.4206472,-1.3166322,-3.4959872,21.73585,-4.9780893
1.9979421,-0.407512,-1.2755188,-3.386821,21.057121,-4.822643
1.9355662,-0.39478946,-1.235697,-3.2810843,20.399717,-4.6720796
1.8751489,-0.38246638,-1.1971256,-3.1786675,19.762955,-4.5262437
1.8166274,-0.37053,-1.1597645,-3.0794647,19.146173,-4.3849845
1.7599416,-0.35896802,-1.1235754,-2.9833734,18.548738,-4.248156
1.7050328,-0.34776852,-1.0885208,-2.8902946,17.970034,-4.115617
1.6518449,-0.33691996,-1.0545647,-2.8001325,17.409462,-3.9872315
1.6003228,-0.32641125,-1.0216722,-2.712795,16.866451,-3.8628674
1.5504142,-0.31623158,-0.9898097,-2.628192,16.340445,-3.7423975
1.5020677,-0.30637056,-0.9589445,-2.5462372,15.8309,-3.6256986
1.4552339,-0.29681805,-0.9290451,-2.4668467,15.3373,-3.512651
1.4098651,-0.28756437,-0.9000809,-2.3899395,14.85914,-3.4031396
1.3659151,-0.27860007,-0.87202245,-2.3154376,14.395933,-3.2970529
1.323339,-0.269916,-0.8448412,-2.2432644,13.9472065,-3.1942823
1.2820935,-0.26150334,-0.81850946,-2.173347,13.512504,-3.094724
1.2421368,-0.25335354,-0.7930004,-2.1056142,13.091384,-2.9982762
1.2034284,-0.24545832,-0.7682883,-2.0399973,12.683419,-2.9048414
1.1659287,-0.23780967,-0.74434793,-1.9764297,12.288197,-2.8143249
1.1296002,-0.23039988,-0.72115517,-1.914847,11.905314,-2.7266345
1.0944057,-0.2232214,-0.6986864,-1.8551869,11.534385,-2.641682
1.0603096,-0.21626699,-0.676919,-1.797389,11.175034,-2.559381
1.0272778,-0.20952962,-0.6558309,-1.7413949,10.826898,-2.4796484
0.99527663,-0.20300247,-0.63540083,-1.687148,10.489624,-2.4024038
0.96427387,-0.19667897,-0.61560816,-1.6345935,10.162873,-2.3275692
0.9342382,-0.19055271,-0.59643286,-1.5836784,9.846315,-2.2550688
0.9051393,-0.18461753,-0.5778557,-1.5343512,9.53963,-2.18483
0.87694794,-0.17886744,-0.55985785,-1.4865625,9.24251,-2.1167815
0.8496356,-0.17329668,-0.5424212,-1.4402639,8.954655,-2.0508547
0.8231749,-0.16789958,-0.52552825,-1.3954089,8.675774,-1.9869837
0.79753906,-0.16267076,-0.50916195,-1.3519522,8.405588,-1.9251039
0.7727024,-0.15760492,-0.49330583,-1.3098502,8.143825,-1.8651531
0.74863994,-0.152697,-0.47794393,-1.2690605,7.8902197,-1.8070709
0.7253274,-0.14794204,-0.46306083,-1.2295421,7.64452,-1.750799
0.7027414,-0.14333527,-0.44864157,-1.1912555,7.4064765,-1.6962807
0.6808592,-0.13887204,-0.43467164,-1.1541618,7.1758513,-1.6434615
0.6596589,-0.1345479,-0.421137,-1.1182239,6.9524126,-1.592288
0.63911915,-0.1303585,-0.4080241,-1.0834059,6.735936,-1.5427091
0.61921936,-0.12629962,-0.39531973,-1.0496726,6.526204,-1.4946748
0.5999395,-0.12236719,-0.3830112,-1.0169903,6.323006,-1.448137
0.5812603,-0.11855727,-0.37108606,-0.98532623,6.126138,-1.4030491
0.563163,-0.11486603,-0.35953245,-0.95464844,5.9354033,-1.3593657
0.5456294,-0.11128978,-0.3483387,-0.9249263,5.7506094,-1.317043
0.52864194,-0.107824914,-0.33749363,-0.8961299,5.571572,-1.2760385
0.51218355,-0.104467966,-0.32698634,-0.8682304,5.3981104,-1.2363113
0.4962378,-0.10121558,-0.31680632,-0.84119993,5.2300515,-1.1978214
0.4807887,-0.09806449,-0.30694336,-0.81501126,5.0672274,-1.1605302
0.46582073,-0.09501153,-0.29738754,-0.7896382,4.9094734,-1.1244004
0.4513189,-0.09205365,-0.28812933,-0.76505536,4.756633,-1.0893958
0.43726864,-0.08918788,-0.27915943,-0.74123806,4.6085515,-1.0554813
0.42365596,-0.08641136,-0.27046886,-0.7181624,4.4650817,-1.0226228
0.41046715,-0.08372129,-0.26204893,-0.6958053,4.32608,-0.9907877
0.397689,-0.08111499,-0.25389117,-0.67414445,4.191406,-0.9599438
0.3853088,-0.07858984,-0.24598742,-0.653158,4.0609255,-0.9300603
0.37331405,-0.076143324,-0.23832978,-0.6328251,3.934508,-0.9011074
0.3616928,-0.07377298,-0.23091057,-0.61312526,3.812027,-0.8730559
0.35043335,-0.071476445,-0.22372237,-0.5940388,3.6933594,-0.8458778
0.3395245,-0.06925141,-0.21675798,-0.5755466,3.5783865,-0.819546
0.32895532,-0.06709566,-0.21001044,-0.5576302,3.4669933,-0.794034
0.31871518,-0.065007016,-0.20347296,-0.5402715,3.3590684,-0.7693163
0.30879384,-0.06298341,-0.19713904,-0.52345335,3.2545037,-0.7453682
0.29918143,-0.0610228,-0.1910023,-0.5071588,3.1531944,-0.72216564
0.28986827,-0.059123233,-0.18505663,-0.49137157,3.0550392,-0.69968545
0.28084505,-0.0572828,-0.17929605,-0.4760758,2.9599397,-0.67790514
0.2721027,-0.05549967,-0.17371482,-0.46125624,2.867801,-0.65680295
0.2636326,-0.05377205,-0.16830735,-0.44689804,2.7785308,-0.63635767
0.25542614,-0.052098215,-0.16306822,-0.43298683,2.6920397,-0.6165489
0.24747516,-0.050476488,-0.15799218,-0.41950873,2.608241,-0.5973568
0.23977172,-0.04890525,-0.15307418,-0.40645018,2.5270514,-0.5787622
0.23230809,-0.04738292,-0.14830928,-0.39379817,2.4483893,-0.56074643
0.22507681,-0.045907985,-0.1436927,-0.38154003,2.3721757,-0.5432915
0.21807063,-0.044478968,-0.13921985,-0.36966348,2.2983348,-0.52638
0.21128257,-0.043094434,-0.13488623,-0.35815665,2.2267926,-0.5099949
0.2047058,-0.041752998,-0.13068752,-0.34700802,2.1574776,-0.4941199
0.19833378,-0.040453322,-0.12661952,-0.33620647,2.09032,-0.4787391
0.19216011,-0.039194107,-0.12267815,-0.32574114,2.0252535,-0.4638371
0.18617864,-0.03797409,-0.11885948,-0.31560162,1.9622122,-0.44939893
0.18038335,-0.036792047,-0.115159675,-0.3057777,1.9011333,-0.43541026
0.17476848,-0.035646804,-0.111575045,-0.2962596,1.8419558,-0.42185703
0.16932838,-0.03453721,-0.108102,-0.28703782,1.7846204,-0.4087257
