ax,ay,az,gx,gy,gz
18.353802,-0.9872817,13.076483,61.47965,-105.25913,-29.74118
20.935871,-0.95236534,14.87158,53.154034,-74.300156,-21.677366
22.32585,-0.92445505,15.920389,40.039627,-37.01419,-6.801921
22.4855,-0.9980307,15.914418,29.296335,2.6033206,8.490213
21.67072,-1.1248937,14.963904,22.480268,40.939384,20.59185
20.685768,-1.2460499,13.64844,21.143728,74.58739,26.709044
19.897661,-1.3345337,12.35955,22.89974,105.30338,30.379984
19.17588,-1.281687,11.032452,25.812954,133.43486,32.982018
18.43861,-1.088688,9.656541,28.73669,159.48122,34.839058
17.64192,-0.8359789,8.2195,30.404139,182.86008,35.300423
16.71188,-0.5879619,6.6440334,32.09418,201.57333,34.75183
15.794014,-0.383093,5.1444488,32.936398,216.4778,33.97164
14.900317,-0.23117019,3.7319608,33.031204,227.9138,33.122227
14.03245,-0.12402824,2.4247174,32.21477,236.33963,32.418102
13.179482,-0.04216141,1.2222152,31.076454,241.18446,31.727121
12.247216,0.073316574,0.09783404,29.80595,242.84807,30.911217
11.273196,0.22595587,-0.93433917,28.310577,241.31975,29.644339
10.275507,0.39860785,-1.8889854,27.115223,236.15169,27.4165
9.34349,0.57473606,-2.7333863,25.923187,227.61124,24.367094
8.543543,0.74690723,-3.449828,24.837967,216.2109,20.202085
7.8564057,0.8810882,-4.077729,23.732857,203.45807,15.636765
7.2306933,0.98113614,-4.641369,22.767317,189.82736,10.907273
6.6337905,1.0659798,-5.1594462,21.920954,175.38194,6.311914
6.071635,1.1665312,-5.6342483,21.269012,160.25348,1.9109017
5.5522394,1.3010266,-6.0728617,20.405834,143.80476,-2.393323
5.0873113,1.4527671,-6.4906654,19.23875,126.67281,-6.6883197
4.6862855,1.5942078,-6.8807955,17.880564,109.22589,-11.001454
4.3392305,1.7287123,-7.2530603,16.2827,91.533936,-15.456314
4.0460415,1.860328,-7.6102295,14.808764,73.20948,-20.218391
3.8431642,1.9914427,-7.918353,13.289928,53.70326,-25.264015
3.800707,2.1184437,-8.117585,11.407375,33.98449,-30.471403
3.9786117,2.1366138,-8.172817,9.398499,14.911986,-35.700993
4.3446965,2.0128052,-8.056405,8.611993,-2.9715686,-40.03447
4.8460884,1.8469604,-7.770826,8.101905,-18.925,-42.5936
5.3757577,1.6739513,-7.376306,8.3395405,-32.40954,-43.84784
5.9289126,1.537611,-6.8390856,7.9265475,-44.053806,-44.1298
6.5770016,1.4338411,-6.1627054,5.311338,-52.882004,-42.98012
7.294572,1.295124,-5.4051957,2.8501127,-57.805664,-41.79817
8.060709,1.1242093,-4.603703,1.9711686,-58.515923,-41.38809
8.846261,0.9865316,-3.7912962,1.3054465,-55.059475,-40.653587
9.54122,0.9463241,-3.012502,0.34109282,-48.9226,-39.46678
10.058221,0.93795455,-2.3598104,-0.61914253,-40.38276,-38.110184
10.397703,0.9641638,-1.8636141,-1.643263,-30.254272,-36.846127
10.62355,1.0071174,-1.4984729,-2.9393713,-18.836838,-35.68001
10.780476,1.0489044,-1.2530998,-4.5989275,-5.705893,-34.373497
10.853503,1.0941174,-1.17199,-6.5049276,8.24261,-33.056007
10.86139,1.1306657,-1.2268363,-8.420808,22.298317,-31.915047
10.811028,1.1337297,-1.4005605,-10.623113,36.046906,-30.705292
10.699879,1.1030539,-1.6804222,-13.130547,49.043312,-29.081982
10.521749,1.0575522,-2.0475261,-15.230676,60.382362,-27.39652
10.265969,1.0183425,-2.475069,-16.81877,70.147514,-26.237835
9.961095,0.9896357,-2.9205322,-17.970886,78.06415,-25.549791
9.610885,0.9786235,-3.3704755,-19.17505,83.687744,-25.002087
9.234687,0.9805985,-3.807964,-21.05672,87.19766,-24.26588
8.869465,0.9569918,-4.22968,-23.15149,88.698654,-22.814993
8.50396,0.87772274,-4.6475544,-24.734056,89.02248,-20.92804
8.135734,0.77743775,-5.0506525,-25.40392,88.324936,-18.838928
7.7765846,0.6749427,-5.4225707,-25.09943,86.88048,-16.583273
7.431085,0.58784765,-5.752547,-23.681232,84.75201,-14.137233
7.189034,0.5686998,-5.56517,-22.909868,81.9914,-13.6767435
6.955518,0.5502271,-5.3844004,-22.165703,79.32813,-13.2324915
6.730176,0.5324011,-5.2099595,-21.447588,76.758095,-12.803791
6.512669,0.5151949,-5.0415826,-20.754442,74.27741,-12.389996
6.3026752,0.498583,-4.8790226,-20.085238,71.882416,-11.990495
6.099891,0.48254144,-4.7220435,-19.439009,69.56966,-11.604709
5.9040294,0.46704745,-4.570423,-18.81484,67.33584,-11.232092
5.714817,0.45207953,-4.42395,-18.211863,65.17786,-10.872126
5.5319953,0.43761715,-4.2824244,-17.629251,63.092766,-10.524318
5.355319,0.4236409,-4.145656,-17.066223,61.077763,-10.188201
5.1845546,0.41013232,-4.013464,-16.522034,59.130184,-9.863332
5.0194798,0.3970738,-3.8856761,-15.995976,57.24749,-9.549285
4.8598824,0.3844486,-3.7621288,-15.487374,55.427273,-9.24566
4.7055607,0.37224072,-3.6426654,-14.995585,53.667225,-8.952071
4.5563216,0.36043498,-3.5271368,-14.519994,51.965145,-8.668153
4.411982,0.34901676,-3.4154005,-14.060015,50.318943,-8.393554
4.2723656,0.33797216,-3.3073206,-13.6150875,48.726604,-8.127941
4.137304,0.32728788,-3.2027667,-13.184675,47.186214,-7.8709936
4.0066357,0.3169512,-3.101614,-12.768266,45.69594,-7.6224046
3.8802073,0.30694988,-3.0037434,-12.365366,44.254017,-7.3818817
3.757871,0.29727226,-2.9090405,-11.975507,42.85876,-7.149143
3.6394844,0.28790712,-2.8173952,-11.598235,41.508556,-6.9239197
3.524912,0.2788437,-2.7287025,-11.233119,40.20185,-6.705952
3.4140236,0.2700717,-2.6428616,-10.879741,38.93716,-6.4949927
3.306693,0.26158112,-2.5597749,-10.537703,37.713047,-6.2908025
3.2028,0.2533625,-2.4793494,-10.206618,36.528145,-6.0931516
3.102229,0.24540669,-2.4014955,-9.886121,35.381123,-5.901821
3.0048685,0.23770481,-2.3261266,-9.575854,34.270718,-5.7165976
2.910611,0.23024844,-2.2531602,-9.275476,33.195705,-5.5372777
2.8193533,0.22302936,-2.1825159,-8.984658,32.154907,-5.363665
2.7309964,0.21603973,-2.114117,-8.703084,31.14719,-5.195571
2.6454442,0.209272,-2.0478892,-8.430448,30.171461,-5.0328126
2.5626044,0.20271882,-1.9837614,-8.166455,29.226667,-4.875214
2.482388,0.1963732,-1.9216646,-7.9108243,28.311798,-4.7226076
2.4047098,0.19022833,-1.8615322,-7.6632805,27.42587,-4.5748286
2.3294864,0.18427767,-1.8033004,-7.42356,26.567944,-4.4317203
2.2566385,0.17851491,-1.7469074,-7.1914096,25.737108,-4.293131
2.1860886,0.17293397,-1.6922934,-6.9665833,24.932484,-4.158914
2.1177628,0.16752894,-1.6394011,-6.7488437,24.153223,-4.028928
2.0515893,0.16229418,-1.5881748,-6.537963,23.398508,-3.903036
1.9874984,0.15722416,-1.5385609,-6.3337197,22.667547,-3.7811067
1.9254235,0.15231365,-1.4905076,-6.135901,21.95958,-3.6630127
1.8652999,0.14755747,-1.4439647,-5.9443,21.273867,-3.548631
1.8070652,0.14295073,-1.398884,-5.758719,20.609695,-3.4378426
1.7506589,0.1384886,-1.3552189,-5.578964,19.96638,-3.3305326
1.6960227,0.13416652,-1.3129239,-5.404851,19.343248,-3.2265902
1.6431001,0.12998001,-1.2719556,-5.2361984,18.739664,-3.1259081
1.5918368,0.12592474,-1.2322716,-5.072833,18.155003,-3.0283823
1.54218,0.12199655,-1.1938312,-4.9145875,17.588661,-2.9339128
1.4940785,0.11819141,-1.156595,-4.761299,17.040062,-2.8424025
1.4474832,0.11450542,-1.1205246,-4.61281,16.50864,-2.7537575
1.4023464,0.1109348,-1.0855834,-4.468969,15.993851,-2.6678872
1.3586218,0.10747591,-1.0517354,-4.3296285,15.495171,-2.5847037
1.3162651,0.10412521,-1.0189463,-4.194647,15.012089,-2.5041223
1.2752329,0.10087929,-0.9871824,-4.063886,14.544113,-2.4260607
1.2354834,0.097734846,-0.95641154,-3.9372134,14.090768,-2.3504393
1.1969762,0.09468868,-0.92660236,-3.8144994,13.651591,-2.2771816
1.1596721,0.09173768,-0.8977246,-3.6956198,13.226136,-2.2062128
1.1235335,0.08887888,-0.869749,-3.5804539,12.813972,-2.137461
1.0885235,0.086109355,-0.8426471,-3.4688847,12.414681,-2.0708563
1.0546067,0.08342631,-0.8163914,-3.3607993,12.027858,-2.0063314
1.0217488,0.080827035,-0.7909554,-3.2560883,11.6531105,-1.9438211
0.98991644,0.07830889,-0.76631343,-3.1546457,11.290061,-1.8832617
0.9590775,0.07586933,-0.7424404,-3.0563688,10.938341,-1.8245924
0.9292009,0.073505886,-0.7193123,-2.9611585,10.597596,-1.7677537
0.90025634,0.07121619,-0.6969058,-2.8689187,10.267482,-1.7126883
0.87221473,0.06899791,-0.67519826,-2.7795563,9.947665,-1.6593407
0.8450477,0.06684882,-0.6541677,-2.692981,9.637824,-1.607657
0.8187279,0.06476675,-0.6337931,-2.6091056,9.337645,-1.557585
0.79322886,0.06274961,-0.6140538,-2.5278456,9.046826,-1.5090744
0.7685248,0.06079536,-0.59492993,-2.4491193,8.765076,-1.4620764
0.744591,0.058902033,-0.57640225,-2.3728476,8.492108,-1.4165435
0.7214032,0.05706773,-0.5584521,-2.298953,8.227651,-1.3724301
0.6989382,0.0552906,-0.5410616,-2.2273622,7.9714355,-1.3296916
0.6771734,0.05356886,-0.52421296,-2.1580024,7.723206,-1.2882853
0.65608686,0.051900774,-0.5078895,-2.0908043,7.4827127,-1.2481693
0.6356574,0.050284673,-0.49207467,-2.0257,7.249714,-1.2093034
0.6158646,0.048718933,-0.47675267,-1.9626248,7.0239754,-1.1716486
0.59668845,0.047201972,-0.46190804,-1.9015146,6.8052707,-1.1351671
0.5781098,0.04573228,-0.44752595,-1.8423085,6.5933795,-1.0998222
0.5601099,0.04430837,-0.4335919,-1.784947,6.38809,-1.0655785
0.54267085,0.042928826,-0.42009196,-1.7293724,6.189196,-1.0324016
0.52577496,0.04159225,-0.40701255,-1.675529,5.9964976,-1.0002581
0.5094054,0.04029731,-0.39434054,-1.6233628,5.8098016,-0.96911585
0.49354574,0.039042708,-0.38206327,-1.5728215,5.628921,-0.9389437
0.47818002,0.03782718,-0.3701684,-1.5238545,5.4536743,-0.9097113
0.46329293,0.03664951,-0.35864398,-1.4764125,5.283886,-0.8813894
0.44886947,0.03550852,-0.3474785,-1.430448,5.1193852,-0.85394955
0.4348952,0.034403063,-0.33666077,-1.3859152,4.9600077,-0.82736427
0.4213561,0.033332035,-0.3261799,-1.3427691,4.805594,-0.8016069
0.40823865,0.03229436,-0.31602544,-1.3009667,4.655988,-0.7766517
0.3955297,0.031288996,-0.30618718,-1.260466,4.5110416,-0.7524736
0.3832165,0.030314941,-0.2966553,-1.2212266,4.370609,-0.7290484
0.37128672,0.029371215,-0.2874202,-1.183209,4.234549,-0.7063526
0.3597284,0.028456878,-0.2784727,-1.1463752,4.1027255,-0.68436354
0.34852996,0.02757101,-0.2698038,-1.1106882,3.9750068,-0.6630592
0.33768025,0.026712723,-0.26140478,-1.0761125,3.851265,-0.64241815
0.32716832,0.025881162,-0.25326732,-1.0426134,3.731376,-0.6224198
0.3169837,0.025075492,-0.2453832,-1.0101572,3.6152196,-0.6030441
0.30711618,0.024294905,-0.23774457,-0.9787116,3.5026798,-0.5842717
0.29755586,0.023538623,-0.23034374,-0.94824505,3.393644,-0.5660837
0.28829324,0.022805886,-0.22317335,-0.91872704,3.288003,-0.5484621
0.27931896,0.022095963,-0.2162262,-0.890128,3.1856508,-0.531389
0.2706241,0.021408143,-0.20949534,-0.86241937,3.0864851,-0.5148475
0.2621999,0.020741735,-0.20297402,-0.8355734,2.990407,-0.49882096
0.254038,0.020096073,-0.19665572,-0.80956316,2.8973198,-0.48329338
0.2461302,0.019470515,-0.19053413,-0.78436273,2.8071308,-0.4682492
0.23846856,0.018864429,-0.18460312,-0.75994676,2.7197495,-0.45367336
0.23104545,0.018277211,-0.17885675,-0.736291,2.6350884,-0.43955132
0.22385342,0.017708275,-0.17328927,-0.7133716,2.553063,-0.4258689
0.2168853,0.017157052,-0.16789511,-0.6911657,2.4735909,-0.4126124
0.2101341,0.016622987,-0.16266887,-0.6696511,2.396593,-0.39976862
0.20359306,0.016105548,-0.15760532,-0.6488063,2.3219922,-0.38732466
0.19725566,0.015604217,-0.15269941,-0.6286103,2.2497134,-0.37526807
0.19111553,0.015118493,-0.14794621,-0.60904306,2.1796849,-0.3635868
0.18516654,0.014647888,-0.14334099,-0.59008497,2.1118362,-0.35226917
0.17940274,0.014191934,-0.13887912,-0.571717,2.0461,-0.34130388
0.17381836,0.013750173,-0.13455614,-0.5539208,1.9824096,-0.3306799
0.16840783,0.013322164,-0.13036774,-0.5366786,1.9207021,-0.32038665
0.1631657,0.012907479,-0.12630972,-0.51997316,1.8609154,-0.3104138
0.15808678,0.012505702,-0.12237803,-0.50378776,1.80299,-0.30075142
