ax,ay,az,gx,gy,gz
15.930145,-0.7263703,11.110101,-37.786705,-50.43773,-13.205575
17.19319,-1.4451824,11.623684,-38.80172,-23.381205,2.4795158
17.967756,-1.9492624,11.730107,-40.720448,5.339262,12.4082985
18.089731,-2.3670847,11.461528,-35.69762,36.381298,15.451919
17.753178,-2.5515509,10.936387,-29.617653,64.72905,18.424574
17.205872,-2.5529492,10.222566,-26.029392,87.85444,23.637907
16.852926,-2.5922065,9.52098,-23.263853,109.089195,30.839796
16.721237,-2.6993732,8.768873,-19.281902,129.93384,37.065678
16.553698,-2.7009053,7.9595385,-14.492935,150.80887,41.819054
16.292736,-2.5554438,7.061393,-9.547025,171.30951,45.498917
15.916115,-2.2653162,6.0537033,-5.297587,190.83253,48.30875
15.40358,-1.8792367,4.9298606,-1.6966786,208.52904,49.657585
14.673138,-1.4170583,3.638952,-0.44506618,222.65733,49.89932
13.828105,-0.97907805,2.3451476,-0.15047474,232.42168,49.296535
12.942219,-0.62093157,1.1185079,-0.26065472,238.34169,47.943043
12.045025,-0.33066264,-0.029374357,-0.3657088,240.5507,45.64219
11.170586,-0.10032792,-1.0747594,-0.07859277,238.64455,41.967926
10.31792,0.088902496,-2.0125155,0.35197446,234.02017,37.889076
9.514066,0.2744229,-2.8447464,0.8101288,227.16338,33.728
8.750013,0.4582709,-3.6016688,1.1019955,218.1068,29.619617
8.036306,0.6293482,-4.2926636,1.2002231,207.09529,25.6043
7.3734426,0.77126145,-4.92735,1.4958541,193.88081,21.538977
6.745807,0.8755407,-5.5228944,2.0063717,179.68556,17.433598
6.1585984,0.9707033,-6.0895977,2.81295,164.4128,13.260995
5.623947,1.080267,-6.6186485,3.4634268,148.1661,9.04651
5.14708,1.1962762,-7.119487,4.0951104,130.9202,4.7559514
4.738635,1.3134694,-7.5883775,4.5098505,112.90551,0.55136484
4.4069653,1.461823,-8.037532,4.5396905,93.531555,-3.7162588
4.1588755,1.6187555,-8.462075,4.283732,73.281166,-8.037666
3.9928496,1.773191,-8.842079,3.6676037,52.414383,-12.471656
3.937484,1.9332103,-9.146103,2.150716,31.098356,-16.881779
4.0251493,2.08957,-9.3316,-0.7679416,9.543092,-21.164274
4.321176,2.234582,-9.294237,-4.4867043,-10.783208,-25.251453
4.8898516,2.3180962,-8.980609,-8.99492,-28.417795,-28.333008
5.707532,2.2713737,-8.385242,-13.801009,-42.05516,-29.669365
6.690332,2.0760212,-7.5723515,-17.593306,-50.68306,-29.66211
7.7273707,1.8286244,-6.6378236,-19.795046,-53.286144,-29.581354
8.7109375,1.5868074,-5.649765,-21.765083,-52.608593,-30.14098
9.608985,1.3154277,-4.694598,-23.687662,-48.92781,-30.084959
10.353647,1.0640225,-3.8526137,-25.776419,-42.6082,-29.085327
10.894753,0.85171175,-3.1701512,-27.71815,-34.29465,-27.603561
11.259893,0.70425624,-2.634017,-29.305151,-24.326601,-25.93249
11.4880495,0.64567995,-2.2606018,-30.468204,-12.116834,-24.604452
11.659215,0.6089042,-2.0460305,-31.664711,1.0568781,-23.45462
11.769846,0.552766,-2.0020683,-32.90421,14.446453,-22.061176
11.817945,0.47253665,-2.0966203,-33.784206,27.518621,-20.450407
11.8257475,0.3714899,-2.2998981,-34.20868,40.336,-18.552153
11.757915,0.23925494,-2.6380439,-34.622185,52.515537,-16.163715
11.632928,0.09847054,-3.042436,-34.91508,63.755993,-13.090491
11.447642,-0.024110269,-3.4840953,-34.797024,73.79122,-9.811636
11.199691,-0.11948732,-3.941468,-34.084534,82.17572,-6.5822606
10.910533,-0.17216296,-4.3821855,-32.846355,88.32032,-3.4156644
10.546043,-0.16641149,-4.2357893,-31.749052,85.36979,-3.3015568
10.195253,-0.16087618,-4.0948954,-30.692993,82.53016,-3.1917381
9.857509,-0.15554674,-3.9592412,-29.676207,79.79613,-3.0860033
9.532197,-0.15041348,-3.8285806,-28.69685,77.16274,-2.984161
9.218747,-0.14546739,-3.7026842,-27.753202,74.62538,-2.8860319
8.916622,-0.1407,-3.5813367,-26.84365,72.179695,-2.7914484
8.62532,-0.1361034,-3.4643362,-25.966682,69.82162,-2.700253
8.34437,-0.13167013,-3.351493,-25.120874,67.54733,-2.6122983
8.073325,-0.12739319,-3.2426288,-24.30489,65.35324,-2.5274448
7.8117695,-0.12326596,-3.1375756,-23.517471,63.235954,-2.445562
7.559307,-0.11928223,-3.0361748,-22.75743,61.192284,-2.3665257
7.3155656,-0.11543611,-2.9382768,-22.023642,59.219208,-2.2902198
7.0801926,-0.11172203,-2.8437397,-21.315046,57.31387,-2.2165337
6.8528543,-0.10813474,-2.75243,-20.63064,55.473576,-2.1453626
6.633234,-0.104669236,-2.66422,-19.96947,53.695755,-2.0766082
6.4210315,-0.10132079,-2.5789895,-19.33063,51.97799,-2.0101757
6.215962,-0.09808489,-2.496624,-18.713264,50.31796,-1.9459765
6.0177546,-0.09495727,-2.4170144,-18.116558,48.713474,-1.8839254
5.8261504,-0.09193385,-2.3400571,-17.53973,47.16245,-1.8239416
5.6409044,-0.08901075,-2.2656536,-16.982044,45.66289,-1.7659483
5.461782,-0.08618429,-2.1937096,-16.442793,44.212902,-1.709872
5.2885594,-0.08345092,-2.1241353,-15.921303,42.810673,-1.6556427
5.121023,-0.080807276,-2.0568447,-15.416931,41.45447,-1.6031936
4.9589686,-0.07825014,-1.9917561,-14.929065,40.14265,-1.5524607
4.8022017,-0.07577643,-1.9287909,-14.457113,38.873627,-1.5033829
4.650534,-0.07338319,-1.8678743,-14.000517,37.645885,-1.4559017
4.503788,-0.0710676,-1.808934,-13.558734,36.457977,-1.4099612
4.3617907,-0.06882696,-1.7519013,-13.131249,35.308517,-1.3655075
4.224379,-0.06665867,-1.6967101,-12.717568,34.196175,-1.3224891
4.091394,-0.06456023,-1.6432971,-12.317215,33.119667,-1.2808567
3.9626846,-0.06252925,-1.5916013,-11.929732,32.07777,-1.2405628
3.8381052,-0.060563453,-1.5415643,-11.554685,31.069304,-1.2015618
3.717516,-0.05866061,-1.49313,-11.1916485,30.09314,-1.16381
3.6007822,-0.056818612,-1.4462442,-10.8402195,29.148186,-1.1272652
3.4877748,-0.05503541,-1.4008552,-10.500009,28.233397,-1.091887
3.3783696,-0.053309046,-1.3569127,-10.170642,27.347763,-1.0576364
3.2724462,-0.051637623,-1.314369,-9.851758,26.490318,-1.0244759
3.1698895,-0.050019328,-1.2731773,-9.543009,25.660126,-0.99236935
3.070588,-0.048452403,-1.2332933,-9.2440605,24.856285,-0.961282
2.9744353,-0.04693516,-1.1946738,-8.954591,24.077932,-0.9311803
2.8813279,-0.045465965,-1.1572773,-8.674289,23.324232,-0.90203196
2.7911658,-0.044043254,-1.1210641,-8.402855,22.594374,-0.87380576
2.7038536,-0.042665508,-1.0859953,-8.139999,21.887585,-0.84647167
2.6192985,-0.041331265,-1.0520339,-7.8854446,21.203114,-0.82000065
2.5374107,-0.04003912,-1.0191439,-7.6389203,20.540236,-0.7943648
2.4581044,-0.038787704,-0.9872908,-7.400167,19.898254,-0.7695371
2.3812962,-0.037575707,-0.956441,-7.1689343,19.276495,-0.7454914
2.3069053,-0.036401857,-0.9265622,-6.9449797,18.674305,-0.72220254
2.2348547,-0.035264928,-0.8976232,-6.72807,18.091057,-0.69964623
2.1650686,-0.034163743,-0.86959386,-6.517978,17.526142,-0.677799
2.097475,-0.033097148,-0.8424451,-6.3144865,16.978975,-0.6566381
2.0320039,-0.032064043,-0.81614876,-6.117384,16.448988,-0.63614154
1.9685872,-0.031063357,-0.7906776,-5.926467,15.935633,-0.61628824
1.9071596,-0.03009406,-0.7660054,-5.741538,15.438378,-0.59705764
1.8476578,-0.02915515,-0.7421066,-5.562407,14.956715,-0.57842994
1.7900206,-0.028245663,-0.7189568,-5.388889,14.490144,-0.560386
1.7341889,-0.027364666,-0.6965322,-5.2208066,14.038188,-0.54290724
1.6801053,-0.026511254,-0.6748097,-5.057987,13.600384,-0.52597576
1.6277146,-0.025684554,-0.6537671,-4.9002643,13.176284,-0.5095743
1.5769633,-0.024883723,-0.633383,-4.7474766,12.765454,-0.49368602
1.5277995,-0.02410794,-0.61363643,-4.5994678,12.367475,-0.47829473
1.480173,-0.023356417,-0.5945074,-4.4560876,11.98194,-0.46338475
1.4340354,-0.02262839,-0.5759764,-4.3171897,11.6084585,-0.44894087
1.3893399,-0.021923114,-0.5580245,-4.1826324,11.24665,-0.4349484
1.3460408,-0.021239877,-0.54063356,-4.05228,10.896146,-0.42139316
1.3040944,-0.020577982,-0.5237859,-3.9259994,10.556591,-0.40826136
1.263458,-0.019936759,-0.5074644,-3.8036628,10.227641,-0.39553967
1.2240905,-0.019315558,-0.49165255,-3.6851463,9.908962,-0.38321522
1.185952,-0.018713752,-0.47633433,-3.5703297,9.600233,-0.37127554
1.149004,-0.018130729,-0.46149427,-3.459097,9.30114,-0.35970855
1.113209,-0.017565902,-0.4471173,-3.3513355,9.011381,-0.34850252
1.0785309,-0.017018698,-0.43318897,-3.2469366,8.730663,-0.3376462
1.0449347,-0.016488567,-0.41969517,-3.1457949,8.458704,-0.32712853
1.0123867,-0.015974974,-0.4066223,-3.047808,8.195229,-0.31693897
0.9808537,-0.015477398,-0.39395717,-2.9528775,7.9399705,-0.30706722
0.9503041,-0.014995341,-0.38168702,-2.8609073,7.6926727,-0.29750332
0.9207071,-0.014528315,-0.36979946,-2.7718053,7.4530864,-0.28823766
0.8920329,-0.01407585,-0.35828257,-2.685481,7.22097,-0.2792609
0.86425275,-0.013637492,-0.34712473,-2.6018484,6.9960904,-0.270564
0.8373385,-0.013212798,-0.3363147,-2.5208225,6.778221,-0.2621382
0.8112632,-0.012801343,-0.3258416,-2.4423223,6.5671425,-0.25397503
0.78600055,-0.0124027105,-0.31569496,-2.3662689,6.362643,-0.24606627
0.7615253,-0.012016502,-0.3058645,-2.2925854,6.164516,-0.238404
0.7378127,-0.011642328,-0.2963404,-2.2211983,5.9725633,-0.23098052
0.714839,-0.011279815,-0.2871131,-2.1520355,5.7865925,-0.22378834
0.69258106,-0.010928596,-0.27817327,-2.0850277,5.6064157,-0.21682027
0.6710167,-0.01058832,-0.269512,-2.0201077,5.431853,-0.21006928
0.6501241,-0.010258645,-0.26112056,-1.9572102,5.262728,-0.20352863
0.6298824,-0.00993924,-0.2529905,-1.8962722,5.098872,-0.19719173
0.6102712,-0.009629786,-0.24511375,-1.8372325,4.9401207,-0.19105224
0.5912709,-0.009329971,-0.23748234,-1.7800318,4.786314,-0.18510398
0.5728625,-0.009039494,-0.23008864,-1.7246128,4.6372986,-0.17934102
0.5550274,-0.008758065,-0.22292523,-1.6709199,4.492924,-0.17375754
0.5377478,-0.008485402,-0.21598493,-1.6188995,4.3530464,-0.16834797
0.5210064,-0.00822123,-0.20926078,-1.5684991,4.2175255,-0.16310687
0.5047863,-0.007965285,-0.20274603,-1.5196683,4.0862246,-0.15802902
0.48907143,-0.0077173114,-0.19643418,-1.4723582,3.9590132,-0.15310928
0.4738459,-0.00747706,-0.1903189,-1.4265215,3.8357632,-0.14834276
0.4590945,-0.0072442903,-0.18439403,-1.3821123,3.7163513,-0.14372468
0.44480246,-0.0070187687,-0.17865367,-1.3390858,3.6006577,-0.1392504
0.43095547,-0.0068002697,-0.17309207,-1.2973992,3.4885669,-0.13491543
0.41753963,-0.0065885745,-0.16770364,-1.2570106,3.3799663,-0.13071546
0.40454152,-0.0063834707,-0.16248299,-1.2178795,3.2747471,-0.12664625
0.39194816,-0.0061847535,-0.1574249,-1.1799669,3.1728044,-0.12270376
0.37974688,-0.005992223,-0.15252429,-1.1432348,3.0740356,-0.11888402
0.36792552,-0.0058056875,-0.14777628,-1.1076463,2.978342,-0.115183204
0.35647222,-0.0056249597,-0.14317608,-1.073166,2.885628,-0.11159762
0.3453755,-0.005449859,-0.13871911,-1.0397592,2.7958004,-0.10812367
0.33462426,-0.0052802097,-0.13440092,-1.0073923,2.7087698,-0.104757875
0.32420775,-0.0051158424,-0.13021715,-0.9760333,2.6244485,-0.10149687
0.31411555,-0.0049565923,-0.12616365,-0.9456505,2.5427525,-0.09833739
0.30433753,-0.0048023,-0.122236334,-0.91621363,2.4636,-0.095276274
0.29486394,-0.004652811,-0.11843129,-0.8876932,2.3869116,-0.09231046
0.2856853,-0.004507976,-0.11474471,-0.8600607,2.3126109,-0.08943698
0.27679238,-0.0043676505,-0.11117289,-0.83328843,2.240623,-0.08665295
0.26817632,-0.004231693,-0.10771228,-0.80734956,2.1708763,-0.08395559
0.25982848,-0.0040999684,-0.10435939,-0.7822183,2.1033008,-0.08134221
0.25174052,-0.003972344,-0.10111088,-0.7578693,2.0378292,-0.078810185
0.24390434,-0.003848693,-0.097963504,-0.7342784,1.9743956,-0.076356985
0.2363121,-0.0037288913,-0.0949141,-0.71142185,1.9129368,-0.07398015
0.22895622,-0.003612819,-0.09195963,-0.6892768,1.8533913,-0.071677305
0.22182932,-0.0035003598,-0.089097135,-0.66782117,1.7956994,-0.069446154
0.21492428,-0.0033914016,-0.086323746,-0.6470334,1.7398033,-0.06728445
0.20823419,-0.0032858353,-0.083636686,-0.62689275,1.6856472,-0.06519005
0.20175236,-0.003183555,-0.08103328,-0.6073791,1.6331772,-0.06316084
0.19547231,-0.0030844589,-0.07851091,-0.5884729,1.5823404,-0.061194796
0.18938775,-0.0029884474,-0.07606707,-0.5701552,1.5330861,-0.059289955
0.18349259,-0.0028954248,-0.073699296,-0.55240774,1.485365,-0.05744441
