ax,ay,az,gx,gy,gz
-4.354585,-1.1963745,-6.1682377,-1.4981954,-27.410248,-0.16636515
-4.23376,-1.5449699,-6.309635,4.712168,-39.999817,-9.422038
-3.542909,-1.5714792,-5.60202,-0.83438283,-38.592487,-13.754065
-3.0271215,-1.6927865,-4.974573,-3.7230191,-29.637796,-13.674242
-2.8660944,-1.6476451,-4.746569,-6.8059506,-21.34538,-12.264824
-2.9326055,-1.5666138,-4.8686066,-7.0230813,-18.47953,-11.063396
-3.0748181,-1.5703799,-5.0589185,-5.149489,-20.023478,-10.06796
-3.2044024,-1.6772735,-5.195276,-2.2167678,-26.182041,-9.516042
-3.171754,-1.8431824,-5.1448784,1.8682901,-32.179585,-8.377619
-2.9841332,-1.9678534,-4.9576526,6.913298,-36.611404,-6.2557955
-2.7508395,-2.0070426,-4.7353168,11.580112,-39.635353,-3.395062
-2.539778,-2.0097098,-4.5042267,14.762858,-41.78398,-0.29983163
-2.394855,-2.0580735,-4.3042736,16.794046,-44.217834,2.4348717
-2.2229486,-2.139222,-4.089244,18.007599,-46.67626,5.202973
-2.026208,-2.206508,-3.8651235,18.870388,-49.136856,7.855593
-1.7949252,-2.2378492,-3.6090937,19.563835,-51.239426,10.465941
-1.557262,-2.2342982,-3.3145142,19.674286,-52.78195,13.16899
-1.2816503,-2.2102573,-2.972339,20.476488,-53.55293,15.924645
-0.9790039,-2.129392,-2.6312602,21.109324,-53.445133,18.94535
-0.7404615,-2.0036836,-2.3397624,21.225565,-52.864113,22.165037
-0.58036053,-1.8571656,-2.11425,21.53467,-52.479954,25.096594
-0.4439632,-1.6887594,-1.8950348,22.22255,-52.3538,27.55392
-0.26275957,-1.4161847,-1.6387732,22.21614,-52.066303,29.51187
-0.07034623,-1.0724132,-1.3898209,21.207706,-51.396797,31.319004
0.078073904,-0.69238156,-1.1845186,19.066242,-50.2889,33.071182
0.12878953,-0.31351724,-1.0494593,16.803305,-49.117287,34.0688
0.11952341,0.033710256,-0.9582587,16.5936,-48.18634,33.359272
0.14669353,0.39924636,-0.86936355,17.421116,-47.46795,31.43484
0.22361885,0.7665708,-0.7550563,18.36886,-46.7012,28.722252
0.3274573,1.1251981,-0.6266687,18.544142,-45.701332,25.688854
0.42227852,1.4572961,-0.51233584,17.500603,-44.55429,22.50161
0.5043778,1.7309589,-0.42333513,14.588176,-43.406967,19.549593
0.59336865,1.9125743,-0.3575678,11.1317835,-42.238926,17.001173
0.680871,2.0483782,-0.31254572,7.5713797,-40.959354,14.698222
0.7538473,2.1570632,-0.29800016,4.165132,-39.529858,12.333075
0.7995942,2.2315338,-0.318304,1.0851504,-38.116062,9.744524
0.8214709,2.2787158,-0.36326328,-2.0146623,-36.90064,7.1690288
0.8424561,2.2758114,-0.4146019,-5.3243327,-35.913933,5.1743984
0.86365056,2.255383,-0.46295184,-8.19502,-34.934113,3.2464802
0.8837014,2.2317111,-0.51392627,-10.6761875,-33.93122,1.1548656
0.8801278,2.1904109,-0.57985944,-12.4155,-32.94801,-1.5873455
0.85146224,2.0912485,-0.65261096,-12.951001,-32.405426,-5.0093594
0.8407423,1.9309356,-0.65799433,-13.962005,-32.38169,-8.008683
0.88028955,1.7288383,-0.58956987,-16.138966,-32.47524,-10.268612
0.96102655,1.4623119,-0.4647716,-18.81696,-32.077724,-11.878843
1.0468578,1.1274858,-0.3240772,-20.907583,-31.19846,-13.196774
1.1137892,0.758735,-0.18076426,-21.192942,-29.904612,-14.736297
1.1683301,0.38297695,-0.017343128,-20.53096,-28.42049,-16.010246
1.2236198,0.03514685,0.16548264,-19.504244,-26.771055,-16.640131
1.2853051,-0.27576262,0.36007825,-18.776747,-24.96323,-16.585032
1.3546044,-0.55631423,0.5575826,-18.098162,-22.853209,-16.042122
1.4310378,-0.7974786,0.7462138,-17.308447,-20.418764,-15.057147
1.5050334,-0.97705954,0.90913343,-16.255138,-17.375446,-13.640645
1.5600156,-1.0981671,1.0332986,-15.068853,-14.150115,-12.021595
1.5860202,-1.1671995,1.1167042,-13.866026,-10.927453,-10.5699215
1.5910028,-1.2187082,1.1678001,-12.701439,-7.8878784,-9.284487
1.5973821,-1.2543303,1.2025644,-11.802099,-5.0675135,-8.108136
1.6306667,-1.2665437,1.2373178,-11.311289,-2.1830263,-6.8002653
1.6779177,-1.2606455,1.2719371,-10.854005,1.0786662,-5.295956
1.7138157,-1.2345337,1.2755548,-10.627688,4.5405803,-3.751681
1.732434,-1.2092127,1.2414303,-10.581834,7.9973907,-2.1329694
1.7220527,-1.1897348,1.1666429,-10.355672,11.1730175,-0.4384493
1.6804575,-1.1614972,1.0565786,-9.837557,14.070569,1.0590609
1.6398478,-1.1234335,0.9429003,-9.136589,16.79719,2.4182677
1.6100271,-1.0766703,0.82897437,-8.428286,19.504812,3.6817112
1.5792335,-1.021678,0.7043277,-8.075366,22.110214,4.949066
1.5315386,-0.95932287,0.5596845,-8.266457,24.51762,6.2438035
1.4542317,-0.895267,0.38886386,-8.644413,26.511778,7.635409
1.3364081,-0.8266256,0.19762857,-8.619808,28.04515,8.919812
1.1953913,-0.75342524,-0.003980354,-8.216509,29.182743,9.9082155
1.0531188,-0.6747356,-0.20345716,-7.6342387,30.045322,10.663512
0.9154082,-0.5931883,-0.4049632,-6.9859185,30.572674,11.254036
0.774216,-0.5143366,-0.6168285,-6.4307303,30.89264,11.753338
0.61807424,-0.43230987,-0.84753174,-6.071911,30.874922,12.0851965
0.43689963,-0.35237393,-1.1006619,-5.6069293,30.32995,12.135466
0.2439323,-0.27885103,-1.3624707,-4.861663,29.182825,11.9021015
0.05469971,-0.2105719,-1.6154537,-3.8744345,27.268513,11.458316
-0.106458224,-0.13999769,-1.8398042,-2.9501479,25.081066,11.015483
-0.2509329,-0.07004092,-2.052931,-2.1560051,22.710358,10.665967
-0.3910154,-0.0044606864,-2.271393,-1.6300493,20.044971,10.362413
-0.52944165,0.04769225,-2.4927564,-1.3037337,16.94458,10.012899
-0.6558843,0.08642277,-2.696442,-1.1089731,13.365717,9.628528
-0.7457336,0.11214258,-2.8545702,-0.8244628,9.452626,9.308357
-0.79013264,0.13810599,-2.9767838,-0.69108766,5.5998635,9.24022
-0.7943386,0.16729088,-3.0732782,-1.2293231,1.7688599,9.4906845
-0.78110814,0.19193152,-3.1525884,-2.3349097,-2.0086412,9.93439
-0.7828623,0.19987383,-3.240916,-3.5277908,-5.914592,10.258575
-0.8137016,0.16493355,-3.3354313,-3.9302208,-10.343176,10.120569
-0.78295326,0.13665485,-3.3624444,-3.5658872,-15.300584,9.6674
-0.6531466,0.14152329,-3.2891588,-3.1920736,-20.0526,9.341489
-0.44425768,0.177125,-3.1192708,-3.7230537,-24.334461,9.272555
-0.24020682,0.19825812,-2.9068272,-5.064768,-28.012321,9.299468
-0.074077435,0.16823085,-2.7082803,-6.1423674,-31.512568,9.16504
0.09308577,0.12150497,-2.4984913,-7.0502563,-34.718708,9.027229
0.26485065,0.08132353,-2.2597344,-7.7576203,-37.560028,8.907132
0.44407594,0.06292539,-1.9851108,-7.9406676,-39.668396,8.718307
0.63677996,0.063209094,-1.6914833,-8.209542,-41.05575,8.535439
0.81293905,0.077235974,-1.4067992,-9.086098,-41.74124,8.493762
0.95695823,0.083196774,-1.1543925,-10.196331,-42.239216,8.459117
1.0777317,0.07625544,-0.936859,-11.300202,-42.591873,8.274924
1.1787152,0.04667014,-0.7500609,-12.110089,-42.72755,7.980247
1.2648771,-0.0018449995,-0.5814066,-12.42569,-42.515915,7.7577214
1.3419008,-0.0530195,-0.4207355,-12.592258,-41.973625,7.761352
1.409202,-0.0970623,-0.26763752,-12.444981,-40.97209,8.056348
1.4558842,-0.11584814,-0.13981698,-12.311844,-39.626736,8.446855
1.4825672,-0.12103273,-0.0399078,-12.438069,-38.00932,8.787012
1.4867615,-0.122934856,0.02910188,-12.884059,-36.240753,8.851812
1.4576954,-0.12568203,0.0604494,-12.97527,-34.628525,8.537594
1.4122291,-0.12176193,0.05856395,-12.570564,-33.548443,8.271302
1.3681864,-0.11796459,0.05673754,-12.178531,-32.50218,8.013348
1.3255223,-0.1142861,0.054968294,-11.798768,-31.488665,7.763468
1.2841932,-0.11072271,0.053254407,-11.430888,-30.506865,7.5214067
1.2441567,-0.10727079,0.051594134,-11.074515,-29.555773,7.286917
1.2053723,-0.103926815,0.049985778,-10.729287,-28.634424,7.0597606
1.1678004,-0.10068738,0.0484277,-10.394852,-27.741879,6.839705
1.1314029,-0.097549185,0.04691832,-10.070868,-26.877228,6.626527
1.0961424,-0.09450904,0.045456104,-9.757007,-26.039593,6.42001
1.0619835,-0.09156387,0.044039562,-9.452951,-25.228127,6.2199445
1.0288914,-0.08871069,0.042667262,-9.158391,-24.442001,6.026127
0.99683267,-0.08594659,0.04133781,-8.873029,-23.680424,5.8383617
0.9657748,-0.08326879,0.040049866,-8.596576,-22.942623,5.6564584
0.9356863,-0.08067457,0.03880212,-8.328752,-22.227852,5.4802327
0.9065368,-0.07816131,0.037593316,-8.069285,-21.535387,5.3095064
0.8782969,-0.07572647,0.036422234,-7.817916,-20.864529,5.144108
0.850938,-0.0733676,0.035287682,-7.5743885,-20.2146,4.9838696
0.82443255,-0.07108231,0.034188524,-7.3384576,-19.584946,4.8286295
0.79875386,-0.068868294,0.03312365,-7.109885,-18.97493,4.6782312
0.77387595,-0.06672333,0.032091983,-6.8884416,-18.383938,4.5325236
0.74977374,-0.06464525,0.031092487,-6.673903,-17.811377,4.3913593
0.7264231,-0.062631965,0.030124154,-6.4660535,-17.256664,4.254596
0.7038004,-0.060681444,0.02918601,-6.2646837,-16.719248,4.1220975
0.6818829,-0.058791723,0.02827711,-6.069591,-16.198584,3.9937284
0.6606486,-0.056960907,0.027396541,-5.88058,-15.694148,3.869361
0.6400761,-0.055187155,0.026543416,-5.6974597,-15.205435,3.7488697
0.6201447,-0.05346868,0.02571688,-5.520046,-14.731952,3.6321335
0.6008345,-0.051803757,0.024916101,-5.348161,-14.273224,3.5190349
0.58212596,-0.050190713,0.024140274,-5.1816325,-13.82879,3.4094608
0.56400037,-0.048627928,0.02338862,-5.0202923,-13.398204,3.3033006
0.54643947,-0.047113836,0.022660384,-4.863979,-12.981034,3.200448
0.5294257,-0.045646913,0.021954838,-4.712536,-12.57686,3.1007998
0.51294196,-0.04422569,0.02127127,-4.56581,-12.185278,3.004256
0.49697167,-0.042848736,0.020608997,-4.4236555,-11.805894,2.9107196
0.4814989,-0.041514676,0.019967353,-4.2859287,-11.438327,2.8200967
0.46650803,-0.04022217,0.019345695,-4.1524916,-11.08221,2.7322967
0.4519841,-0.038969923,0.018743401,-4.023211,-10.737184,2.6472313
0.43791255,-0.037756678,0.018159864,-3.8979568,-10.4029045,2.5648155
0.42427924,-0.03658122,0.017594503,-3.7766037,-10.079037,2.4849663
0.41107053,-0.035442367,0.017046748,-3.65903,-9.765254,2.407604
0.39827314,-0.03433898,0.016516052,-3.5451179,-9.461245,2.332651
0.3858743,-0.033269957,0.016001882,-3.434753,-9.166701,2.260032
0.37386158,-0.032234225,0.015503725,-3.327825,-8.881331,2.1896746
0.3622229,-0.031230744,0.015021079,-3.2242267,-8.604847,2.121508
0.35094666,-0.030258508,0.014553463,-3.1238544,-8.336972,2.055464
0.34002155,-0.029316548,0.014100407,-3.0266075,-8.077438,1.9914764
0.3294366,-0.02840392,0.013661459,-2.9323885,-7.8259864,1.9294814
0.31918126,-0.027519705,0.013236178,-2.8411033,-7.5823636,1.8694166
0.3092452,-0.026663022,0.012824139,-2.7526603,-7.346326,1.8112221
0.29961854,-0.025833013,0.012424928,-2.666971,-7.1176376,1.7548394
0.29029158,-0.025028845,0.012038147,-2.5839498,-6.89607,1.7002124
0.281255,-0.024249716,0.011663409,-2.5035133,-6.6814003,1.6472859
0.2724998,-0.023494843,0.011300337,-2.4255812,-6.4734144,1.5960075
0.26401716,-0.022763474,0.0109485695,-2.3500755,-6.2719035,1.5463253
0.2557986,-0.022054873,0.010607753,-2.2769203,-6.076667,1.49819
0.24783593,-0.021368334,0.010277548,-2.2060428,-5.887508,1.4515533
0.24012116,-0.020703169,0.009957622,-2.1373718,-5.704238,1.4063686
0.23264655,-0.02005871,0.009647657,-2.0708387,-5.526674,1.3625904
0.22540465,-0.019434316,0.009347341,-2.0063767,-5.3546376,1.3201753
0.2183882,-0.018829359,0.009056374,-1.9439218,-5.1879573,1.2790805
0.21159017,-0.018243236,0.008774466,-1.8834112,-5.0264654,1.2392651
0.20500378,-0.017675359,0.008501334,-1.8247842,-4.8700013,1.2006892
0.19862242,-0.017125161,0.008236704,-1.7679822,-4.718408,1.1633141
0.19243972,-0.016592091,0.007980313,-1.7129487,-4.5715337,1.1271026
0.18644948,-0.016075615,0.0077319033,-1.6596283,-4.4292316,1.0920182
0.18064573,-0.015575216,0.0074912263,-1.6079677,-4.29136,1.0580262
0.17502265,-0.015090396,0.0072580418,-1.5579154,-4.1577797,1.0250922
0.1695746,-0.014620667,0.007032116,-1.5094211,-4.0283575,0.99318355
0.16429615,-0.014165561,0.006813223,-1.4624366,-3.9029646,0.9622682
0.15918201,-0.013724621,0.006601144,-1.4169145,-3.7814748,0.9323151
0.15422708,-0.013297409,0.006395667,-1.3728094,-3.663767,0.90329444
0.14942639,-0.012883495,0.0061965864,-1.3300774,-3.5497234,0.8751772
