ax,ay,az,gx,gy,gz
-1.9791089,0.79637086,-4.4154944,23.692944,56.92961,8.267347
-2.3378367,1.2078617,-5.12043,21.535528,52.197052,4.182907
-2.6339095,1.6092784,-5.5533333,15.2859745,47.02541,1.9828236
-2.9191325,1.8936768,-6.0717545,10.18419,39.547417,-0.14622524
-3.165544,2.0855236,-6.5958524,7.693141,29.56474,-3.0679157
-3.4375193,2.2433145,-7.206866,7.621957,18.328846,-6.701426
-3.6742299,2.400555,-7.7565274,8.258955,5.825389,-11.18086
-3.818088,2.5643532,-8.222555,7.7426004,-7.6618543,-15.566735
-3.8848588,2.7332888,-8.602153,5.0537705,-21.49175,-19.559998
-3.8844657,2.8652835,-8.914778,0.19273427,-36.05285,-23.244146
-3.8431013,2.861806,-9.180353,-5.142587,-50.702866,-26.017673
-3.7948468,2.7554235,-9.364863,-10.073599,-65.88005,-28.245794
-3.7203844,2.564433,-9.458428,-13.997537,-81.10509,-31.084824
-3.553168,2.2964652,-9.406821,-16.671972,-96.27718,-34.093914
-3.1933892,2.0038962,-9.137274,-19.074686,-111.576004,-35.95539
-2.5440443,1.6864018,-8.536237,-22.028753,-125.638176,-36.86559
-1.6782507,1.3430991,-7.6913495,-24.574831,-136.99136,-37.76199
-0.60400015,0.9446531,-6.6163044,-25.998014,-144.2912,-38.35182
0.5864539,0.50679106,-5.3726296,-26.483871,-146.3329,-37.74435
1.717105,0.03406974,-4.101225,-25.231142,-141.5234,-34.99178
2.6034563,-0.40693617,-2.9484923,-23.52113,-133.37422,-31.36012
3.2729228,-0.7684881,-1.9685439,-20.96387,-122.91488,-27.341305
3.7566102,-1.0248239,-1.189338,-17.46385,-110.868164,-23.24495
4.0873294,-1.1766084,-0.60566145,-13.447448,-97.77151,-19.354292
4.3020062,-1.2387462,-0.19221294,-9.666638,-83.49098,-15.496017
4.3854914,-1.2257435,0.006796408,-6.034729,-69.41011,-11.57256
4.3569674,-1.1910392,0.040981166,-1.940199,-56.616455,-7.742617
4.2578764,-1.1375751,-0.010104155,2.1870956,-45.071846,-4.2785
4.140059,-1.0525423,-0.106304415,5.99872,-34.48076,-1.132015
4.0160184,-0.9333769,-0.23370609,9.43943,-24.620218,1.5226309
3.880011,-0.7526266,-0.39643747,12.1576395,-15.491492,3.709271
3.744353,-0.49947426,-0.5547816,13.614974,-7.030786,5.25455
3.6199548,-0.1946979,-0.7127919,14.298768,0.7276117,6.131261
3.4808989,0.12068202,-0.8855091,14.786326,7.41142,6.377882
3.323232,0.4289291,-1.0605583,14.413574,13.056483,5.9168744
3.1535904,0.7536399,-1.2377166,13.311935,17.892073,5.0495224
2.9934282,1.1008627,-1.4165893,11.284848,21.961603,3.5796502
2.8522227,1.421478,-1.6077598,8.420178,25.410858,1.6074194
2.7194033,1.6815764,-1.8259794,4.9739213,28.270033,-0.583387
2.571334,1.8823744,-2.0809896,1.2301041,29.838593,-3.072842
2.391778,2.0158873,-2.3666887,-2.4650486,29.89632,-5.9581122
2.1980104,2.0865571,-2.6511931,-6.0832872,28.751663,-9.175167
1.9968122,2.0977743,-2.9277003,-9.561002,26.398783,-12.762125
1.8031842,2.0418434,-3.1913574,-13.083635,22.961899,-16.391447
1.625863,1.8923249,-3.4435966,-16.731655,18.20608,-19.588278
1.4660877,1.5543708,-3.6776164,-19.864058,12.659159,-22.12932
1.3396872,1.0722736,-3.8821712,-21.856041,6.534158,-23.933561
1.2742233,0.49029848,-4.0275197,-22.410603,0.34812558,-24.69739
1.2694426,-0.12531987,-4.0996795,-21.446768,-5.517476,-24.078018
1.3140119,-0.6879207,-4.080738,-19.088953,-10.735603,-21.761389
1.3871998,-1.1249954,-3.9590924,-15.808132,-15.390219,-19.090343
1.4815017,-1.4548407,-3.7669482,-11.77474,-19.347513,-16.306952
1.5904257,-1.6474717,-3.4965856,-7.370649,-22.548773,-13.186925
1.7197702,-1.6674801,-3.148206,-3.3371265,-24.947586,-9.772014
1.869813,-1.562317,-2.7547753,-0.39787155,-26.033888,-6.237425
2.0004387,-1.403834,-2.3785007,2.13508,-26.004585,-2.8369806
2.091544,-1.2196599,-2.0557675,4.507444,-25.125399,0.20867106
2.153008,-1.0038946,-1.7856284,6.6080713,-23.71789,2.8202198
2.193518,-0.77756363,-1.5706425,8.428055,-22.101568,5.126844
2.212784,-0.56113154,-1.4105262,10.010407,-20.371706,7.2063947
2.215682,-0.35125926,-1.3086122,11.564704,-18.607668,9.0897045
2.2068477,-0.14717874,-1.2435704,13.175325,-16.745241,10.313855
2.1355264,-0.1424222,-1.2033805,12.749522,-16.204065,9.98053
2.0666687,-0.13782994,-1.1645789,12.3384285,-15.681583,9.658719
2.0001752,-0.13339537,-1.1271094,11.941448,-15.177039,9.347957
1.9359514,-0.12911217,-1.0909189,11.558019,-14.689718,9.047802
1.873908,-0.12497438,-1.0559571,11.187608,-14.218943,8.757838
1.8139602,-0.12097635,-1.0221763,10.829707,-13.764068,8.477668
1.7560275,-0.11711271,-0.98953086,10.483837,-13.324482,8.206916
1.7000333,-0.11337835,-0.9579778,10.14954,-12.899606,7.9452224
1.6459045,-0.109768406,-0.927476,9.826382,-12.488886,7.6922483
1.593572,-0.106278256,-0.89798635,9.513946,-12.091794,7.4476686
1.5429695,-0.10290347,-0.8694715,9.211838,-11.7078285,7.211174
1.4940336,-0.09963985,-0.8418958,8.919681,-11.33651,6.9824686
1.446704,-0.09648336,-0.8152254,8.637114,-10.977381,6.761271
1.4009233,-0.093430154,-0.7894277,8.363793,-10.630003,6.5473113
1.356636,-0.09047656,-0.7644716,8.09939,-10.293958,6.340332
1.3137895,-0.087619044,-0.7403274,7.843588,-9.968844,6.140086
1.2723333,-0.08485425,-0.71696657,7.5960855,-9.654281,5.946337
1.2322187,-0.082178935,-0.6943618,7.3565936,-9.349897,5.758859
1.1933994,-0.07959001,-0.6724869,7.1248345,-9.055342,5.5774345
1.1558307,-0.07708448,-0.6513168,6.9005423,-8.770276,5.401855
1.11947,-0.07465952,-0.6308273,6.683461,-8.494376,5.2319202
1.084276,-0.07231236,-0.6109953,6.4733453,-8.227329,5.0674386
1.0502092,-0.07004038,-0.5917984,6.2699594,-7.968835,4.9082246
1.0172316,-0.067841046,-0.57321537,6.0730767,-7.7186055,4.7541018
0.9853066,-0.065711915,-0.55522555,5.8824787,-7.476364,4.6048985
0.9543993,-0.063650645,-0.5378091,5.6979556,-7.2418437,4.4604506
0.9244756,-0.06165498,-0.5209469,5.519305,-7.014787,4.3206005
0.89550304,-0.059722748,-0.50462073,5.346333,-6.794947,4.185195
0.8674502,-0.05785185,-0.48881277,5.178852,-6.582086,4.054088
0.84028673,-0.05604027,-0.47350603,5.0166807,-6.375974,3.9271379
0.81398356,-0.054286063,-0.4586841,4.8596454,-6.176389,3.8042083
0.7885125,-0.052587356,-0.44433102,4.7075787,-5.983119,3.6851678
0.7638466,-0.050942335,-0.4304316,4.5603175,-5.795957,3.5698895
0.7399595,-0.04934926,-0.4169711,4.417707,-5.614705,3.4582515
0.71682596,-0.04780644,-0.40393525,4.279595,-5.4391713,3.3501356
0.6944217,-0.04631226,-0.3913103,4.1458373,-5.269171,3.2454276
0.6727231,-0.044865143,-0.37908307,4.016292,-5.1045256,3.144018
0.65170753,-0.043463577,-0.36724067,3.890825,-4.945062,3.0458
0.63135296,-0.042106092,-0.35577077,3.7693043,-4.790615,2.9506717
0.61163825,-0.04079128,-0.3446614,3.6516032,-4.641022,2.8585336
0.5925429,-0.039517775,-0.33390108,3.5376,-4.4961295,2.76929
0.574047,-0.038284257,-0.32347858,3.4271762,-4.355786,2.6828485
0.55613166,-0.037089445,-0.31338313,3.3202178,-4.2198462,2.5991197
0.5387782,-0.03593211,-0.30360436,3.216614,-4.0881705,2.5180168
0.5219687,-0.034811057,-0.29413217,3.1162584,-3.9606233,2.439457
0.50568604,-0.033725135,-0.28495678,3.0190475,-3.8370726,2.3633587
0.48991343,-0.03267323,-0.27606884,2.9248817,-3.7173922,2.2896442
0.47463468,-0.03165426,-0.26745918,2.8336644,-3.6014593,2.2182379
0.45983416,-0.030667188,-0.259119,2.7453024,-3.489155,2.1490667
0.44549677,-0.029711,-0.2510398,2.6597052,-3.380365,2.0820599
0.43160784,-0.028784722,-0.24321331,2.5767856,-3.2749777,2.017149
0.41815323,-0.02788741,-0.23563157,2.4964588,-3.1728861,1.9542679
0.4051192,-0.027018147,-0.22828685,2.4186432,-3.073986,1.8933526
0.3924926,-0.026176054,-0.22117166,2.3432596,-2.9781768,1.8343412
0.38026047,-0.025360271,-0.2142788,2.2702315,-2.8853614,1.7771735
0.3684105,-0.024569973,-0.20760126,2.1994846,-2.7954454,1.7217917
0.35693058,-0.02380436,-0.20113228,2.1309474,-2.7083375,1.6681397
0.34580913,-0.023062648,-0.1948653,2.0645502,-2.6239498,1.6161629
0.3350349,-0.022344096,-0.18879396,2.0002258,-2.5421963,1.5658088
0.32459697,-0.021647971,-0.18291213,1.9379092,-2.4629948,1.5170263
0.3144848,-0.02097357,-0.17721386,1.8775375,-2.386265,1.4697664
0.30468816,-0.020320214,-0.17169338,1.8190495,-2.3119295,1.4239811
0.29519713,-0.019687241,-0.16634516,1.7623862,-2.239913,1.3796241
0.2860022,-0.019074013,-0.16116376,1.7074906,-2.1701431,1.336651
0.27709404,-0.018479912,-0.15614396,1.6543071,-2.1025493,1.2950181
0.26846367,-0.017904337,-0.15128072,1.6027821,-2.0370636,1.2546835
0.26010245,-0.017346712,-0.14656912,1.552864,-1.9736198,1.2156068
0.2520019,-0.016806472,-0.14200443,1.5045022,-1.9121541,1.1777483
0.24415393,-0.016283076,-0.13758203,1.457648,-1.8526046,1.1410702
0.23655058,-0.015775993,-0.13329752,1.4122546,-1.7949115,1.1055354
0.22918423,-0.015284718,-0.12914653,1.3682759,-1.7390168,1.0711083
0.22204746,-0.014808754,-0.12512493,1.325668,-1.684864,1.0377542
0.21513312,-0.014347624,-0.12122866,1.284388,-1.632399,1.0054395
0.20843424,-0.013900864,-0.117453806,1.2443943,-1.5815688,0.9741318
0.2019441,-0.013468024,-0.11379658,1.2056469,-1.5323226,0.9437997
0.19565618,-0.013048671,-0.110253304,1.1681068,-1.4846108,0.9144127
0.18956418,-0.0126423845,-0.10682043,1.1317363,-1.4383855,0.88594127
0.18366197,-0.0122487545,-0.103494495,1.0964988,-1.3936003,0.85835683
0.17794362,-0.011867388,-0.10027218,1.0623592,-1.3502104,0.8316318
0.17240341,-0.011497901,-0.09715024,1.029283,-1.3081721,0.8057392
0.16703577,-0.011139924,-0.09412555,0.99723715,-1.2674433,0.7806532
0.16183533,-0.010793096,-0.09119507,0.9661895,-1.2279831,0.7563486
0.15679687,-0.010457072,-0.08835587,0.9361088,-1.189752,0.73280096
0.15191533,-0.010131514,-0.0856051,0.9069651,-1.1527115,0.7099868
0.14718583,-0.009816094,-0.08294,0.878729,-1.1168247,0.68788314
0.14260362,-0.0095104985,-0.0803579,0.8513723,-1.0820556,0.66646785
0.1381641,-0.009214419,-0.07785621,0.82486755,-1.0483693,0.64571947
0.13386285,-0.00892756,-0.075432435,0.79918814,-1.0157319,0.62561727
0.12969553,-0.008649635,-0.07308413,0.77430844,-0.984111,0.60614103
0.125658,-0.008380364,-0.070808955,0.75020355,-0.9534747,0.58727133
0.12174618,-0.008119477,-0.06860462,0.7268492,-0.92379236,0.56898916
0.11795617,-0.007866714,-0.06646893,0.704222,-0.8950343,0.55127627
0.11428417,-0.007621822,-0.06439974,0.6822995,-0.8671717,0.53411496
0.110726506,-0.0073845545,-0.062394977,0.6610595,-0.8401767,0.51748794
0.10727961,-0.0071546747,-0.060452633,0.6404809,-0.8140221,0.50137866
0.10394004,-0.0069319527,-0.058570765,0.62054294,-0.788682,0.48577094
0.10070445,-0.006716165,-0.056747492,0.6012258,-0.7641308,0.47064915
0.09756959,-0.006507096,-0.054980982,0.58251005,-0.7403439,0.4559982
0.09453233,-0.0063045355,-0.053269476,0.56437707,-0.7172977,0.4418034
0.091589645,-0.006108282,-0.051611252,0.5468086,-0.69496894,0.42805052
0.08873856,-0.005918138,-0.050004654,0.52978706,-0.6733354,0.4147258
0.08597625,-0.005733914,-0.048448075,0.5132955,-0.65237534,0.40181592
0.08329993,-0.005555426,-0.046939954,0.49731734,-0.6320678,0.38930798
0.08070693,-0.005382494,-0.045478787,0.48183662,-0.6123925,0.3771894
0.078194655,-0.005214946,-0.044063106,0.46683782,-0.5933297,0.36544812
0.075760596,-0.0050526136,-0.0426915,0.45230597,-0.5748604,0.35407236
0.07340231,-0.004895335,-0.04136259,0.43822652,-0.55696607,0.34305075
0.07111743,-0.0047429525,-0.040075053,0.42458537,-0.5396288,0.33237222
0.06890369,-0.004595314,-0.038827598,0.41136888,-0.5228312,0.32202613
0.06675886,-0.0044522714,-0.037618976,0.39856383,-0.5065566,0.31200215
0.0646808,-0.0043136817,-0.036447976,0.3861574,-0.49078858,0.3022902
0.06266744,-0.0041794064,-0.03531343,0.3741372,-0.4755114,0.29288056
0.06071674,-0.0040493114,-0.034214206,0.36249113,-0.46070984,0.28376386
0.05882677,-0.0039232657,-0.033149198,0.35120764,-0.44636902,0.27493095
0.056995634,-0.003801144,-0.032117344,0.3402754,-0.4324746,0.26637304
0.0552215,-0.0036828236,-0.031117609,0.32968345,-0.41901276,0.2580815
0.053502593,-0.0035681867,-0.030148996,0.31942123,-0.40596992,0.25004807
0.051837195,-0.003457118,-0.029210536,0.30947846,-0.39333314,0.2422647
