ax,ay,az,gx,gy,gz
-1.3309212,2.6054783,-3.7236705,15.25923,51.2141,18.088346
-1.6177919,3.0512233,-4.288917,12.234508,45.71515,13.657515
-1.8172524,3.2001307,-4.7168155,11.732467,40.94194,8.237856
-1.9709299,3.2566493,-5.1856675,12.924565,35.74518,1.7534266
-2.216592,3.275068,-5.8127775,11.964157,29.306593,-4.288816
-2.4744928,3.240635,-6.430588,9.96402,20.891167,-9.114201
-2.7120633,3.2022934,-7.007122,6.9302063,10.687715,-12.865901
-2.910607,3.1600327,-7.5258546,3.0296438,-0.21223909,-16.180973
-3.056242,3.1221418,-8.007501,-1.3252211,-12.731889,-20.585573
-3.1197846,3.0638573,-8.459653,-5.374757,-25.673433,-25.296825
-3.0836139,2.928062,-8.824392,-9.803583,-39.53242,-29.461489
-2.9968908,2.694323,-9.090227,-13.991266,-53.799953,-32.723293
-2.8425794,2.3636107,-9.219597,-17.469025,-68.4179,-35.526287
-2.5577087,1.9695817,-9.128789,-19.580376,-82.89754,-37.95908
-2.0403125,1.5512382,-8.610963,-20.927443,-95.12505,-39.452366
-1.4351927,1.1638118,-7.7992835,-22.189657,-104.81633,-39.569214
-0.79510444,0.8196565,-6.7414584,-23.417694,-112.02939,-38.900578
-0.10680622,0.49039406,-5.5054655,-24.44451,-116.62253,-37.803314
0.62368315,0.1447817,-4.1520634,-24.814987,-117.031105,-35.650127
1.346189,-0.23862527,-2.7776532,-24.081007,-113.692795,-32.847588
1.9575742,-0.5924896,-1.5605233,-22.252409,-107.298195,-29.882141
2.44748,-0.8805821,-0.5513049,-19.355587,-98.56897,-26.738213
2.806501,-1.0719063,0.22186054,-16.052866,-88.29416,-23.368193
3.0335555,-1.1798697,0.7600531,-12.970903,-76.809425,-19.766062
3.1231306,-1.2366408,1.0362464,-10.456242,-65.41065,-16.058903
3.15123,-1.2760696,1.1690552,-8.5117855,-54.24016,-12.34045
3.146807,-1.2821901,1.1950785,-6.30371,-43.31684,-9.025578
3.1169822,-1.2373439,1.1424928,-3.7569394,-32.720013,-6.3912935
3.0628948,-1.1455169,1.0314528,-1.2400725,-22.944725,-4.2498856
2.9687839,-1.0151684,0.86958057,0.7957353,-14.114601,-2.1076467
2.8480268,-0.8686769,0.68472177,2.2440672,-6.305711,0.057469144
2.7159896,-0.72001207,0.48084003,2.994656,0.43271643,2.1362557
2.589685,-0.5705344,0.2654952,3.4317358,6.1752133,4.0708447
2.4835029,-0.3606462,0.052534983,3.6909475,10.830978,4.9734845
2.4082594,-0.10096913,-0.14034125,3.7585616,15.006381,4.6712894
2.350824,0.15845905,-0.33570468,3.394795,18.902136,3.673977
2.2843392,0.42501363,-0.5512276,2.4007177,22.268623,2.29766
2.1893282,0.6646766,-0.7927885,1.0564752,24.846485,0.53526986
2.0712864,0.8759889,-1.051545,-0.4441149,26.222137,-1.4941179
1.935361,1.0642663,-1.3157858,-2.3092928,26.789852,-3.6623523
1.7823067,1.2060742,-1.5754967,-4.5459948,26.734789,-6.029067
1.6148854,1.3006276,-1.8310242,-6.909502,26.134853,-8.573613
1.4272754,1.351207,-2.0858102,-9.368133,24.869102,-11.368067
1.2196287,1.3288736,-2.349287,-11.875009,22.319294,-14.295228
0.9987508,1.1642686,-2.6301594,-14.178875,18.662666,-16.992916
0.7892871,0.88952655,-2.9021065,-16.294939,13.820974,-19.096054
0.61307317,0.49630255,-3.1378813,-18.051977,7.986639,-20.356125
0.49782994,0.013172797,-3.317126,-18.833317,1.6817138,-20.736038
0.46374136,-0.4972601,-3.422644,-17.544027,-4.322979,-20.376581
0.5289824,-0.963235,-3.4239104,-15.035024,-9.813376,-19.046282
0.6436558,-1.3254919,-3.3361888,-11.882702,-14.651408,-16.682968
0.782009,-1.5575551,-3.1677022,-8.3805065,-18.848564,-13.86566
0.9344456,-1.6652079,-2.923105,-4.736168,-22.402933,-10.900584
1.1088604,-1.6249532,-2.598258,-1.7607148,-24.92232,-7.598278
1.2992827,-1.4262218,-2.210689,0.1598182,-26.498787,-4.2327642
1.4781079,-1.1702228,-1.8196988,1.3570486,-26.981901,-1.1281003
1.6317023,-0.88547885,-1.4560193,2.0028424,-26.359589,1.4900393
1.7458599,-0.598799,-1.1445127,2.137249,-24.803612,3.5635114
1.8076426,-0.33441114,-0.900912,1.5848647,-22.28046,4.978477
1.7487626,-0.32351846,-0.8715668,1.5332413,-21.554722,4.8163137
1.6919588,-0.31300983,-0.8432563,1.4834381,-20.854576,4.659869
1.6371435,-0.30286908,-0.81593686,1.4353783,-20.17894,4.5089006
1.584234,-0.2930809,-0.78956723,1.3889894,-19.526793,4.363181
1.5331521,-0.28363082,-0.76410854,1.3442031,-18.897173,4.222495
1.483824,-0.2745052,-0.7395239,1.3009543,-18.28917,4.0866394
1.4361798,-0.2656911,-0.71577847,1.2591819,-17.701921,3.9554212
1.390153,-0.25717622,-0.6928392,1.2188276,-17.13461,3.8286579
1.345681,-0.24894896,-0.67067474,1.1798364,-16.58646,3.706176
1.3027037,-0.24099824,-0.6492553,1.1421558,-16.056736,3.5878115
1.2611647,-0.23331356,-0.62855256,1.1057359,-15.544737,3.4734073
1.2210094,-0.22588491,-0.6085396,1.0705296,-15.049796,3.362815
1.1821867,-0.21870276,-0.5891907,1.0364914,-14.571279,3.255892
1.1446472,-0.21175803,-0.5704814,1.0035784,-14.108579,3.1525037
1.1083443,-0.20504203,-0.55238837,0.97174954,-13.661119,3.0525208
1.0732331,-0.1985465,-0.5348892,0.9409655,-13.228349,2.95582
1.0392708,-0.19226353,-0.51796275,0.9111888,-12.809739,2.8622835
1.0064164,-0.18618552,-0.50158846,0.88238347,-12.404786,2.7717984
0.9746309,-0.18030524,-0.48574683,0.85451525,-12.013007,2.684257
0.9438766,-0.17461576,-0.47041923,0.82755125,-11.633941,2.599556
0.9141178,-0.16911042,-0.4555877,0.8014599,-11.267141,2.5175962
0.8853198,-0.16378284,-0.44123504,0.7762111,-10.912187,2.438283
0.85744965,-0.1586269,-0.4273448,0.7517757,-10.568666,2.361525
0.8304755,-0.15363672,-0.41390115,0.7281259,-10.236192,2.2872348
0.8043669,-0.14880666,-0.40088886,0.70523494,-9.914385,2.2153285
0.7790945,-0.14413132,-0.38829336,0.6830772,-9.602885,2.145725
0.7546302,-0.13960545,-0.37610057,0.66162795,-9.301345,2.0783472
0.7309468,-0.13522406,-0.364297,0.64086336,-9.009431,2.0131202
0.7080183,-0.13098231,-0.35286963,0.62076056,-8.726821,1.9499722
0.6858195,-0.12687558,-0.34180596,0.6012976,-8.453205,1.8888339
0.66432625,-0.12289936,-0.33109394,0.58245325,-8.188286,1.8296388
0.64351535,-0.11904937,-0.32072198,0.5642071,-7.931777,1.7723228
0.6233642,-0.11532144,-0.31067884,0.5465394,-7.6834,1.716824
0.60385126,-0.111711584,-0.30095378,0.52943134,-7.4428897,1.6630831
0.5849557,-0.10821593,-0.2915364,0.5128645,-7.2099886,1.6110421
0.5666573,-0.10483075,-0.28241667,0.49682122,-6.984448,1.560646
0.5489367,-0.10155247,-0.2735849,0.48128456,-6.7660294,1.5118414
0.5317752,-0.098377615,-0.26503175,0.46623808,-6.5545015,1.4645764
0.51515466,-0.095302835,-0.25674823,0.45166588,-6.349642,1.4188013
0.49905765,-0.09232491,-0.24872562,0.4375527,-6.1512346,1.3744681
0.48346728,-0.089440726,-0.24095555,0.42388374,-5.9590726,1.3315302
0.46836734,-0.08664725,-0.23342986,0.4106447,-5.772955,1.289943
0.45374203,-0.083941594,-0.22614074,0.39782187,-5.592688,1.249663
0.43957618,-0.081320934,-0.21908061,0.38540184,-5.418084,1.2106485
0.4258551,-0.07878255,-0.21224217,0.37337178,-5.248962,1.172859
0.4125646,-0.07632383,-0.2056183,0.36171925,-5.0851474,1.1362553
0.399691,-0.07394223,-0.19920221,0.3504322,-4.926471,1.1007997
0.38722095,-0.0716353,-0.19298728,0.339499,-4.7727695,1.0664556
0.3751417,-0.06940065,-0.18696709,0.3289084,-4.623884,1.0331879
0.36344084,-0.067236006,-0.18113548,0.3186496,-4.4796624,1.0009621
0.35210633,-0.065139145,-0.17548648,0.30871198,-4.3399568,0.9697455
0.34112662,-0.06310791,-0.17001429,0.29908544,-4.204624,0.93950593
0.33049044,-0.061140236,-0.16471332,0.28976008,-4.073526,0.91021264
0.320187,-0.059234113,-0.15957817,0.28072646,-3.9465287,0.8818356
0.31020573,-0.057387594,-0.15460362,0.2719753,-3.8235028,0.8543459
0.30053648,-0.0555988,-0.14978455,0.2634977,-3.7043226,0.82771564
0.29116946,-0.053865913,-0.1451161,0.2552851,-3.5888674,0.8019176
0.2820951,-0.05218717,-0.14059354,0.24732909,-3.4770195,0.7769257
0.27330422,-0.05056087,-0.13621224,0.23962161,-3.368666,0.7527145
0.26478788,-0.048985362,-0.13196778,0.23215486,-3.2636962,0.72925943
0.2565375,-0.04745905,-0.12785587,0.22492126,-3.162004,0.70653677
0.24854465,-0.045980386,-0.12387231,0.21791346,-3.0634868,0.6845235
0.2408013,-0.04454788,-0.1200131,0.21112444,-2.9680445,0.66319734
0.23329961,-0.043160077,-0.11627433,0.20454726,-2.875581,0.6425367
0.22603199,-0.04181558,-0.11265221,0.19817533,-2.7860026,0.6225208
0.21899112,-0.040513027,-0.10914311,0.19200218,-2.6992188,0.6031293
0.21216987,-0.039251108,-0.10574346,0.1860216,-2.615142,0.5843427
0.20556138,-0.038028546,-0.10244986,0.18022755,-2.5336878,0.56614214
0.19915898,-0.036844112,-0.09925896,0.1746142,-2.454774,0.5485091
0.19295624,-0.035696615,-0.096167564,0.1691759,-2.3783207,0.53142595
0.18694688,-0.03458489,-0.09317256,0.16390714,-2.3042512,0.5148754
0.18112487,-0.033507828,-0.09027093,0.15880264,-2.2324908,0.49884084
0.17548434,-0.03246434,-0.08745974,0.15385728,-2.1629674,0.48330614
0.17001964,-0.03145338,-0.08473618,0.14906605,-2.095611,0.46825564
0.16472526,-0.030473923,-0.082097515,0.14442416,-2.030354,0.45367423
0.15959586,-0.029524995,-0.07954107,0.13992693,-1.9671308,0.43954724
0.15462632,-0.028605638,-0.0770643,0.13556984,-1.9058777,0.4258605
0.14981163,-0.027714927,-0.074664705,0.13134852,-1.8465332,0.41260025
0.14514697,-0.026851969,-0.07233988,0.12725873,-1.7890378,0.39975312
0.14062762,-0.026015898,-0.07008748,0.123296365,-1.7333338,0.3873063
0.13624908,-0.025205875,-0.067905255,0.119457446,-1.6793653,0.37524724
0.13200694,-0.024421087,-0.06579102,0.11573812,-1.6270779,0.36356387
0.12789695,-0.023660745,-0.06374264,0.11213466,-1.5764195,0.35224444
0.123914994,-0.022924088,-0.061758064,0.10864344,-1.527339,0.3412776
0.12005706,-0.022210376,-0.059835307,0.10526097,-1.4797873,0.33065236
0.11631929,-0.021518894,-0.05797244,0.10198385,-1.4337167,0.32035807
0.11269794,-0.020848949,-0.05616759,0.0988088,-1.389081,0.31038442
0.10918937,-0.020199869,-0.05441895,0.09573264,-1.3458354,0.30072138
0.10579007,-0.019571004,-0.052724775,0.09275227,-1.3039367,0.29135928
0.10249663,-0.018961724,-0.051083356,0.08986472,-1.2633427,0.28228873
0.099305764,-0.018371416,-0.049493056,0.087067105,-1.224013,0.27350065
0.09621425,-0.017799493,-0.047952276,0.0843566,-1.185908,0.26498625
0.09321901,-0.017245376,-0.046459477,0.0817305,-1.1489896,0.256737
0.09031704,-0.016708517,-0.045013163,0.07918617,-1.1132208,0.24874459
0.08750544,-0.016188374,-0.043611884,0.07672107,-1.0785657,0.24100105
0.08478137,-0.015684426,-0.042254236,0.07433273,-1.0449897,0.23349865
0.08214213,-0.015196171,-0.04093886,0.07201876,-1.0124593,0.22622983
0.07958506,-0.0147231165,-0.039664444,0.069776826,-0.9809416,0.21918735
0.07710761,-0.014264792,-0.038429707,0.0676047,-0.95040524,0.21236414
0.07470729,-0.013820737,-0.037233412,0.06550021,-0.9208197,0.20575336
0.07238171,-0.013390508,-0.036074363,0.06346123,-0.89215523,0.1993484
0.07012853,-0.012973673,-0.0349514,0.06148574,-0.8643832,0.19314288
0.0679455,-0.012569816,-0.0338634,0.059571754,-0.8374759,0.18713054
0.06583044,-0.012178533,-0.032809272,0.057717353,-0.81140625,0.18130538
0.063781224,-0.0117994305,-0.03178796,0.055920687,-0.78614825,0.17566158
0.061795805,-0.011432131,-0.030798446,0.054179955,-0.76167655,0.17019348
0.0598722,-0.011076267,-0.02983974,0.052493416,-0.7379667,0.16489562
0.058008473,-0.010731481,-0.028910877,0.050859384,-0.714995,0.1597627
0.056202773,-0.010397429,-0.02801093,0.04927622,-0.6927385,0.15478957
0.054453284,-0.010073775,-0.027139002,0.04774234,-0.6711748,0.14997125
0.052758258,-0.009760198,-0.026294218,0.046256214,-0.65028244,0.14530294
0.051115997,-0.009456383,-0.025475731,0.044816352,-0.63004047,0.14077994
0.049524862,-0.0091620255,-0.024682725,0.043421313,-0.61042863,0.13639775
0.047983263,-0.008876831,-0.023914404,0.0420697,-0.59142727,0.13215199
0.04648965,-0.008600515,-0.023170004,0.040760163,-0.5730175,0.12803839
0.045042533,-0.008332801,-0.022448774,0.039491393,-0.5551807,0.124052845
0.043640465,-0.00807342,-0.021749996,0.038262118,-0.53789926,0.12019137
0.04228204,-0.007822114,-0.02107297,0.037071113,-0.5211558,0.11645011
0.040965907,-0.007578631,-0.020417022,0.035917178,-0.5049335,0.1128253
0.03969074,-0.0073427274,-0.01978149,0.034799166,-0.48921615,0.10931333
0.03845527,-0.007114167,-0.019165743,0.03371596,-0.47398812,0.10591069
