ax,ay,az,gx,gy,gz
-2.366385,2.8363893,-6.211875,5.937327,13.316484,-9.044628
-2.6025293,3.085396,-7.139616,4.8241444,5.1105394,-18.25777
-2.748106,3.260424,-7.813864,1.3914293,-4.213941,-24.152714
-2.818095,3.4250758,-8.35737,-6.1362658,-14.1795845,-28.370575
-2.8522105,3.6038218,-8.81959,-14.896879,-24.773323,-32.864544
-2.862436,3.7241623,-9.226597,-23.219221,-37.551903,-39.789047
-2.824694,3.5764165,-9.621866,-29.670603,-50.878075,-45.73106
-2.7324936,3.3644917,-9.93831,-34.701176,-64.618225,-50.23139
-2.588309,3.1664555,-10.144913,-38.979275,-78.3234,-53.92317
-2.4128563,2.9301715,-10.2223425,-43.240696,-92.18733,-57.17201
-2.190035,2.599308,-10.125398,-47.997482,-107.044,-59.245983
-1.8599794,2.105796,-9.76757,-51.560566,-120.774574,-60.209953
-1.4783889,1.5383946,-9.205076,-53.298687,-132.50905,-60.393536
-1.0092286,0.98177373,-8.431368,-53.98488,-142.31462,-59.928493
-0.40611315,0.46649373,-7.422241,-54.24165,-149.81956,-58.841736
0.33493146,-0.024107605,-6.1862044,-54.09182,-153.96136,-56.587536
1.1515144,-0.5361234,-4.771501,-52.934456,-153.29971,-52.908096
1.9376866,-1.0392011,-3.3839066,-50.345295,-149.19102,-49.07274
2.6906252,-1.4865972,-2.0750864,-46.758175,-141.86569,-45.233402
3.3581848,-1.8780162,-0.93129534,-42.09315,-131.35016,-41.153954
3.8606496,-2.1779635,-0.046857115,-36.23013,-117.745766,-36.600838
4.1090345,-2.369871,0.4919555,-29.8935,-103.42556,-31.796976
4.1980534,-2.4948173,0.80352867,-23.813871,-89.135315,-26.575275
4.1937613,-2.5674973,0.9395359,-18.29204,-75.271385,-21.094414
4.136297,-2.5927763,0.9398896,-13.147991,-62.19867,-15.771287
4.0441217,-2.5716038,0.8402103,-8.028738,-50.393333,-10.961919
3.9438856,-2.4863853,0.6739607,-3.2288127,-39.662453,-6.736216
3.8433905,-2.3552868,0.48321438,1.2398752,-29.830704,-3.069312
3.7345512,-2.1675158,0.2771444,4.96086,-20.826443,0.13547347
3.6171157,-1.9273943,0.062487677,7.7370167,-12.845607,2.8139017
3.5028057,-1.6430645,-0.14402728,9.71433,-5.890568,5.0077367
3.392424,-1.2970012,-0.32916152,11.022715,-0.053165704,6.2791595
3.2783084,-0.93313324,-0.5054061,12.003193,4.856296,6.6360974
3.1662698,-0.5663924,-0.66348004,12.446523,9.17921,6.4203157
3.0735986,-0.17107397,-0.8027243,12.1006365,13.139069,5.5997553
2.998375,0.25875717,-0.9347481,10.334676,16.90761,3.6759956
2.922073,0.67193776,-1.113317,7.7922697,20.056374,0.7367447
2.8375359,1.0370224,-1.3347687,4.371571,22.468279,-2.9403403
2.7355244,1.3131014,-1.5991429,0.13438272,24.006239,-7.040397
2.6096094,1.4853956,-1.8918464,-4.7179785,24.681746,-11.137209
2.456727,1.5611959,-2.2105703,-9.815372,23.936172,-15.164645
2.2587645,1.493536,-2.565709,-14.678432,21.833979,-19.135187
2.042142,1.2974751,-2.9160202,-19.046383,18.44224,-22.977858
1.8232838,0.96461135,-3.243717,-22.451906,14.056776,-26.373875
1.6206185,0.5005826,-3.5291245,-24.396246,8.999535,-28.960693
1.4467432,-0.04758265,-3.7560022,-24.929232,3.3886225,-30.289505
1.3221495,-0.6256703,-3.8817093,-23.775942,-2.648137,-29.52213
1.2443225,-1.1420356,-3.9312453,-21.551626,-8.778803,-27.425224
1.2245709,-1.5455414,-3.8946197,-18.521536,-14.703629,-24.623545
1.2664576,-1.8202175,-3.770847,-14.665352,-20.109005,-21.969717
1.3647909,-1.977683,-3.544576,-10.004229,-24.38161,-19.563385
1.5258273,-1.9673566,-3.1686647,-5.5224147,-27.48609,-17.003784
1.7138486,-1.8448739,-2.7195833,-1.9307295,-29.30828,-14.092924
1.8941708,-1.6623657,-2.254751,0.58189213,-29.95553,-10.8387375
2.0408213,-1.4505023,-1.819727,2.1761308,-29.600086,-7.495272
2.155243,-1.2363397,-1.4455662,3.0469673,-28.101555,-4.587115
2.228203,-1.0491896,-1.16844,3.7837188,-25.860868,-2.1322072
2.2701457,-0.8799443,-0.9728371,4.5518584,-23.175072,-0.2380602
2.2853975,-0.73518753,-0.84912294,5.2964664,-20.376108,1.1575181
2.280629,-0.61834276,-0.7753416,5.825727,-17.65077,2.2053032
2.206549,-0.5982576,-0.7501567,5.636494,-17.077433,2.13367
2.1350622,-0.5788755,-0.72585344,5.4538856,-16.524166,2.0645444
2.0660608,-0.5601673,-0.7023952,5.2776256,-15.990135,1.997822
1.9994429,-0.5421053,-0.6797472,5.107455,-15.474551,1.9334044
1.9351124,-0.52466345,-0.65787685,4.9431257,-14.976668,1.8711985
1.8729776,-0.50781703,-0.636753,4.7844067,-14.495781,1.8111161
1.8129524,-0.4915425,-0.61634636,4.631076,-14.03122,1.7530735
1.7549547,-0.47581765,-0.59662896,4.482924,-13.582351,1.6969912
1.6989064,-0.4606214,-0.5775743,4.339752,-13.148569,1.6427941
1.6447335,-0.4459336,-0.5591573,4.201371,-12.729302,1.5904106
1.5923656,-0.4317352,-0.5413538,4.0676003,-12.324004,1.5397723
1.5417354,-0.4180079,-0.5241412,3.9382687,-11.932155,1.4908142
1.4927788,-0.4047344,-0.5074975,3.813212,-11.553259,1.4434747
1.4454347,-0.3918981,-0.491402,3.6922743,-11.186843,1.3976942
1.3996447,-0.37948313,-0.47583488,3.575307,-10.832455,1.3534167
1.3553532,-0.36747444,-0.46077713,3.4621668,-10.489663,1.310588
1.3125066,-0.35585752,-0.44621062,3.3527176,-10.158054,1.2691565
1.2710538,-0.3446185,-0.43211803,3.246829,-9.837234,1.2290729
1.2309461,-0.33374417,-0.41848263,3.1443763,-9.526822,1.1902899
1.1921364,-0.32322177,-0.40528858,3.0452394,-9.226458,1.1527619
1.1545799,-0.31303912,-0.39252055,2.9493034,-8.935791,1.1164458
1.1182332,-0.30318454,-0.38016385,2.8564582,-8.6544895,1.0812998
1.0830553,-0.29364678,-0.36820444,2.7665982,-8.382232,1.0472835
1.049006,-0.2844151,-0.35662878,2.6796215,-8.11871,1.014359
1.0160474,-0.27547905,-0.34542388,2.5954306,-7.8636284,0.9824889
0.9841424,-0.26682875,-0.33457723,2.5139315,-7.6167026,0.95163774
0.953256,-0.25845456,-0.32407683,2.435034,-7.3776593,0.92177147
0.923354,-0.2503473,-0.3139111,2.3586514,-7.146235,0.8928571
0.89440376,-0.24249806,-0.30406892,2.2846994,-6.922176,0.864863
0.8663736,-0.2348983,-0.29453957,2.2130983,-6.705239,0.8377586
0.8392332,-0.22753978,-0.2853127,2.14377,-6.4951878,0.8115147
0.8129534,-0.22041456,-0.2763784,2.0766397,-6.2917967,0.7861028
0.7875058,-0.21351503,-0.26772702,2.0116353,-6.094847,0.7614957
0.76286334,-0.20683375,-0.25934938,1.9486877,-5.9041286,0.73766714
0.7389997,-0.20036365,-0.2512365,1.8877295,-5.7194376,0.71459174
0.71588963,-0.19409785,-0.24337979,1.8286961,-5.5405784,0.6922449
0.6935086,-0.18802974,-0.23577096,1.7715253,-5.367362,0.6706031
0.67183316,-0.1821529,-0.22840197,1.7161566,-5.1996064,0.64964354
0.6508404,-0.17646118,-0.2212651,1.6625319,-5.037134,0.6293441
0.6305084,-0.1709486,-0.21435288,1.6105951,-4.8797765,0.6096837
0.61081594,-0.16560942,-0.20765807,1.5602919,-4.727368,0.5906417
0.5917425,-0.16043808,-0.20117371,1.51157,-4.5797505,0.5721982
0.5732683,-0.15542918,-0.19489305,1.4643787,-4.4367704,0.5543341
0.5553741,-0.15057757,-0.18880959,1.4186691,-4.29828,0.53703094
0.5380415,-0.14587821,-0.18291704,1.3743939,-4.164135,0.52027076
0.52125245,-0.14132623,-0.17720932,1.3315076,-4.034198,0.5040363
0.50498986,-0.13691698,-0.17168054,1.2899656,-3.908334,0.4883108
0.4892368,-0.13264589,-0.16632502,1.2497255,-3.7864146,0.47307807
0.47397724,-0.12850858,-0.16113724,1.2107458,-3.6683142,0.45832253
0.4591955,-0.12450084,-0.15611191,1.1729867,-3.553912,0.44402897
0.4448764,-0.12061853,-0.15124388,1.1364095,-3.4430904,0.43018284
0.4310054,-0.11685771,-0.14652817,1.1009768,-3.3357365,0.41676995
0.41756824,-0.113214515,-0.14195997,1.0666525,-3.2317407,0.40377662
0.4045513,-0.10968526,-0.13753462,1.0334015,-3.130997,0.39118958
0.39194128,-0.10626632,-0.13324761,1.00119,-3.0334024,0.37899604
0.37972537,-0.102954246,-0.12909459,0.9699852,-2.9388583,0.36718363
0.36789113,-0.09974565,-0.12507133,0.9397554,-2.847268,0.35574028
0.35642663,-0.0966373,-0.121173754,0.91046995,-2.7585392,0.34465438
0.34532014,-0.09362602,-0.117397904,0.88209915,-2.6725814,0.33391476
0.33456045,-0.09070877,-0.11373995,0.8546142,-2.5893078,0.32351044
0.3241367,-0.08788259,-0.1101962,0.8279873,-2.5086336,0.31343096
0.3140383,-0.08514463,-0.106763065,0.8021916,-2.4304779,0.3036661
0.30425504,-0.08249212,-0.10343707,0.7772009,-2.3547611,0.29420596
0.29477707,-0.07992237,-0.10021486,0.75298995,-2.2814069,0.28504103
0.2855948,-0.0774328,-0.09709318,0.7295344,-2.2103412,0.27616203
0.27669895,-0.07502088,-0.09406887,0.7068105,-2.1414924,0.26756
0.26808056,-0.07268419,-0.09113889,0.6847954,-2.074791,0.25922626
0.25973094,-0.07042038,-0.08830029,0.66346675,-2.0101697,0.25115243
0.2516417,-0.06822716,-0.0855502,0.6428033,-1.9475635,0.24333036
0.24380466,-0.06610231,-0.082885854,0.6227841,-1.8869094,0.23575217
0.23621194,-0.064043716,-0.08030458,0.60338897,-1.8281461,0.22841023
0.22885592,-0.062049292,-0.07780376,0.5845984,-1.7712147,0.22129717
0.22172919,-0.060117032,-0.0753809,0.5663936,-1.7160578,0.21440582
0.21482457,-0.058244996,-0.07303355,0.54875624,-1.6626201,0.20772925
0.20813514,-0.0564313,-0.07075935,0.5316685,-1.6108476,0.20126076
0.20165417,-0.05467413,-0.068556026,0.51511323,-1.5606886,0.19499384
0.19537514,-0.05297171,-0.06642136,0.49907383,-1.5120925,0.18892221
0.18929176,-0.051322334,-0.0643532,0.48353422,-1.4650106,0.18303975
0.18339792,-0.049724344,-0.06234948,0.46847877,-1.4193956,0.17734057
0.1776877,-0.048176143,-0.060408186,0.45389235,-1.3752017,0.17181896
0.17215537,-0.04667617,-0.05852737,0.43976033,-1.3323846,0.16646934
0.16679537,-0.045222923,-0.05670514,0.42606854,-1.2909013,0.16128638
0.16160233,-0.043814946,-0.054939672,0.41280326,-1.2507101,0.15626486
0.15657106,-0.042450827,-0.053229198,0.3999512,-1.2117709,0.15139976
0.15169649,-0.041129194,-0.051572,0.3874994,-1.1740445,0.1466862
0.14697374,-0.039848723,-0.049966414,0.3754354,-1.1374931,0.14211942
0.14239809,-0.038608134,-0.048410833,0.36374718,-1.1020801,0.1376949
0.13796492,-0.03740618,-0.046903703,0.35242295,-1.06777,0.13340816
0.13366982,-0.036241658,-0.045443505,0.34145138,-1.0345284,0.12925492
0.12950848,-0.035113398,-0.04402878,0.33082148,-1.002322,0.12523103
0.12547673,-0.03402028,-0.042658113,0.3205226,-0.9711185,0.12133243
0.12157052,-0.032961193,-0.041330125,0.31054446,-0.9408867,0.11755524
0.11778595,-0.03193509,-0.04004349,0.300877,-0.91159624,0.11389566
0.114119224,-0.030940937,-0.03879692,0.29151055,-0.8832179,0.11035004
0.11056667,-0.029977739,-0.037589163,0.28243577,-0.8557231,0.10691482
0.10712473,-0.029044533,-0.03641901,0.27364355,-0.82908446,0.10358656
0.103789955,-0.028140383,-0.035285298,0.2651251,-0.8032752,0.100361936
0.10055902,-0.027264383,-0.034186877,0.25687185,-0.7782696,0.097237706
0.09742867,-0.02641566,-0.033122662,0.24887557,-0.7540425,0.09421075
0.09439579,-0.025593359,-0.032091577,0.24112827,-0.7305697,0.09127805
0.09145733,-0.024796661,-0.031092595,0.23362215,-0.70782775,0.08843664
0.08861036,-0.024024766,-0.030124715,0.22634974,-0.6857938,0.085683696
0.08585203,-0.023276903,-0.029186968,0.21930374,-0.6644458,0.08301646
0.08317956,-0.022552323,-0.028278414,0.2124771,-0.6437625,0.08043227
0.0805903,-0.021850301,-0.027398149,0.20586298,-0.6237231,0.07792853
0.07808165,-0.021170136,-0.026545286,0.19945478,-0.60430753,0.07550273
0.075651094,-0.020511145,-0.025718974,0.1932461,-0.5854964,0.07315246
0.07329621,-0.019872667,-0.024918389,0.18723068,-0.567271,0.07087535
0.071014635,-0.019254068,-0.024142724,0.18140253,-0.5496129,0.06866913
0.068804085,-0.018654726,-0.023391208,0.17575581,-0.5325045,0.06653159
0.06666235,-0.018074041,-0.022663087,0.1702849,-0.5159287,0.0644606
0.06458729,-0.017511435,-0.021957632,0.16498427,-0.4998689,0.062454075
0.06257683,-0.016966341,-0.021274138,0.15984868,-0.48430905,0.060510013
0.06062895,-0.016438218,-0.020611921,0.15487294,-0.4692336,0.05862647
0.05874171,-0.015926532,-0.01997032,0.1500521,-0.45462742,0.05680156
0.05691322,-0.015430777,-0.01934869,0.14538133,-0.44047594,0.055033464
0.055141646,-0.014950454,-0.018746411,0.14085595,-0.426765,0.053320404
0.053425223,-0.0144850835,-0.018162882,0.13647147,-0.41348085,0.05166067
0.05176223,-0.0140341995,-0.017597517,0.13222344,-0.4006102,0.050052606
0.050151005,-0.013597351,-0.017049752,0.12810767,-0.38814023,0.048494596
