ax,ay,az,gx,gy,gz
-0.69182444,0.96546334,-5.911872,-45.721325,33.236668,-14.70377
-0.5170447,0.044708382,-6.6766624,16.311972,22.228056,-19.330374
-0.40553802,-0.33459416,-7.0086627,51.475666,16.031008,-25.3127
-0.38361844,-0.4049533,-7.169584,68.13026,14.975396,-30.830492
-0.31364945,-0.5856965,-7.29397,72.51083,12.658923,-32.38242
-0.22301897,-0.97266215,-7.4616165,73.147,9.695343,-30.447607
-0.15022537,-1.4704003,-7.7284284,70.2859,2.2309437,-24.394457
-0.038103268,-2.1689255,-8.085013,67.942245,-6.8392205,-16.328047
0.08456429,-2.8686686,-8.467708,67.275536,-17.948273,-6.559973
0.2679757,-3.4718778,-8.80717,68.68547,-30.109653,4.4918594
0.52858907,-3.9438622,-9.068512,71.934296,-42.199936,16.193443
0.8285237,-4.2843513,-9.248183,76.41139,-54.344696,28.475313
1.140329,-4.514,-9.376836,80.60503,-65.895096,40.455517
1.4179243,-4.721502,-9.520312,85.72035,-76.71971,51.893227
1.6566668,-4.870421,-9.709258,92.0225,-87.02806,62.506866
1.8630716,-4.921704,-9.924387,99.161095,-97.277336,72.09781
2.0716782,-4.841546,-10.089611,106.628944,-108.019936,81.35232
2.3881204,-4.46746,-10.030548,112.61234,-119.31737,90.47231
2.7866738,-3.8955553,-9.715072,116.50111,-130.82855,99.27362
3.2566915,-3.143804,-9.116536,117.94222,-141.50473,107.36204
3.7872326,-2.2603056,-8.25589,116.43893,-150.98831,114.31823
4.360239,-1.3146174,-7.166164,112.19863,-157.10837,118.69873
4.925345,-0.3677663,-5.84532,107.90815,-159.44463,120.060875
5.4427996,0.519873,-4.45188,104.32654,-157.15894,118.005035
5.870346,1.3566165,-3.0664525,101.01145,-150.50182,113.006454
6.193012,2.1546168,-1.7695197,96.735664,-140.1957,106.1997
6.4366536,2.881327,-0.6541292,90.56336,-125.893974,97.44387
6.6229725,3.4518845,0.13245362,83.59732,-109.488235,87.56462
6.765774,3.8619008,0.6322337,76.659195,-91.86247,76.38163
6.8926067,4.1310835,0.91494983,69.48781,-73.83585,64.513145
7.02747,4.280629,1.0504615,61.688435,-55.88183,52.673115
7.1615214,4.330936,1.062446,53.28266,-38.32234,41.368378
7.2739987,4.2723083,0.92855906,46.49453,-22.122879,30.819036
7.3411045,4.160546,0.71528107,41.84374,-7.8141665,20.766096
7.4076247,4.0621552,0.48140475,37.030674,4.618181,11.755984
7.4873605,3.938449,0.21088855,32.046288,15.613198,3.9052207
7.5632563,3.7760985,-0.10620988,27.318367,25.228504,-2.572358
7.5867534,3.6256745,-0.50888,22.171139,32.880375,-8.240256
7.566512,3.4595063,-0.9657411,15.902631,38.19491,-12.906777
7.497713,3.2175324,-1.4773785,9.2038,41.491753,-16.347183
7.345986,2.898324,-2.0487986,2.7648494,42.663414,-18.583889
7.11903,2.5049505,-2.6596537,-1.831338,41.356365,-19.482677
6.820112,2.0544438,-3.2897878,-3.6935277,38.303497,-19.846859
6.5080004,1.6382017,-3.885301,-3.0315182,34.173347,-19.926151
6.201847,1.2894454,-4.4328103,-0.07987147,29.62115,-20.019144
5.9007096,1.0140022,-4.9473934,4.4448047,24.074156,-20.08704
5.621382,0.81184214,-5.437783,10.236451,16.794632,-19.94145
5.3842683,0.7078565,-5.876082,15.993843,8.200977,-19.502422
5.188796,0.65907234,-6.243992,21.029657,-1.2265277,-18.693928
5.0224333,0.6454742,-6.5550323,24.896173,-11.271029,-17.433088
4.880157,0.64872974,-6.8353724,27.7269,-21.935024,-15.962003
4.7682567,0.6533032,-7.088248,29.8178,-33.616535,-14.545461
4.6928816,0.66298115,-7.295698,31.843485,-45.76747,-13.582417
4.658858,0.673393,-7.4456897,33.86408,-58.3834,-13.24635
4.6844373,0.66519743,-7.4995985,36.48285,-70.594864,-13.494994
4.7769914,0.6645639,-7.420111,39.267082,-82.12919,-13.718381
4.9461107,0.68016493,-7.202223,41.68887,-92.47023,-13.496078
5.2188754,0.73721707,-6.8021574,43.22104,-102.023575,-12.939755
5.5966372,0.8186551,-6.2436666,43.15697,-110.473,-11.920801
6.06446,0.88814414,-5.5260987,42.166725,-116.79711,-10.788968
6.5826344,0.932023,-4.653524,40.890247,-119.32764,-9.667291
7.07551,0.96506774,-3.744043,38.98416,-117.010025,-8.4069195
7.4705515,0.9750196,-2.9373474,36.282322,-111.735245,-7.0661054
7.7696924,0.9549955,-2.2709842,32.689827,-104.47002,-5.407509
7.966641,0.885467,-1.7659127,29.265846,-96.02262,-3.6369736
8.079131,0.7963493,-1.37518,25.709833,-87.00127,-1.5917538
8.139505,0.6975341,-1.0671928,22.149368,-77.03237,0.58939385
8.149918,0.5965221,-0.8493615,18.81851,-66.75583,3.1381507
8.122838,0.48012647,-0.7147987,16.942665,-56.62397,5.755235
8.072111,0.3651702,-0.6314209,15.952843,-46.80581,8.553333
8.011484,0.25831053,-0.5791585,15.312773,-37.285625,11.74405
7.945716,0.16033837,-0.5611889,14.845289,-27.856236,15.434375
7.872849,0.09615236,-0.5812198,13.891289,-18.519537,19.434885
7.794358,0.057137586,-0.6400449,12.475092,-9.165157,23.46043
7.6984224,0.038030785,-0.741353,11.184676,0.05423112,27.295826
7.5718613,0.036985528,-0.8933955,10.369134,8.686094,30.623291
7.4149394,0.04852469,-1.080879,10.523717,16.413134,33.554714
7.207347,0.07721695,-1.319523,11.72577,23.15819,36.126675
6.9726634,0.13637523,-1.5685365,13.154607,28.578909,38.580536
6.7273207,0.22155297,-1.8165846,14.427513,32.590702,41.045406
6.4662404,0.3433284,-2.0631132,15.6843,35.25582,43.084587
6.1918817,0.51992285,-2.2840703,16.354918,36.06352,44.377876
5.9278536,0.7519637,-2.4476526,16.95213,36.2481,44.805874
5.6706314,1.0063307,-2.579672,17.99647,36.277084,43.994022
5.4185057,1.2617251,-2.6943617,19.48678,35.95997,42.193714
5.170077,1.5388473,-2.7966862,20.946682,35.30994,39.78018
4.904188,1.8482679,-2.916897,22.241222,33.08694,36.405476
4.645739,2.1975138,-3.0230818,22.21173,29.776463,32.213593
4.4204106,2.5417895,-3.085692,20.70966,25.80971,27.34182
4.230449,2.8544385,-3.1061037,18.025414,21.615181,21.94968
4.0707955,3.1219208,-3.0963578,14.334619,17.38555,16.390259
3.9358382,3.3232417,-3.0794058,10.714969,13.221192,10.540773
3.8395877,3.466381,-3.0447097,6.132394,9.030143,4.6377044
3.7684119,3.5468829,-3.009328,1.2860646,5.1321197,-1.3039727
3.7189426,3.5603063,-2.9903295,-3.617118,1.435594,-7.178137
3.6882353,3.5023808,-2.9888494,-8.224219,-1.9781538,-13.132129
3.6795993,3.3698442,-3.0016096,-12.355865,-5.4158516,-19.255087
3.7264314,3.1142159,-3.001278,-16.513699,-8.878735,-24.788252
3.801817,2.7655554,-2.9686475,-20.447107,-11.767181,-29.18591
3.8727365,2.351645,-2.9232986,-23.549318,-13.8211155,-32.46891
3.915721,1.9245807,-2.8717554,-25.549322,-15.099401,-34.84422
3.9258468,1.5211207,-2.8154,-26.255274,-15.662803,-36.35962
3.8947253,1.1793199,-2.7491696,-26.508398,-15.95506,-37.189053
3.837674,0.8870814,-2.6747181,-26.824055,-16.240044,-37.31422
3.7649362,0.62479883,-2.592273,-27.18695,-16.415157,-36.915424
3.686273,0.3799793,-2.5094492,-27.252792,-16.321945,-36.138718
3.6064882,0.1682312,-2.4320614,-27.169935,-16.056442,-34.822712
3.5281744,0.009692402,-2.357972,-27.135372,-15.725016,-33.249012
3.4432058,-0.1322462,-2.2893536,-26.802994,-15.333543,-31.612286
3.3543174,-0.26078984,-2.221075,-26.033714,-14.899127,-29.971611
3.2697082,-0.36500984,-2.1458595,-24.837452,-14.34126,-28.378485
3.185969,-0.44373783,-2.0633004,-23.309423,-13.502087,-26.770512
3.0866425,-0.42990375,-1.9989744,-22.582722,-13.081141,-25.935905
2.9904218,-0.41650224,-1.9366599,-21.878744,-12.67336,-25.1274
2.8972092,-0.40351972,-1.8762934,-21.196775,-12.278327,-24.34417
2.8069098,-0.39094293,-1.8178138,-20.536121,-11.895639,-23.585417
2.7194319,-0.37875912,-1.7611612,-19.896109,-11.524909,-22.850372
2.6346867,-0.3669559,-1.7062784,-19.27609,-11.16576,-22.13829
2.5525882,-0.35552132,-1.6531097,-18.675434,-10.817828,-21.448448
2.4730535,-0.3444438,-1.6016012,-18.093536,-10.480761,-20.780146
2.3960013,-0.3337121,-1.5517008,-17.529802,-10.154216,-20.132708
2.3213546,-0.32331538,-1.5033579,-16.983665,-9.837864,-19.505478
2.2490373,-0.31324312,-1.4565238,-16.454573,-9.531384,-18.897821
2.1789765,-0.30348516,-1.4111509,-15.941989,-9.234468,-18.309128
2.1111016,-0.29403162,-1.3671937,-15.445397,-8.9468155,-17.7388
2.045344,-0.28487298,-1.3246077,-14.964297,-8.668136,-17.186264
1.9816374,-0.276,-1.2833499,-14.498201,-8.398148,-16.650959
1.9199175,-0.26740372,-1.2433788,-14.046642,-8.1365795,-16.13235
1.8601221,-0.2590755,-1.2046541,-13.609163,-7.883168,-15.629913
1.8021911,-0.25100696,-1.1671368,-13.185325,-7.6376576,-15.143141
1.7460663,-0.24318995,-1.1307892,-12.774699,-7.3998013,-14.671544
1.6916909,-0.23561661,-1.0955745,-12.376874,-7.169359,-14.214648
1.6390105,-0.22827935,-1.0614575,-11.991449,-6.9461,-13.771995
1.5879719,-0.22117077,-1.028404,-11.618037,-6.7297997,-13.343137
1.538524,-0.21428372,-0.99638045,-11.256263,-6.5202403,-12.927644
1.490617,-0.2076113,-0.96535486,-10.905763,-6.317211,-12.525099
1.4442028,-0.20114678,-0.935296,-10.566183,-6.1205087,-12.1350975
1.3992348,-0.19488369,-0.90617377,-10.237185,-5.9299345,-11.757248
1.3556678,-0.18881573,-0.8779589,-9.918437,-5.7452984,-11.391171
1.3134581,-0.18293682,-0.850623,-9.609619,-5.566415,-11.036499
1.2725633,-0.17724106,-0.82413876,-9.310422,-5.3931036,-10.692876
1.2329426,-0.17172271,-0.7984795,-9.020546,-5.225191,-10.359957
1.194556,-0.16637628,-0.7736195,-8.739698,-5.062509,-10.037409
1.157365,-0.16119637,-0.7495339,-8.4676,-4.9048944,-9.724907
1.1213324,-0.15617779,-0.72619843,-8.203976,-4.752189,-9.422138
1.0864222,-0.15131553,-0.7035898,-7.948562,-4.60424,-9.1288
1.0525991,-0.1466047,-0.68168527,-7.7011037,-4.4608984,-8.844598
1.0198295,-0.14204058,-0.660463,-7.4613514,-4.322021,-8.569247
0.9880803,-0.1376186,-0.6399015,-7.2290664,-4.1874685,-8.30247
0.9573199,-0.13333432,-0.61998045,-7.0040145,-4.0571065,-8.044003
0.92751735,-0.12918347,-0.6006797,-6.785971,-3.9308038,-7.793583
0.8986429,-0.12516187,-0.58198,-6.5747175,-3.8084342,-7.5509615
0.8706675,-0.12126549,-0.56386256,-6.3700423,-3.6898751,-7.3158946
0.84356326,-0.11749045,-0.5463093,-6.17174,-3.5750077,-7.0881476
0.817303,-0.11383294,-0.52930254,-5.9796124,-3.463717,-6.867492
0.79186034,-0.11028933,-0.51282537,-5.793467,-3.3558915,-6.6537075
0.7672099,-0.10685604,-0.49686122,-5.6131177,-3.2514234,-6.446579
0.74332696,-0.103529654,-0.48139414,-5.4383836,-3.1502078,-6.245899
0.7201876,-0.10030684,-0.4664086,-5.2690897,-3.0521436,-6.051468
0.6977687,-0.09718436,-0.45188966,-5.105067,-2.9571326,-5.8630905
0.6760478,-0.0941591,-0.43782273,-4.946151,-2.8650799,-5.6805778
0.65500313,-0.09122802,-0.42419377,-4.7921824,-2.7758927,-5.503747
0.63461363,-0.088388205,-0.4109891,-4.6430073,-2.6894825,-5.332422
0.6148589,-0.085636795,-0.39819556,-4.4984765,-2.6057625,-5.1664305
0.5957193,-0.082971044,-0.3858003,-4.358445,-2.5246487,-5.005607
0.57717544,-0.08038828,-0.37379092,-4.2227736,-2.4460604,-4.84979
0.5592089,-0.077885926,-0.36215544,-4.0913258,-2.3699186,-4.698824
0.5418017,-0.07546147,-0.35088214,-3.9639697,-2.296147,-4.552558
0.52493644,-0.073112495,-0.33995983,-3.8405786,-2.2246723,-4.4108453
0.5085962,-0.07083664,-0.32937753,-3.7210288,-2.1554224,-4.273544
0.4927646,-0.06863164,-0.31912467,-3.6052008,-2.0883284,-4.140517
0.47742584,-0.06649528,-0.309191,-3.4929783,-2.023323,-4.0116315
0.46256462,-0.064425424,-0.29956654,-3.3842494,-1.9603415,-3.886758
0.448166,-0.062420007,-0.29024172,-3.2789052,-1.8993204,-3.7657719
0.43421564,-0.060477015,-0.28120714,-3.1768405,-1.8401989,-3.6485522
0.4206995,-0.058594506,-0.27245384,-3.0779529,-1.7829179,-3.5349813
0.40760416,-0.0567706,-0.263973,-2.9821436,-1.7274199,-3.4249458
0.39491645,-0.05500347,-0.25575617,-2.8893168,-1.6736495,-3.3183355
0.38262367,-0.05329135,-0.24779512,-2.7993796,-1.6215531,-3.2150443
0.3707136,-0.051632527,-0.24008189,-2.7122421,-1.5710783,-3.114968
