ax,ay,az,gx,gy,gz
0.94364494,-1.6491059,-6.450968,17.866526,-0.3327303,0.0
0.96144336,-1.9849647,-7.5063577,38.609264,-9.451007,-2.5300395
0.6352257,-2.588327,-8.558471,61.14289,-26.101482,-13.704782
0.37885684,-3.319487,-9.268787,84.993546,-43.678307,-22.841057
0.47319824,-4.102506,-9.49159,101.93114,-56.267475,-22.36869
0.7923955,-4.7397237,-9.512509,110.7183,-65.722824,-13.35401
1.1525826,-5.164234,-9.547404,114.33339,-74.94118,0.9395556
1.4881624,-5.3210354,-9.698781,117.008385,-86.57793,15.870076
1.852402,-5.436717,-9.897348,123.142494,-100.09932,30.664219
2.3681316,-5.572132,-10.066317,135.13913,-109.98531,43.395573
2.948385,-5.5304255,-10.151727,150.20801,-116.65764,55.60152
3.5580575,-5.2761507,-10.102901,164.50023,-120.899506,67.564445
4.121382,-4.9157104,-9.921734,176.59972,-123.44964,79.532776
4.6123314,-4.3957767,-9.562304,183.10445,-125.67378,93.74156
5.022692,-3.4608507,-8.844375,181.31384,-129.75983,108.3006
5.3848357,-2.4655416,-7.863079,172.60178,-135.58658,121.614204
5.7136264,-1.5782895,-6.6919646,161.84091,-140.65692,132.38116
5.982147,-0.7382598,-5.3820524,152.15631,-142.90987,139.49417
6.188912,0.1092336,-3.9794207,145.83571,-139.29233,140.68716
6.297477,0.96375483,-2.5439045,142.25928,-131.20169,137.87123
6.2884774,1.7846757,-1.2432032,139.58702,-119.18938,132.0534
6.19058,2.5656521,-0.14593661,135.99841,-105.38653,124.63361
6.0454655,3.2502515,0.69292057,130.55219,-90.46119,115.59743
5.9087276,3.797588,1.2886233,124.1385,-74.828,104.727486
5.812174,4.169754,1.6486102,117.79947,-59.3817,92.71728
5.7780147,4.4073005,1.8907319,111.23067,-44.016384,80.00211
5.799672,4.5342183,2.0305533,104.139084,-28.889637,67.25371
5.8678894,4.5899153,2.0656424,96.87917,-14.112246,54.73348
5.96285,4.5970674,1.9927506,91.01184,0.3261853,42.24919
6.0680294,4.594912,1.7961739,85.359856,13.933998,30.288551
6.1623297,4.567333,1.4958671,80.06281,26.337019,18.824507
6.229738,4.48879,1.1036297,74.979774,37.153725,8.256308
6.27149,4.352408,0.6435269,70.015144,46.057934,-1.038704
6.2959013,4.170344,0.14094403,64.442345,52.278297,-8.083057
6.2764487,3.926446,-0.4309405,58.10218,55.773254,-13.583513
6.217857,3.6123323,-1.0488689,51.033913,56.37466,-17.74421
6.122399,3.2020607,-1.6906058,44.223545,54.491764,-20.538137
5.9981985,2.7011306,-2.3300471,39.181324,50.582638,-21.944386
5.861611,2.16966,-2.9321663,37.59811,44.714504,-21.580046
5.7393126,1.715526,-3.45154,38.486362,38.066868,-20.125898
5.629562,1.3879906,-3.9033308,41.26506,31.192831,-18.177422
5.5258026,1.1876512,-4.2967887,44.730667,23.910765,-16.115396
5.4334607,1.0521803,-4.648697,48.531322,15.683311,-14.170646
5.371792,0.9328893,-4.9633904,53.20676,6.626841,-12.3598385
5.320768,0.8548411,-5.2246237,58.06952,-2.9556384,-10.639059
5.2802224,0.82179946,-5.4073863,61.74851,-12.607263,-8.604381
5.2376914,0.79443526,-5.5409846,64.39938,-22.292639,-6.21966
5.185226,0.75388026,-5.674438,66.54275,-32.271233,-3.6931553
5.137009,0.70744777,-5.7960033,69.32032,-43.25715,-1.276097
5.125888,0.7170615,-5.819635,72.25936,-53.92944,1.0579616
5.143295,0.7793875,-5.7259865,73.77879,-64.4289,3.5542881
5.1997023,0.8235753,-5.547774,74.27904,-74.483505,5.968914
5.300936,0.8347475,-5.2936864,75.17622,-83.69916,8.126619
5.4612646,0.86475885,-4.933595,76.20819,-91.23864,9.84791
5.6975884,0.92519164,-4.4269543,77.25839,-97.03788,10.953217
5.982833,0.9793076,-3.8241522,78.310234,-100.72219,11.550534
6.2888503,1.0228021,-3.1311643,79.35582,-101.79751,11.929366
6.571882,1.0730166,-2.420873,80.31564,-100.17956,12.174495
6.8053746,1.1433209,-1.7568038,80.51726,-95.849915,12.550439
6.968552,1.2323319,-1.1839848,79.66994,-90.31625,13.308655
7.0606866,1.3349977,-0.6983426,77.625305,-84.13711,14.49612
7.087878,1.4388642,-0.29077044,74.35904,-77.5514,16.007818
7.0762477,1.5221202,0.043683104,70.58696,-70.748856,17.498533
7.0657926,1.5813484,0.33637106,66.69325,-63.173676,18.868881
7.0638366,1.5908287,0.58098024,62.966625,-54.8021,20.298195
7.0492,1.5677155,0.7566818,59.97866,-45.685425,21.798294
7.0108323,1.5404838,0.8578676,57.32686,-36.357967,23.460648
6.954182,1.5257846,0.898852,53.962105,-27.070246,25.084446
6.881711,1.4941738,0.8701452,49.796253,-18.010883,26.404139
6.7913527,1.4292784,0.76032215,45.53431,-9.342246,27.522024
6.6980824,1.3458174,0.6035647,41.709736,-0.9429703,28.598782
6.600754,1.2373048,0.4081945,38.86598,7.276544,29.701904
6.5008626,1.1376822,0.1908625,36.480568,15.299959,30.911997
6.387421,1.0768621,-0.052865982,33.786583,22.6429,32.119022
6.245549,1.0536774,-0.34149766,31.35311,29.126076,33.433353
6.060188,1.0298591,-0.6747342,31.006056,33.87898,34.62357
5.845151,1.0401062,-1.0161618,31.51736,36.66695,35.599377
5.6257715,1.1071532,-1.3298378,32.146984,37.679466,36.32754
5.4195685,1.2321051,-1.5848683,34.021526,37.51704,36.309853
5.201185,1.420326,-1.7838478,38.893173,36.29377,35.32094
4.9611855,1.7229075,-1.91957,42.244236,33.70828,33.808266
4.7173324,2.072972,-2.0096173,42.518738,30.324133,31.796724
4.4804077,2.425655,-2.0955741,40.249924,27.567225,29.162457
4.232285,2.7626512,-2.218039,36.021873,24.482384,25.507477
3.997388,3.0598226,-2.3674035,31.518848,20.652588,20.855381
3.8146222,3.3082726,-2.4804344,27.309301,16.62709,14.9951315
3.6847038,3.4974475,-2.5517254,23.806858,12.569187,8.044272
3.6042535,3.6107984,-2.5856118,21.04404,8.856967,0.4706472
3.553798,3.6413114,-2.6160054,18.950916,5.76618,-7.3422666
3.510211,3.5648334,-2.6796243,17.232264,2.5842779,-14.933649
3.4705453,3.4149418,-2.7502146,15.327266,-1.125684,-22.110067
3.4630127,3.175234,-2.7976174,13.650856,-4.979867,-28.756956
3.50621,2.8562534,-2.785077,11.964496,-8.899207,-34.257168
3.6101549,2.480744,-2.6811545,9.626733,-12.0719385,-37.428993
3.7424088,2.082505,-2.508819,7.053543,-14.313834,-38.386993
3.8386204,1.71451,-2.3380475,4.4833627,-15.883701,-37.67518
3.8797433,1.3889502,-2.183856,2.0076177,-16.978518,-36.0241
3.869156,1.095469,-2.0397756,0.09827226,-17.701174,-34.201878
3.836623,0.82932395,-1.8884224,-0.57610816,-17.392168,-32.702152
3.7822466,0.6032642,-1.7379282,-0.5237785,-16.450352,-31.43457
3.7120905,0.41988906,-1.5987577,-0.28057674,-15.233142,-30.170662
3.6332417,0.27990568,-1.4729239,-0.3251809,-13.8121605,-28.757782
3.548503,0.18540552,-1.3576306,-1.0048357,-12.243348,-27.057732
3.4640212,0.1218093,-1.251014,-2.9491186,-10.754289,-25.127197
3.3726406,0.07724887,-1.1685283,-5.409566,-9.283371,-23.129631
3.2674012,0.07483841,-1.1320657,-5.2407665,-8.993693,-22.407896
3.165461,0.07250351,-1.0967462,-5.0772586,-8.713098,-21.708788
3.0667152,0.07024179,-1.0625335,-4.918875,-8.441296,-21.03159
2.9710627,0.068050906,-1.0293925,-4.765453,-8.178006,-20.375603
2.8784053,0.06592862,-0.9972892,-4.616834,-7.922962,-19.740156
2.7886481,0.06387278,-0.96619076,-4.4728675,-7.6759005,-19.1246
2.7016995,0.06188125,-0.9360654,-4.333406,-7.4365697,-18.528303
2.6174705,0.059952024,-0.90688235,-4.1983066,-7.2047253,-17.95066
2.5358753,0.05808313,-0.8786119,-4.0674314,-6.9801307,-17.391079
2.4568312,0.056272652,-0.85122526,-3.940648,-6.762557,-16.848993
2.3802574,0.054518763,-0.8246945,-3.8178272,-6.551784,-16.323849
2.3060763,0.052819677,-0.79899275,-3.6988437,-6.347596,-15.815113
2.2342124,0.051173665,-0.77409387,-3.5835774,-6.149787,-15.322269
2.164593,0.04957906,-0.7499726,-3.471911,-5.958156,-14.844817
2.0971475,0.04803425,-0.7266046,-3.3637311,-5.7725086,-14.382275
2.0318074,0.046537668,-0.703966,-3.2589288,-5.5926566,-13.934172
1.9685069,0.045087796,-0.68203413,-3.1573975,-5.418419,-13.500056
1.907182,0.043683175,-0.6607867,-3.059035,-5.2496185,-13.079489
1.8477705,0.042322382,-0.6402022,-2.9637418,-5.0860853,-12.672044
1.7902126,0.041004043,-0.62026,-2.8714213,-4.9276543,-12.27731
1.7344501,0.039726827,-0.6009398,-2.781981,-4.774165,-11.894891
1.680427,0.03848945,-0.5822223,-2.6953301,-4.6254635,-11.524399
1.6280886,0.037290663,-0.5640884,-2.6113818,-4.4813995,-11.165461
1.5773822,0.036129255,-0.54652005,-2.530051,-4.3418274,-10.817716
1.5282568,0.035004057,-0.5294994,-2.451256,-4.2066073,-10.480813
1.4806628,0.03391394,-0.5130094,-2.3749175,-4.0756025,-10.154413
1.4345527,0.032857805,-0.4970335,-2.3009586,-3.9486816,-9.838188
1.3898797,0.03183459,-0.48155552,-2.2293053,-3.825717,-9.53182
1.346599,0.030843267,-0.46655995,-2.159885,-3.7065847,-9.235001
1.3046672,0.029882837,-0.45203173,-2.0926282,-3.591165,-8.947432
1.2640421,0.028952336,-0.4379562,-2.0274673,-3.4793425,-8.668823
1.2246829,0.02805083,-0.42431933,-1.9643369,-3.371004,-8.398897
1.18655,0.027177414,-0.41110733,-1.9031736,-3.2660413,-8.137382
1.1496053,0.02633121,-0.39830697,-1.8439158,-3.164349,-7.8840137
1.1138115,0.02551137,-0.3859054,-1.7865041,-3.0658247,-7.6385393
1.0791328,0.024717068,-0.3738902,-1.7308811,-2.9703698,-7.4007125
1.0455344,0.02394751,-0.36224926,-1.6769907,-2.8778884,-7.170294
1.0129826,0.023201926,-0.35097092,-1.624779,-2.7882879,-6.947053
0.98144466,0.022479564,-0.3400439,-1.5741936,-2.701478,-6.7307653
0.95088905,0.021779701,-0.32945722,-1.5251838,-2.6173723,-6.5212145
0.92128515,0.021101637,-0.31920028,-1.4777005,-2.5358858,-6.3181906
0.8926033,0.020444691,-0.30926275,-1.4316959,-2.4569376,-6.1214895
0.8648146,0.019808203,-0.29963475,-1.3871242,-2.3804476,-5.9309144
0.83789134,0.019191539,-0.29030657,-1.3439405,-2.30634,-5.746274
0.81180656,0.018594077,-0.2812689,-1.3021016,-2.2345402,-5.5673842
0.786534,0.01801522,-0.27251267,-1.2615657,-2.1649764,-5.394065
0.7620485,0.01745439,-0.2640291,-1.222292,-2.0975785,-5.2261424
0.7383254,0.016911024,-0.2558097,-1.1842412,-2.0322795,-5.063449
0.71534103,0.016384576,-0.24784622,-1.1473752,-1.9690138,-4.905822
0.6930723,0.01587452,-0.24013072,-1.1116571,-1.907718,-4.7531023
0.671497,0.015380347,-0.23265545,-1.0770513,-1.8483307,-4.6051383
0.6505934,0.01490156,-0.22541294,-1.043523,-1.7907926,-4.4617815
0.6303407,0.01443768,-0.21839592,-1.0110384,-1.7350459,-4.322888
0.61071855,0.013988243,-0.21159738,-0.97956544,-1.6810349,-4.1883187
0.59170735,0.0135528,-0.2050105,-0.9490723,-1.6287056,-4.0579395
0.573288,0.0131309135,-0.19862871,-0.9195285,-1.5780054,-3.9316196
0.55544215,0.012722162,-0.1924456,-0.89090455,-1.5288837,-3.8092325
0.53815186,0.012326135,-0.186455,-0.8631717,-1.4812914,-3.6906555
0.5213999,0.011942439,-0.1806509,-0.83630234,-1.4351807,-3.5757701
0.5051695,0.011570688,-0.17502749,-0.8102694,-1.3905056,-3.4644616
0.48944435,0.0112105105,-0.16957916,-0.785047,-1.3472213,-3.3566182
0.47420874,0.010861546,-0.16430044,-0.76060975,-1.3052845,-3.2521322
0.45944744,0.010523444,-0.15918605,-0.7369333,-1.2646533,-3.150899
0.4451457,0.010195869,-0.15423088,-0.7139939,-1.225287,-3.0528173
0.43128917,0.009878491,-0.14942998,-0.69176865,-1.1871461,-2.957789
0.417864,0.0095709935,-0.14477852,-0.6702353,-1.1501926,-2.8657188
0.40485677,0.009273069,-0.14027186,-0.6493723,-1.1143895,-2.776515
0.39225444,0.008984418,-0.1359055,-0.6291587,-1.079701,-2.690088
0.38004443,0.008704753,-0.13167506,-0.6095744,-1.0460923,-2.6063516
0.36821452,0.008433794,-0.12757632,-0.5905997,-1.0135299,-2.5252218
0.35675287,0.00817127,-0.12360517,-0.57221574,-0.98198104,-2.4466176
0.34564802,0.007916918,-0.11975764,-0.5544041,-0.95141435,-2.3704603
0.33488885,0.0076704836,-0.11602988,-0.5371468,-0.9217991,-2.2966738
0.3244646,0.007431721,-0.11241816,-0.5204268,-0.89310586,-2.225184
0.31436485,0.00720039,-0.10891887,-0.5042272,-0.8653057,-2.1559198
