ax,ay,az,gx,gy,gz
0.613642,-1.035464,-4.920045,51.658653,128.89664,-18.810171
0.5814128,-0.91374385,-5.6332946,49.49566,120.554825,-18.223082
0.49240875,-1.0760559,-6.203587,46.498726,106.27095,-19.434927
0.47835466,-1.3725042,-6.6996684,48.174747,86.41094,-19.174715
0.53037393,-1.8380513,-7.1320353,52.904068,66.79638,-17.619392
0.5907159,-2.3581777,-7.547409,58.350494,45.6012,-13.380304
0.6648319,-2.9333432,-8.034907,61.58234,23.185713,-6.644533
0.8013259,-3.5352385,-8.509307,60.71596,2.4852188,3.2641468
0.96082073,-4.2212305,-9.012151,63.13974,-17.137846,16.126928
1.1998273,-4.8290687,-9.595955,69.286026,-35.879295,29.847982
1.5427233,-5.1794043,-10.062709,75.57017,-54.16635,44.64415
1.9725653,-5.326864,-10.381414,82.60516,-71.25885,58.634293
2.3933134,-5.3601437,-10.629416,90.48575,-87.60375,71.357635
2.7815676,-5.296471,-10.844845,99.913284,-102.9249,83.50418
3.1593215,-5.0048914,-10.930962,107.72761,-117.494865,95.32204
3.5341337,-4.5513253,-10.81911,113.00715,-131.92874,106.43338
3.9453075,-3.9999886,-10.492039,115.98943,-145.51309,116.3765
4.4482527,-3.3718152,-9.962077,117.91342,-156.88356,124.56039
5.009777,-2.6312191,-9.211127,117.61601,-166.33333,130.30412
5.5832167,-1.719659,-8.04859,115.5117,-172.89735,133.61063
6.0767064,-0.77566296,-6.7033057,114.50634,-174.79057,133.29553
6.466864,0.14638002,-5.3060317,115.95994,-171.69992,129.023
6.7467923,1.0719808,-3.9245079,117.68046,-164.51842,122.348076
6.930357,2.0326447,-2.587597,114.77081,-153.84627,114.48097
7.064529,2.919246,-1.405693,108.35511,-140.99226,105.97069
7.1812644,3.6299012,-0.47250468,101.44472,-126.05765,96.02682
7.2871113,4.166719,0.20418577,95.42037,-109.00391,84.194824
7.375154,4.536523,0.62391126,90.356926,-90.736275,70.61494
7.4682517,4.7442408,0.81813323,87.06771,-72.24377,55.754017
7.55898,4.756681,0.7999798,85.402306,-55.05286,40.66293
7.675191,4.701985,0.72700757,82.49732,-39.24173,26.365343
7.7943616,4.6016054,0.59928423,76.85829,-24.944569,13.488656
7.9116077,4.469553,0.4115759,68.27172,-12.15306,2.5699506
8.023728,4.2606096,0.13702361,60.797886,-1.132864,-6.403544
8.106109,4.0356917,-0.17509557,53.281384,8.266757,-13.429349
8.152305,3.8222451,-0.53151995,44.866272,16.079987,-18.554636
8.142762,3.6071022,-0.9798087,35.170387,22.24261,-22.421381
8.05734,3.336566,-1.5156112,24.597525,26.479694,-25.12583
7.895027,3.0143473,-2.0896618,13.635939,28.976841,-26.493412
7.6346784,2.666704,-2.6935575,3.3821385,28.995241,-26.354887
7.322235,2.2938328,-3.3051593,-4.320003,27.423943,-25.771944
6.987155,1.9235419,-3.899788,-8.830644,24.377811,-25.027012
6.6519265,1.5992162,-4.460113,-10.033754,19.58683,-24.351906
6.3358,1.354467,-4.9780555,-7.2300463,12.0912,-24.384253
6.06833,1.2477679,-5.3990445,-3.971248,3.3022838,-24.680107
5.8458147,1.1881104,-5.7433796,-0.83631176,-6.225315,-24.984755
5.644524,1.1677421,-6.073167,1.7142558,-16.6766,-25.24736
5.4522324,1.2327111,-6.421078,2.641455,-29.219608,-25.76305
5.2885375,1.3371861,-6.7411876,1.8730202,-43.82013,-27.005177
5.188094,1.3354846,-6.975665,1.8840046,-58.349266,-27.923033
5.15949,1.3393469,-7.1469436,3.7657847,-72.16834,-28.58692
5.1949487,1.4375035,-7.234374,4.880748,-86.63366,-29.118776
5.3291135,1.505704,-7.2174573,6.1409416,-100.993576,-29.919954
5.550739,1.5008243,-7.0816307,8.965712,-113.906265,-30.995539
5.8544617,1.4361981,-6.7655387,11.507506,-124.66661,-31.64088
6.194394,1.3212147,-6.3467665,13.542817,-132.7346,-32.3088
6.5606356,1.1279852,-5.86237,16.320772,-137.91531,-33.355778
6.989546,0.84840053,-5.3222613,21.15268,-139.57237,-34.684986
7.4393544,0.55772674,-4.699735,25.691858,-137.72046,-34.802074
7.8560467,0.33988872,-3.9830441,28.031958,-133.56056,-33.52333
8.215917,0.1709195,-3.2790217,27.698334,-126.98587,-30.673908
8.498393,0.029733626,-2.6987162,26.089104,-118.689674,-26.62707
8.693712,-0.110712625,-2.2927766,25.762753,-109.62857,-21.86679
8.8116045,-0.25001547,-2.0070062,27.958858,-99.56779,-17.243412
8.870497,-0.3689955,-1.7314976,31.572037,-87.92794,-13.024223
8.886663,-0.43536514,-1.4535775,35.91829,-74.67077,-8.804054
8.856293,-0.35853434,-1.2143847,38.71059,-61.196674,-4.87189
8.781009,-0.20592123,-1.0846177,38.94052,-48.476418,-1.4044771
8.657667,-0.11314634,-1.0813085,39.700737,-37.04923,0.8567202
8.510074,-0.04149185,-1.1159598,40.092987,-26.311886,2.472023
8.373638,0.02290383,-1.1294929,39.166225,-15.671898,3.8838613
8.253907,0.072539836,-1.1590154,36.849686,-4.7426043,5.2779446
8.137976,0.080429494,-1.2717423,35.25897,6.0599127,7.108545
7.9938617,0.070457235,-1.4889376,35.871265,15.122559,9.025977
7.8224826,0.11704258,-1.7485807,36.573677,22.236475,10.787647
7.6468697,0.22131112,-1.9773232,36.714252,27.61688,12.145952
7.465479,0.358027,-2.1624382,35.682877,31.56565,13.398203
7.2881894,0.4975593,-2.3144958,33.84267,34.76526,14.731153
7.10261,0.6479631,-2.4711177,31.842617,37.26208,16.124857
6.863291,0.875252,-2.6745665,30.015057,38.469616,17.17712
6.5858607,1.1737405,-2.8815587,27.877317,37.984505,17.672384
6.2976313,1.5230232,-3.0650086,25.570206,36.233456,17.27169
6.015365,1.9047407,-3.2038665,22.676767,33.46537,15.960318
5.7617106,2.2788627,-3.2995996,19.29667,30.139456,13.2960205
5.547914,2.6249154,-3.3446357,15.656638,26.603678,9.673853
5.3704066,2.9267128,-3.3569562,12.274828,23.349606,5.0712295
5.217616,3.1852326,-3.3540075,9.600532,20.486729,-0.33264863
5.0883284,3.4048972,-3.348016,7.7926054,18.176497,-6.586676
4.9805565,3.586813,-3.342654,6.641195,16.270851,-13.816657
4.8931646,3.7212338,-3.3446705,5.4249983,14.458306,-21.434666
4.8221736,3.8149865,-3.3584645,3.9415057,12.498706,-29.323257
4.772473,3.8533154,-3.3760173,1.9431479,10.291634,-37.363117
4.753113,3.8035343,-3.3895707,-0.36639392,8.284366,-45.329845
4.7460375,3.6508136,-3.4139292,-2.2533708,6.397897,-52.887913
4.7541385,3.3692532,-3.4693937,-3.425827,4.4202113,-59.869167
4.7783074,3.0093343,-3.520105,-3.0953796,2.254953,-66.20815
4.8204093,2.6235359,-3.5008748,-2.3441129,-0.42589715,-71.27476
4.8880944,2.223426,-3.385017,-2.3490477,-3.3179407,-74.438065
4.9674277,1.8181396,-3.203284,-3.7174757,-5.600127,-75.02625
5.025863,1.4266409,-2.989003,-5.6720276,-7.2594447,-74.14873
5.054508,1.0492367,-2.794767,-7.3306365,-8.134539,-72.35901
5.0504327,0.6916274,-2.6230617,-8.026086,-8.43704,-70.2272
5.0237885,0.36632612,-2.4637752,-7.846006,-8.341319,-67.87654
4.9807816,0.07901932,-2.3115811,-6.976187,-7.9056816,-65.10245
4.920774,-0.15386243,-2.1644752,-6.0422535,-7.3770432,-61.880142
4.849355,-0.33718964,-2.0271943,-5.2671094,-6.830693,-58.212307
4.7617993,-0.4698426,-1.9046692,-4.879987,-6.3052773,-54.24242
4.657428,-0.5616224,-1.8022672,-4.9962187,-5.6782856,-50.235104
4.5421653,-0.62501335,-1.7224734,-5.3429575,-4.8805785,-46.477074
4.4215617,-0.674319,-1.6700963,-5.2924366,-3.9231932,-43.05181
4.2836843,-0.65329176,-1.6180178,-5.127403,-3.8008564,-41.709328
4.150121,-0.6329225,-1.5675688,-4.9675326,-3.6823475,-40.40885
4.0207357,-0.6131903,-1.5186977,-4.8126636,-3.5675457,-39.149055
3.8953962,-0.59407514,-1.4713551,-4.662637,-3.4563336,-37.928654
3.7739754,-0.5755576,-1.4254924,-4.517301,-3.3485985,-36.746403
3.6563492,-0.5576188,-1.381063,-4.3765073,-3.2442303,-35.6011
3.5423982,-0.54024047,-1.3380219,-4.2401123,-3.1431231,-34.491585
3.432007,-0.5234051,-1.2963253,-4.1079783,-3.0451746,-33.41673
3.3250637,-0.50709546,-1.255931,-3.9799714,-2.950285,-32.375443
3.2214596,-0.49129507,-1.2167981,-3.855961,-2.8583584,-31.366673
3.12109,-0.475988,-1.1788868,-3.7358227,-2.7693017,-30.389393
3.023853,-0.4611587,-1.1421589,-3.6194339,-2.683025,-29.44262
2.9296508,-0.44679222,-1.1065772,-3.5066776,-2.5994403,-28.52539
2.838388,-0.432874,-1.0721056,-3.3974395,-2.518464,-27.636786
2.7499723,-0.41939,-1.0387096,-3.2916095,-2.4400141,-26.775902
2.664315,-0.40632665,-1.0063554,-3.189081,-2.3640115,-25.941872
2.581329,-0.3936707,-0.97501034,-3.08975,-2.2903793,-25.133856
2.5009313,-0.3814095,-0.9446427,-2.993517,-2.2190433,-24.35104
2.4230404,-0.3695306,-0.9152221,-2.9002848,-2.1499317,-23.592632
2.347578,-0.35802206,-0.88671875,-2.8099594,-2.0829751,-22.857874
2.2744684,-0.34687233,-0.85910404,-2.7224498,-2.0181057,-22.146019
2.2036378,-0.33607015,-0.83235013,-2.6376684,-1.9552587,-21.456356
2.135015,-0.3256047,-0.80643016,-2.5555296,-1.8943706,-20.78819
2.068531,-0.31546542,-0.78131807,-2.4759507,-1.8353802,-20.14085
2.004119,-0.30564213,-0.7569886,-2.3988519,-1.7782282,-19.513683
1.941714,-0.29612496,-0.7334172,-2.3241558,-1.7228572,-18.90606
1.8812537,-0.28690434,-0.7105804,-2.2517872,-1.6692116,-18.317371
1.8226773,-0.27797103,-0.6884551,-2.1816735,-1.6172374,-17.747025
1.7659259,-0.26931605,-0.6670192,-2.1137443,-1.5668827,-17.194448
1.7109425,-0.2609307,-0.646251,-2.0479314,-1.5180967,-16.659086
1.657672,-0.25280657,-0.6261299,-1.9841688,-1.4708306,-16.140404
1.6060611,-0.24493553,-0.6066356,-1.9223924,-1.4250368,-15.637877
1.5560577,-0.23730966,-0.5877485,-1.8625402,-1.3806695,-15.151006
1.5076119,-0.22992134,-0.5694497,-1.8045526,-1.337684,-14.679298
1.460675,-0.22276314,-0.5517209,-1.7483709,-1.2960376,-14.222284
1.4152,-0.21582788,-0.5345442,-1.6939391,-1.2556882,-13.779504
1.3711413,-0.20910862,-0.51790255,-1.6412026,-1.2165955,-13.350513
1.3284547,-0.20259862,-0.50177914,-1.5901084,-1.1787202,-12.934883
1.2870975,-0.19629136,-0.48615783,-1.5406054,-1.1420246,-12.532197
1.2470282,-0.19018051,-0.47102302,-1.4926441,-1.1064717,-12.142051
1.2082068,-0.18425997,-0.4563595,-1.4461763,-1.0720259,-11.764054
1.1705941,-0.17852378,-0.4421526,-1.4011555,-1.0386527,-11.397828
1.1341528,-0.17296621,-0.4283881,-1.3575366,-1.0063187,-11.043006
1.0988461,-0.1675817,-0.41505218,-1.3152758,-0.9749916,-10.699232
1.0646387,-0.16236486,-0.40213153,-1.274331,-0.9446399,-10.366163
1.0314965,-0.15731044,-0.38961318,-1.2346611,-0.91523325,-10.043465
0.9993863,-0.1524134,-0.3774846,-1.1962264,-0.88674223,-9.730814
0.9682758,-0.14766882,-0.36573365,-1.1589884,-0.8591383,-9.427897
0.93813396,-0.14307198,-0.35434857,-1.1229097,-0.8323938,-9.134412
0.90893054,-0.13861825,-0.34331796,-1.0879543,-0.806482,-8.850064
0.88063633,-0.1343032,-0.33263078,-1.0540873,-0.78137696,-8.57457
0.853223,-0.13012247,-0.32227632,-1.0212746,-0.7570535,-8.307652
0.8266632,-0.12607192,-0.31224424,-0.98948354,-0.7334873,-8.049046
0.80093026,-0.122147456,-0.30252448,-0.95868224,-0.7106548,-7.7984886
0.7759984,-0.11834518,-0.29310733,-0.9288398,-0.6885331,-7.5557327
0.7518428,-0.11466128,-0.28398335,-0.8999264,-0.6671002,-7.3205347
0.72843915,-0.11109206,-0.2751434,-0.8719132,-0.6463344,-7.0926585
0.7057641,-0.107633956,-0.26657867,-0.8447721,-0.62621516,-6.8718762
0.683795,-0.10428351,-0.25828058,-0.81847584,-0.60672224,-6.6579676
0.66250974,-0.10103737,-0.2502408,-0.7929983,-0.58783615,-6.450718
0.6418871,-0.09789228,-0.24245131,-0.7683138,-0.569538,-6.24992
0.6219066,-0.094845094,-0.2349043,-0.7443978,-0.55180943,-6.0553727
0.60254794,-0.09189277,-0.22759223,-0.72122633,-0.5346328,-5.8668823
0.583792,-0.08903235,-0.2205078,-0.6987762,-0.5179909,-5.684259
0.5656198,-0.08626098,-0.2136439,-0.67702484,-0.501867,-5.5073214
0.54801345,-0.083575875,-0.20699365,-0.65595067,-0.48624507,-5.3358912
0.5309551,-0.08097436,-0.20055045,-0.6355325,-0.47110945,-5.169798
0.5144278,-0.07845383,-0.1943078,-0.61574996,-0.45644495,-5.008875
0.49841493,-0.076011755,-0.18825948,-0.5965832,-0.44223696,-4.852961
0.48290053,-0.0736457,-0.18239945,-0.57801306,-0.42847127,-4.7019005
