ax,ay,az,gx,gy,gz
0.05636415,0.29182085,-0.63909674,26.356604,-5.7155066,-14.870135
0.28013012,0.54967487,-0.60569793,12.489697,-5.115393,-7.4943624
0.34569076,0.38141048,-1.0795568,4.9031525,-2.5942488,-3.4944205
0.24588495,-0.077459514,-1.9621968,10.590975,-1.0925379,-4.282598
0.26544112,-0.48046878,-2.818474,21.230412,-0.563844,-6.484436
0.4606462,-0.80723375,-3.5074956,30.383259,-1.4603287,-7.8051386
0.7657049,-1.1625912,-4.131714,30.750887,-3.2642117,-4.652702
1.0110414,-1.8071818,-5.0268664,29.73213,-6.566302,-0.33273047
1.2066567,-2.627191,-6.0504007,33.093517,-11.104876,4.1786394
1.4264264,-3.432968,-7.002748,41.80941,-17.347822,9.112573
1.7254272,-3.9858134,-7.7444034,52.38138,-24.536844,14.507936
2.0426064,-4.2541966,-8.266112,59.852375,-33.649536,21.54519
2.2547584,-4.332423,-8.6771965,63.435863,-44.383213,29.349455
2.4253423,-4.3344183,-8.951498,64.561516,-56.204193,37.77201
2.586432,-4.2542915,-9.075745,65.386635,-67.755745,45.828487
2.7783356,-4.0195913,-9.017293,66.8023,-78.58794,52.713333
2.987752,-3.636538,-8.694979,67.13412,-89.374054,58.485317
3.2204735,-3.0649912,-7.897857,64.7425,-99.39966,63.538593
3.4508584,-2.474818,-6.8579607,60.429104,-107.37402,67.54443
3.681208,-1.9133949,-5.680426,56.646008,-112.4364,69.93591
3.897372,-1.3521129,-4.3965693,52.985535,-115.23022,71.06139
4.1252213,-0.858539,-2.9809115,49.792442,-114.88838,70.762825
4.3377132,-0.44013673,-1.5863822,46.94759,-112.07257,70.01043
4.5088043,-0.042948768,-0.27808756,44.126884,-107.05638,69.02562
4.616468,0.3701343,0.9045976,41.11636,-100.43936,67.5625
4.674826,0.7766188,1.9361186,38.170994,-92.40142,65.49795
4.703922,1.1656704,2.8027954,35.81468,-82.27169,62.372887
4.724958,1.5077113,3.4384992,33.954075,-70.90079,58.640038
4.734348,1.7873377,3.87605,32.573357,-58.808414,54.359013
4.730028,2.0134113,4.1264877,31.340305,-46.643494,49.664047
4.7089467,2.1928036,4.222343,29.893213,-35.0456,44.667416
4.6748514,2.316588,4.1911206,28.286963,-24.448183,39.355724
4.6375184,2.3763154,4.0465612,26.55887,-14.903327,34.25346
4.604674,2.40428,3.8456166,24.764366,-6.302464,29.2649
4.5771136,2.388968,3.5957272,23.240887,1.4206264,24.338274
4.555005,2.3284407,3.310028,22.135443,8.406538,19.508097
4.536396,2.2297077,2.993,21.877666,14.704735,14.714223
4.5097356,2.0810921,2.6282916,22.086512,20.352625,10.464588
4.4631467,1.9124328,2.2347994,22.61685,25.198578,7.1638393
4.397067,1.762534,1.817482,23.028513,29.140272,4.545116
4.310968,1.6616457,1.3760815,22.954924,31.585592,2.1508684
4.212108,1.5718373,0.91786176,22.227856,31.877884,-0.28208062
4.118475,1.4511172,0.45437875,21.578503,31.299932,-2.3881848
4.0413923,1.3324281,0.007806495,21.51059,30.697552,-4.405012
3.971972,1.2343755,-0.4304334,21.35373,29.789747,-6.186314
3.9042802,1.1367847,-0.8825841,21.080431,28.179758,-7.6214395
3.8340995,1.0504677,-1.3507384,20.519255,24.955044,-8.833073
3.7634768,0.98521715,-1.8182613,19.941088,20.799997,-10.077121
3.690635,0.9486947,-2.2628431,19.89591,15.991359,-11.695884
3.6167693,0.9663354,-2.6739748,19.88147,10.838639,-13.532191
3.5340104,1.0196131,-3.047775,19.797607,5.429638,-15.648976
3.4374192,1.0777216,-3.4023964,19.256067,-0.9061427,-17.954739
3.3484755,1.1245344,-3.7342498,18.341578,-7.7901525,-20.335943
3.273552,1.1488981,-4.040757,17.646235,-15.134117,-22.99716
3.21884,1.1484046,-4.312081,17.730934,-22.787296,-26.141731
3.1974273,1.1263133,-4.5127597,18.628277,-30.799265,-29.454552
3.24003,1.113051,-4.5914245,18.98913,-39.034916,-32.068558
3.3620095,1.1007267,-4.5273724,18.542826,-47.395042,-34.29008
3.5173202,1.0502286,-4.3557143,18.072618,-55.722897,-36.338295
3.728349,0.9762809,-4.0560865,18.221521,-63.07888,-38.5861
3.988196,0.86839813,-3.6454751,19.239498,-69.146545,-40.93109
4.2819057,0.7409009,-3.1270993,20.245556,-73.64926,-42.432682
4.571124,0.6216823,-2.501642,19.896986,-76.49827,-42.83664
4.785703,0.4755955,-1.8985318,19.273132,-77.4619,-42.762165
4.9258,0.3109405,-1.3476908,19.316788,-77.092445,-42.56654
5.0030284,0.16972665,-0.8500741,19.096334,-75.5519,-41.842594
5.0109115,0.058176287,-0.42059636,18.47065,-73.443596,-40.413586
4.9759803,-0.014864298,-0.046189215,17.418964,-70.990585,-38.630623
4.9257116,-0.07583664,0.27714851,16.4338,-68.05474,-36.864704
4.862043,-0.13170767,0.53855246,15.732678,-64.623535,-35.264915
4.785244,-0.18966536,0.7373106,15.328928,-60.89855,-33.7709
4.696399,-0.24312444,0.8793953,14.895874,-57.186554,-32.118835
4.5925503,-0.2905613,0.96784997,14.426742,-53.636032,-30.37601
4.492566,-0.33310553,1.0303341,13.81239,-50.18695,-28.52605
4.4043536,-0.3825848,1.0716646,13.082874,-46.708027,-26.566671
4.3305464,-0.4458877,1.0959152,12.367577,-43.2425,-24.466663
4.2704964,-0.51939124,1.1110288,11.787525,-39.536915,-22.203634
4.221906,-0.5947356,1.10648,11.247537,-35.741795,-19.786766
4.174893,-0.665963,1.0899932,10.767446,-31.767418,-17.236458
4.1239777,-0.7287055,1.0592533,10.339435,-27.742718,-14.57047
4.073195,-0.78460217,1.0144157,10.009862,-23.863344,-11.79061
4.0410786,-0.84622175,0.9672766,8.976146,-20.274197,-8.335591
4.0249066,-0.924987,0.90749663,8.18304,-16.825418,-4.734353
4.010605,-1.0154978,0.8386629,8.025564,-13.429709,-1.1642277
3.9890954,-1.1059687,0.7625454,8.559638,-9.881985,2.423856
3.9556506,-1.1684576,0.67473114,9.379466,-6.399774,6.102296
3.9088364,-1.1935192,0.5769781,10.196096,-3.3237002,9.927663
3.8534765,-1.1690043,0.48547757,10.797173,-0.30740002,13.66172
3.7896574,-1.1384974,0.39629352,11.622138,2.758349,17.206139
3.7137952,-1.0927575,0.29628006,12.939269,5.870128,20.41028
3.6251793,-1.0246614,0.19060737,14.650527,8.856343,23.334904
3.5284443,-0.9265023,0.08618708,16.179485,11.445916,26.26616
3.4205303,-0.75009644,-0.011013359,17.136517,13.472012,28.91354
3.304953,-0.54797965,-0.090024725,17.772974,15.034848,31.030256
3.1716323,-0.3118351,-0.15515235,18.29957,16.273325,32.723022
3.0194736,-0.02463694,-0.21375158,18.658745,17.195936,33.799286
2.8478863,0.31421363,-0.2730344,18.493307,17.772715,33.971474
2.6589856,0.7276458,-0.33360517,17.44601,17.881083,33.409496
2.4695983,1.1729261,-0.39314297,15.3694315,17.665632,32.06805
2.2875152,1.6231532,-0.45574263,12.614587,17.2396,29.71249
2.1196861,2.0477252,-0.5248998,9.677607,16.687824,26.167162
1.9810206,2.4192,-0.5969728,7.164569,16.364952,21.065617
1.8798982,2.7276165,-0.6826103,3.8329976,15.930244,15.539336
1.8083582,2.9718182,-0.7788562,0.32023135,15.381552,9.609323
1.7710211,3.1563935,-0.88297373,-3.0803962,14.966269,3.210105
1.7560737,3.2636604,-1.0037024,-6.0924654,14.588786,-3.5140274
1.7606889,3.292031,-1.1361521,-7.8904276,14.030796,-10.811917
1.7989122,3.2150102,-1.267602,-9.220776,13.119012,-17.985832
1.8678772,3.033824,-1.3911914,-10.263888,11.777007,-24.575216
1.965277,2.7422345,-1.4864295,-10.952649,10.094425,-30.153095
2.0991678,2.3578348,-1.532754,-10.915646,8.272266,-34.667576
2.2646635,1.9141555,-1.5197285,-10.421149,6.7335806,-37.244324
2.437983,1.4860067,-1.4504322,-10.138126,5.6483474,-38.456043
2.587085,1.0888283,-1.3580835,-9.917229,5.063184,-38.6481
2.7033167,0.7264468,-1.2535666,-9.337952,4.912968,-38.1778
2.783252,0.40955082,-1.1439633,-8.594167,5.260146,-37.16479
2.8190842,0.15161048,-1.0373172,-7.93829,6.1328917,-35.498676
2.8044662,-0.03205114,-0.9546011,-7.6871085,7.2199483,-33.439507
2.7555606,-0.18180749,-0.9024818,-7.434268,8.248313,-31.098518
2.6883342,-0.29750517,-0.86943877,-7.2634797,9.042971,-28.45978
2.616352,-0.38052174,-0.8401067,-7.2634645,9.750071,-25.566833
2.5348403,-0.36866668,-0.8139334,-7.0371733,9.446309,-24.770306
2.4558723,-0.35718158,-0.7885769,-6.8179436,9.152028,-23.998636
2.3793683,-0.34605488,-0.7640116,-6.605555,8.866929,-23.251043
2.3052511,-0.3352753,-0.7402127,-6.3997927,8.590725,-22.526775
2.2334461,-0.32483196,-0.7171562,-6.2004485,8.323136,-21.8251
2.1638806,-0.31471437,-0.6948188,-6.0073223,8.063894,-21.14531
2.0964847,-0.3049123,-0.6731781,-5.820219,7.8127375,-20.486721
2.0311902,-0.2954159,-0.6522121,-5.63895,7.5694118,-19.848667
1.9679315,-0.28621557,-0.63189983,-5.463332,7.333673,-19.230507
1.906645,-0.2773021,-0.6122208,-5.29319,7.1052833,-18.63162
1.8472689,-0.26866645,-0.5931553,-5.1283517,6.884013,-18.051401
1.7897438,-0.26029998,-0.574684,-4.968651,6.66964,-17.489267
1.7340114,-0.2521943,-0.55678844,-4.813928,6.4619484,-16.944654
1.6800159,-0.2443412,-0.5394506,-4.6640267,6.26073,-16.417013
1.6277031,-0.23673283,-0.52265304,-4.518797,6.065781,-15.905816
1.5770204,-0.22936153,-0.5063789,-4.378093,5.8769073,-15.410547
1.5279168,-0.22221993,-0.4906118,-4.241772,5.6939187,-14.930711
1.4803431,-0.21530081,-0.47533596,-4.1096992,5.516631,-14.465823
1.4342515,-0.20859727,-0.46053603,-3.9817407,5.3448668,-14.01542
1.389596,-0.20210257,-0.44619718,-3.8577688,5.178454,-13.579047
1.3463314,-0.19581017,-0.43230498,-3.7376585,5.0172243,-13.156269
1.3044145,-0.18971379,-0.41884553,-3.6212895,4.861017,-12.746659
1.2638032,-0.1838073,-0.40580532,-3.5085454,4.709676,-12.349809
1.2244569,-0.17808478,-0.39317128,-3.399313,4.5630484,-11.965319
1.186336,-0.17254049,-0.38093072,-3.2934825,4.4209876,-11.592804
1.1494025,-0.16716887,-0.3690714,-3.1909482,4.283351,-11.231892
1.1136191,-0.16196455,-0.3575814,-3.091607,4.150001,-10.882218
1.0789502,-0.1569223,-0.34644926,-2.99536,4.0208044,-10.543435
1.0453608,-0.15203707,-0.33566377,-2.9021099,3.8956306,-10.215202
1.0128174,-0.14730397,-0.32521415,-2.8117638,3.774355,-9.897191
0.9812875,-0.14271826,-0.31508994,-2.7242308,3.6568556,-9.589082
0.9507393,-0.13827534,-0.30528098,-2.6394236,3.5430152,-9.290567
0.9211424,-0.13397078,-0.29577744,-2.5572572,3.4327197,-9.0013485
0.8924671,-0.12980023,-0.28656983,-2.4776495,3.3258584,-8.721134
0.8646846,-0.12575956,-0.27764893,-2.40052,3.2223244,-8.449645
0.8377671,-0.12184469,-0.26900578,-2.3257926,3.1220143,-8.186609
0.81168777,-0.11805171,-0.2606317,-2.2533915,3.024827,-7.9317636
0.7864204,-0.11437683,-0.25251842,-2.1832447,2.930666,-7.6848526
0.7619397,-0.11081636,-0.2446577,-2.1152818,2.8394365,-7.4456286
0.73822117,-0.10736675,-0.23704171,-2.0494351,2.7510474,-7.213853
0.71524113,-0.10402453,-0.22966285,-1.9856383,2.66541,-6.989293
0.69297653,-0.10078637,-0.22251372,-1.9238276,2.582439,-6.7717247
0.6714051,-0.09764902,-0.21558715,-1.8639414,2.502051,-6.56093
0.6505052,-0.09460935,-0.20887624,-1.8059195,2.4241657,-6.356697
0.63025594,-0.09166431,-0.20237423,-1.7497041,2.3487053,-6.158823
0.6106371,-0.08881094,-0.19607466,-1.6952387,2.275594,-5.967109
0.591629,-0.08604641,-0.18997121,-1.6424688,2.2047586,-5.7813635
0.57321274,-0.08336795,-0.18405774,-1.5913417,2.1361284,-5.6014
0.55536973,-0.08077286,-0.17832838,-1.5418063,2.069635,-5.427039
0.5380822,-0.07825857,-0.17277738,-1.493813,2.0052114,-5.2581067
0.5213328,-0.07582254,-0.16739918,-1.4473138,1.9427934,-5.0944324
0.50510484,-0.07346235,-0.16218841,-1.402262,1.8823184,-4.935854
0.48938203,-0.07117563,-0.15713984,-1.3586127,1.8237259,-4.782212
0.4741487,-0.06896009,-0.15224844,-1.3163222,1.7669575,-4.6333523
0.45938957,-0.06681353,-0.1475093,-1.2753482,1.7119564,-4.489127
0.44508988,-0.06473379,-0.1429177,-1.2356497,1.6586672,-4.3493915
0.4312353,-0.06271878,-0.13846901,-1.197187,1.6070371,-4.2140055
0.41781205,-0.060766503,-0.13415882,-1.1599215,1.557014,-4.0828342
0.4048066,-0.058875,-0.1299828,-1.1238161,1.5085481,-3.955746
