ax,ay,az,gx,gy,gz
-0.77455246,-1.6009237,-6.381876,5.160047,-72.90975,37.897617
-0.7928715,-1.7248415,-7.0599475,14.799428,-88.36503,44.239574
-0.9758249,-1.9530478,-7.632938,29.918608,-102.058205,40.23892
-0.75088954,-2.4073992,-7.8084803,46.546036,-108.73528,32.36054
-0.22409938,-2.875532,-7.767148,55.944,-110.57157,30.828732
0.16299796,-3.1130874,-7.9056387,55.55427,-113.64611,35.160973
0.32884732,-3.2138402,-8.254516,50.18626,-119.50905,41.589268
0.3728495,-3.4244761,-8.688625,49.36362,-126.335075,44.700214
0.44065887,-3.7808106,-8.986819,55.794724,-132.91644,45.253548
0.6248756,-3.9996479,-9.10185,65.13904,-138.53903,46.488163
0.9196371,-3.8970778,-9.07015,71.531,-142.69025,49.72946
1.2064723,-3.605012,-8.984242,71.15262,-148.99062,54.594666
1.4741902,-3.3961775,-8.789579,68.570244,-155.80623,58.33542
1.738583,-3.3398595,-8.507636,68.52233,-161.53511,60.645832
2.0446513,-3.1605868,-8.086461,69.8139,-166.3005,62.869625
2.4088712,-2.7333992,-7.503207,69.94524,-170.48305,64.94772
2.8048656,-2.2161374,-6.800363,66.63116,-173.72272,66.87217
3.163033,-1.8010064,-5.9855046,62.244724,-175.399,68.43971
3.455998,-1.4306736,-5.1914907,57.650955,-175.59137,69.38513
3.6876228,-1.075891,-4.4350014,53.695934,-174.72348,69.51517
3.8908684,-0.6997528,-3.6569738,49.728264,-172.9076,69.357925
4.0582347,-0.29888102,-2.8617966,44.987484,-169.79115,68.91019
4.182962,0.06086141,-2.0841353,40.57493,-165.86987,67.85841
4.3016453,0.3792858,-1.3292942,36.57441,-161.17375,66.31212
4.4261374,0.6669348,-0.5963118,32.738876,-155.46002,64.57268
4.5500445,0.93183976,0.10675424,29.360456,-148.77281,62.643295
4.6668425,1.1835486,0.77334696,26.342764,-140.62016,60.240364
4.7438526,1.4020377,1.3642325,23.57224,-131.7013,57.412437
4.7909713,1.5778229,1.8616536,21.2035,-122.2711,54.11734
4.823849,1.7170199,2.2647607,18.951084,-112.3865,50.540222
4.8474207,1.8080076,2.56594,16.849274,-102.25688,46.743378
4.867097,1.8430814,2.771707,14.755564,-91.94708,43.10051
4.8893046,1.823708,2.8834965,12.8167,-81.791794,39.726788
4.904621,1.7888074,2.93884,11.008134,-71.78182,36.57406
4.9191213,1.7474166,2.9584968,9.241401,-62.053886,33.5561
4.9455113,1.6920056,2.954417,7.5382385,-52.44926,30.647896
4.972573,1.6093636,2.9176002,6.4312825,-42.74819,27.752748
4.989182,1.5220501,2.8491504,5.5659347,-33.119305,25.052742
4.9827085,1.4440393,2.7537677,4.8076506,-23.809587,22.561676
4.964473,1.3789874,2.630696,4.02256,-15.007168,20.29494
4.943239,1.3233398,2.4858844,2.9907875,-6.7360897,18.26739
4.9186945,1.2456669,2.3091877,2.379947,1.2231607,16.361979
4.8800874,1.1353363,2.0798907,2.4559405,8.856375,14.586436
4.825415,1.0328286,1.814802,3.1529214,15.940816,12.909489
4.7553287,0.9529624,1.5271713,4.085069,22.22328,11.34038
4.671744,0.89625186,1.2334939,4.914512,27.693008,9.868847
4.566824,0.86531687,0.92583615,5.520146,32.109222,8.184163
4.423637,0.85155255,0.5809427,6.498933,35.65314,5.969203
4.2626896,0.83932793,0.21606654,8.279242,38.397633,3.1228607
4.0853796,0.82839954,-0.16149649,10.804611,40.174988,-0.2960669
3.9048245,0.81078047,-0.53774136,13.626823,40.932064,-3.8700106
3.7305775,0.7877309,-0.9059228,16.588354,40.31214,-7.226591
3.5685334,0.7839649,-1.2553309,18.966297,38.78192,-9.939701
3.405595,0.78812385,-1.6030481,20.554415,36.07687,-11.982373
3.2532876,0.79229385,-1.949098,21.284832,32.31788,-13.356661
3.1173453,0.78700393,-2.289207,21.158476,27.653896,-14.207019
3.001782,0.77529734,-2.6147122,20.711576,22.176527,-14.986221
2.9184477,0.77073216,-2.908989,20.180834,16.507002,-16.015314
2.8387523,0.7541448,-3.1950765,19.876457,10.871085,-17.589779
2.760325,0.70244706,-3.4834735,20.129631,5.093481,-19.575489
2.6893082,0.6210319,-3.765112,20.82788,-1.1485251,-21.63196
2.6432612,0.52215356,-4.022183,21.367239,-8.0677805,-23.155714
2.6232479,0.41433513,-4.238127,21.3513,-15.403306,-24.099802
2.6175005,0.30037445,-4.4099183,20.80653,-22.971548,-24.653114
2.624595,0.18447062,-4.520054,19.948586,-30.440985,-25.04406
2.6377404,0.082509145,-4.5682154,18.908264,-37.69857,-25.404034
2.6430688,-0.007562075,-4.5468006,18.194706,-44.77235,-25.943464
2.6607575,-0.07712404,-4.4166684,17.909422,-51.667725,-26.570118
2.7218928,-0.10845041,-4.208513,17.746784,-58.296227,-27.154276
2.8487105,-0.11353795,-3.9194417,17.410543,-64.481064,-27.724724
3.047782,-0.11616352,-3.5330522,15.997223,-70.16834,-27.83114
3.32546,-0.14623697,-3.04308,13.247118,-74.475334,-27.28778
3.6899836,-0.25676587,-2.474963,10.087888,-77.29878,-26.454239
4.0821133,-0.44135693,-1.8792537,6.781085,-77.80893,-25.13709
4.423483,-0.6867312,-1.3149158,3.7316926,-76.4442,-23.389484
4.653431,-0.9610376,-0.83372635,1.485137,-73.74122,-21.355242
4.777846,-1.2273117,-0.4362978,0.39047328,-70.003426,-18.87027
4.8191924,-1.4519825,-0.13069247,-0.19824651,-66.03256,-16.020855
4.8409276,-1.6495788,0.122587666,-0.39422518,-61.849648,-12.795871
4.862716,-1.8229663,0.32829154,0.13198984,-57.386448,-9.428964
4.8935986,-1.9541168,0.49613342,1.0623224,-52.648167,-5.9534907
4.9264765,-2.0477672,0.62693006,2.254725,-47.44002,-2.3690274
4.9379754,-2.1283085,0.6874271,3.7409937,-42.063313,1.2461293
4.929268,-2.2172372,0.6955876,5.824273,-36.653805,4.9736185
4.9071403,-2.2925096,0.66773194,8.546529,-31.321667,8.890475
4.8723435,-2.3109887,0.6225858,11.340822,-26.098692,13.042392
4.8196077,-2.2690914,0.559046,13.94056,-20.988806,17.080948
4.740039,-2.1938674,0.45731723,16.503393,-16.053267,20.665306
4.6568255,-2.1256778,0.3376627,18.984657,-11.276723,23.915518
4.5774794,-2.062351,0.20441782,21.29141,-6.722793,27.190569
4.494794,-1.97165,0.06384323,23.364326,-2.6403754,30.64463
4.4103775,-1.8294322,-0.07481078,24.964437,0.91316247,34.10958
4.3247533,-1.6472375,-0.21026306,26.336197,4.0025992,37.14191
4.234359,-1.4558495,-0.3430885,28.115286,6.9236383,39.509167
4.137687,-1.2369765,-0.466617,30.162725,9.759989,41.307106
4.0288076,-0.9579672,-0.5762378,31.843924,12.312108,42.71807
3.90226,-0.62060696,-0.67192703,32.331005,14.274215,43.622734
3.7544167,-0.2525936,-0.76338094,32.064495,15.750968,43.901783
3.6019497,0.099796906,-0.85720366,31.421137,16.902763,43.447334
3.4478776,0.4461877,-0.9515096,30.68744,17.74374,42.389427
3.2947478,0.80766857,-1.0358219,29.717558,18.268518,40.434498
3.1449327,1.1737744,-1.1092713,28.494194,18.588102,37.25076
3.0002923,1.5165775,-1.1781656,26.918606,18.636616,33.223785
2.8607864,1.8075395,-1.2559464,25.10672,18.420687,28.55928
2.7249093,2.051015,-1.3374034,23.075495,17.86293,23.513504
2.59941,2.2698162,-1.4148389,20.68707,17.010347,18.13462
2.4994974,2.4565177,-1.4849173,18.236437,15.986443,11.901788
2.4522843,2.5737936,-1.5439715,15.917812,15.040324,5.1864753
2.43668,2.6272607,-1.5950625,13.681331,14.169537,-1.691618
2.4332285,2.6232295,-1.6472358,11.261705,13.209876,-8.310556
2.42449,2.5551498,-1.7040439,8.733212,11.734021,-14.621441
2.424693,2.4042988,-1.744451,5.94317,9.624976,-20.04027
2.4598072,2.1358616,-1.7463076,3.1947577,7.3992085,-24.629284
2.5346913,1.7764698,-1.7178369,0.8157796,5.273499,-28.327076
2.65346,1.347613,-1.6478956,-0.88954526,3.4672844,-31.028393
2.794916,0.89637893,-1.5373158,-2.0812256,2.1797688,-32.507694
2.9285238,0.46878067,-1.4022983,-2.7905383,1.6648334,-32.535065
3.019347,0.10433813,-1.2719661,-3.1372395,1.7175661,-31.893982
3.071094,-0.21799788,-1.1679218,-3.039481,2.358242,-30.839289
3.0809684,-0.50119793,-1.098285,-2.66332,3.4619634,-29.387728
3.053271,-0.7426242,-1.0655617,-2.2589598,4.8316708,-27.48706
2.9970596,-0.9349231,-1.0684415,-1.9585046,6.249908,-24.78812
2.9183028,-1.0590392,-1.1038799,-1.8195462,7.54594,-21.530724
2.8273935,-1.0260487,-1.0694925,-1.7628648,7.310873,-20.86001
2.7393203,-0.99408734,-1.0361779,-1.7079517,7.08314,-20.210224
2.6539946,-0.963123,-1.0039024,-1.6547515,6.862511,-19.580706
2.5713303,-0.9331245,-0.9726338,-1.6032108,6.648763,-18.970821
2.4912438,-0.90406144,-0.9423402,-1.5532774,6.4416814,-18.37996
2.4136548,-0.8759047,-0.9129913,-1.5049009,6.241057,-17.80752
2.3384848,-0.84862584,-0.8845574,-1.4580328,6.0466876,-17.25293
2.2656584,-0.82219744,-0.85701,-1.4126259,5.8583784,-16.715628
2.195102,-0.7965929,-0.8303213,-1.3686345,5.675939,-16.195076
2.126745,-0.7717864,-0.8044645,-1.3260142,5.499186,-15.69075
2.0605185,-0.7477531,-0.77941364,-1.2847223,5.3279424,-15.202143
1.9963559,-0.72446877,-0.75514346,-1.2447174,5.1620355,-14.728763
1.9341928,-0.7019101,-0.73162955,-1.205959,5.0012984,-14.270134
1.8739667,-0.6800543,-0.70884836,-1.1684083,4.84557,-13.825796
1.8156172,-0.65887946,-0.68677706,-1.1320276,4.694694,-13.395304
1.7590855,-0.63836443,-0.66539335,-1.0967805,4.5485187,-12.978224
1.7043152,-0.6184885,-0.64467585,-1.0626315,4.406897,-12.574138
1.6512511,-0.5992318,-0.62460375,-1.0295463,4.2696877,-12.18264
1.5998399,-0.58057487,-0.60515696,-0.9974917,4.1367526,-11.803337
1.5500304,-0.56249917,-0.58631593,-0.9664357,4.0079584,-11.43585
1.5017722,-0.5449865,-0.5680617,-0.93634695,3.8831756,-11.07981
1.4550171,-0.5280193,-0.5503761,-0.9071954,3.7622797,-10.734859
1.4097182,-0.5115805,-0.53324133,-0.8789518,3.6451492,-10.400653
1.3658302,-0.49565375,-0.5166402,-0.85158783,3.5316665,-10.076855
1.323309,-0.480223,-0.50055605,-0.8250761,3.4217181,-9.76314
1.2821119,-0.46527278,-0.48497283,-0.79938996,3.315194,-9.459196
1.2421979,-0.45078814,-0.46987492,-0.77450377,3.211987,-9.164717
1.2035267,-0.43675455,-0.45524713,-0.75039256,3.111994,-8.879408
1.1660599,-0.423158,-0.44107488,-0.7270321,3.0151148,-8.602984
1.1297596,-0.4099848,-0.4273439,-0.7043991,2.921252,-8.335167
1.0945897,-0.3972218,-0.4140405,-0.68247086,2.8303123,-8.07569
1.0605149,-0.3848562,-0.40115136,-0.6612254,2.7422042,-7.824292
1.0275011,-0.37287563,-0.3886635,-0.64064145,2.6568394,-7.580722
0.99551517,-0.36126807,-0.3765645,-0.62069845,2.5741324,-7.3447356
0.96452516,-0.35002196,-0.3648422,-0.60137635,2.4940007,-7.116097
0.93450004,-0.33912596,-0.35348487,-0.58265585,2.416364,-6.894577
0.90540975,-0.32856923,-0.34248114,-0.5645182,2.3411443,-6.6799536
0.87722516,-0.31834117,-0.33182,-0.5469452,2.2682664,-6.472013
0.84991807,-0.30843154,-0.3214908,-0.5299194,2.1976578,-6.270546
0.8234611,-0.29883042,-0.31148317,-0.5134236,2.1292472,-6.075351
0.79782784,-0.28952822,-0.3017871,-0.4974414,2.0629666,-5.8862333
0.7729926,-0.2805156,-0.2923929,-0.48195678,1.9987494,-5.7030034
0.7489305,-0.2717836,-0.28329116,-0.4669542,1.9365313,-5.5254774
0.7256175,-0.26332343,-0.27447277,-0.45241868,1.8762503,-5.3534784
0.70303035,-0.25512663,-0.2659289,-0.4383357,1.817846,-5.186834
0.68114626,-0.24718499,-0.25765103,-0.4246911,1.7612597,-5.0253773
0.6599435,-0.2394906,-0.24963085,-0.41147128,1.7064351,-4.868947
0.6394008,-0.23203574,-0.24186035,-0.398663,1.6533172,-4.7173867
0.6194976,-0.22481295,-0.23433173,-0.38625345,1.6018529,-4.5705442
0.60021394,-0.21781501,-0.22703749,-0.37423024,1.5519906,-4.4282727
0.58153063,-0.21103491,-0.21997032,-0.36258125,1.5036806,-4.2904305
0.56342894,-0.20446588,-0.21312314,-0.35129493,1.4568745,-4.1568794
0.5458907,-0.19810134,-0.20648913,-0.34035996,1.4115254,-4.0274854
0.5288984,-0.19193491,-0.20006162,-0.32976538,1.367588,-3.9021196
0.51243514,-0.18596046,-0.19383419,-0.3195006,1.3250184,-3.780656
0.4964843,-0.18017198,-0.18780062,-0.30955532,1.2837739,-3.6629739
0.48103002,-0.17456368,-0.18195486,-0.29991966,1.2438133,-3.5489547
