ax,ay,az,gx,gy,gz
-0.13454668,-0.030000273,-2.5272956,1.2209202,52.990482,-8.767352
-0.25959703,-0.074788034,-2.998857,6.310102,49.14612,-6.945651
-0.2933365,0.029849222,-3.1818151,4.704904,46.360714,-6.5944824
-0.30231202,0.21104378,-3.192387,-2.6926696,42.228184,-8.102869
-0.27186504,0.4837146,-3.1404188,-12.373645,40.278946,-11.261004
-0.2632819,0.5461515,-3.197278,-14.356107,40.70393,-17.538532
-0.28108257,0.45592627,-3.3679402,-7.2632604,42.22941,-26.211992
-0.28848648,0.2597714,-3.5725315,2.6003964,42.88219,-34.929295
-0.23615403,-0.013621096,-3.7986712,13.685032,42.500824,-41.789227
-0.11796849,-0.32864347,-4.0571504,23.035116,41.354694,-45.832752
0.017557554,-0.63004917,-4.3017974,28.742992,39.489872,-46.5107
0.13519475,-0.9385594,-4.53641,31.72484,36.723934,-44.99615
0.24172029,-1.2737705,-4.7750325,33.653736,33.305325,-41.799984
0.3245468,-1.6063612,-5.032981,36.667038,28.587261,-37.507236
0.3861542,-1.9078498,-5.351746,40.42207,22.536173,-32.974396
0.45123634,-2.1707718,-5.676556,44.593937,15.491727,-28.22871
0.539409,-2.4273381,-6.011151,49.974026,7.859091,-23.535007
0.6730266,-2.690538,-6.340304,56.572914,-0.15624572,-18.419468
0.83071846,-2.9386342,-6.6477156,64.641884,-8.120007,-12.319177
1.0011612,-3.146012,-6.93888,72.90194,-15.801388,-5.5371165
1.1805733,-3.3510637,-7.225293,81.43434,-23.617321,1.9626671
1.3899896,-3.528799,-7.498191,91.23988,-30.915167,9.877469
1.5809919,-3.5952728,-7.7693615,101.656265,-37.86472,18.046412
1.7373985,-3.5191767,-8.008023,111.60553,-46.02062,26.79642
1.8913271,-3.222503,-8.082034,119.31411,-55.29246,36.519356
2.087358,-2.7584398,-7.94289,123.48903,-65.36554,47.729214
2.3262558,-2.0884612,-7.5792108,123.6505,-76.053566,59.81048
2.5961518,-1.1973155,-6.969688,120.79863,-86.80949,69.524704
2.9375129,-0.27491626,-6.058986,119.281586,-93.32719,72.8126
3.34932,0.63377917,-4.8637633,119.010315,-93.95294,72.18931
3.727632,1.5048683,-3.6942573,117.41057,-90.387985,69.36136
4.0547466,2.2651086,-2.6424747,112.57363,-84.090126,66.06227
4.3392634,2.8623326,-1.7708855,105.755165,-75.86388,62.802856
4.588761,3.309164,-1.0743406,97.648476,-65.89267,59.462326
4.81883,3.643179,-0.5457419,89.19626,-54.93332,55.77833
5.024518,3.9270809,-0.1387557,80.78483,-43.403564,51.32902
5.219246,4.132567,0.1877555,72.5537,-31.417562,46.502018
5.389015,4.2508264,0.41535708,65.38522,-19.153334,41.386044
5.528662,4.308961,0.54907876,58.334038,-6.4645104,36.507324
5.632887,4.3122163,0.5620567,51.291073,6.046733,32.16396
5.7025146,4.3004055,0.4816057,43.569202,17.93762,28.033876
5.750097,4.2515345,0.30247986,36.307316,29.226395,23.5712
5.772781,4.163327,0.027122373,30.006943,39.33866,18.71993
5.772718,4.0310163,-0.3233642,24.750732,48.008743,13.345178
5.7240763,3.8339953,-0.7602331,20.267683,54.952587,8.077847
5.6249323,3.5800433,-1.2331712,16.55585,59.97007,3.0991988
5.487941,3.2852063,-1.7116946,13.955663,63.173183,-1.2991079
5.3179283,2.9598157,-2.1954074,12.578959,64.68873,-4.9954166
5.1239,2.6205487,-2.6830797,13.088603,63.575695,-7.6843243
4.9253583,2.317695,-3.12943,14.248592,60.857307,-9.408324
4.7314816,2.0692701,-3.5282407,15.596011,56.997345,-10.365257
4.533015,1.8747034,-3.9075143,16.963284,51.97283,-10.900257
4.329932,1.7110516,-4.2846975,18.229673,45.26137,-11.196737
4.140869,1.5696169,-4.654522,19.846352,36.849125,-11.569388
3.97232,1.5047656,-4.9663687,20.739725,27.708406,-11.901877
3.8255854,1.4574823,-5.21984,20.828773,18.370419,-12.238264
3.6917639,1.3796647,-5.4285226,20.804184,8.806919,-12.476068
3.5618272,1.2698537,-5.61069,20.946478,-0.9311068,-12.581266
3.4337356,1.1463025,-5.7825747,21.741703,-11.097955,-12.872114
3.326417,0.99440557,-5.9277654,23.789011,-21.179892,-13.661578
3.2441583,0.837438,-6.0345745,27.381876,-31.06094,-14.387538
3.1981163,0.7464515,-6.0667915,31.181171,-40.606003,-14.303061
3.1792064,0.72433126,-6.030311,33.907497,-50.399124,-13.539024
3.2106373,0.7025237,-5.9153194,35.738644,-60.507355,-12.311337
3.3652143,0.6970051,-5.618469,37.112206,-69.39269,-10.481671
3.6010168,0.7469988,-5.1699543,37.21206,-76.35202,-8.212757
3.889256,0.81413937,-4.6176724,36.226837,-81.05645,-6.071734
4.2033973,0.8608095,-4.0146885,34.41965,-83.15932,-4.4950767
4.525183,0.8391302,-3.4214342,32.593307,-81.69444,-3.8349655
4.8183455,0.72997725,-2.9133348,31.141422,-78.56983,-3.3098214
5.0738487,0.5660987,-2.4797618,30.202358,-74.71366,-2.2269247
5.292448,0.38301644,-2.0786679,29.41671,-70.46149,-0.19216672
5.48315,0.23272322,-1.6821635,28.308178,-65.5126,2.54864
5.637821,0.1128795,-1.3076946,27.427786,-59.294277,5.3753185
5.7451234,0.031373225,-0.9855287,26.993948,-52.11029,7.950653
5.8145485,-0.044428088,-0.7215937,27.540014,-44.106785,10.175173
5.850823,-0.10368872,-0.51194984,28.145464,-35.725742,12.346404
5.858124,-0.15571555,-0.36126953,28.467121,-27.170137,14.637856
5.835432,-0.19125515,-0.2694052,27.89626,-18.643665,17.222824
5.7834597,-0.1929181,-0.23827395,26.464455,-10.256539,19.747208
5.721415,-0.19273166,-0.26060134,25.273071,-1.8094679,22.072796
5.6319976,-0.21694851,-0.36824524,26.145264,6.509545,23.90266
5.5043387,-0.2253181,-0.5291796,27.836153,13.825721,25.462482
5.3561287,-0.21160108,-0.71098065,29.551443,19.633013,27.290783
5.1860538,-0.15414834,-0.8928028,30.707458,24.381767,29.346249
4.9997816,-0.040660568,-1.0713863,30.776243,28.043411,31.48358
4.8021626,0.11963875,-1.248914,29.909973,30.659138,33.387947
4.601997,0.2854941,-1.4365302,29.722265,32.701363,34.51175
4.380579,0.47742417,-1.6387432,30.062944,33.562943,34.206627
4.1498713,0.70659643,-1.8273208,30.48653,33.41778,33.065758
3.9276772,0.9697194,-1.988485,30.479841,32.38239,31.372196
3.7153776,1.2576302,-2.1222124,29.380125,30.687939,29.33862
3.5109909,1.5406173,-2.2340186,27.241528,28.59245,26.918533
3.3129454,1.8164352,-2.3349655,24.452442,26.303503,23.717491
3.130888,2.0920756,-2.4214916,21.371561,24.006725,19.75653
2.9644299,2.343157,-2.5079749,18.271536,21.61451,15.036891
2.8083193,2.571655,-2.5990767,15.03462,18.809277,9.680006
2.6681938,2.7701964,-2.6858065,11.228263,15.440061,3.9597478
2.5556674,2.90374,-2.7584305,7.3777537,12.032016,-2.05141
2.4707375,2.977161,-2.8036518,3.3262377,8.61303,-7.9991946
2.4150891,3.0186954,-2.834302,-0.8418609,5.414056,-14.040114
2.395851,3.0036228,-2.8596482,-4.61973,2.4299896,-20.380957
2.41874,2.9098494,-2.872553,-7.9778605,-0.59941626,-26.776041
2.4912589,2.7319324,-2.8602686,-11.059062,-3.4155905,-32.684536
2.618396,2.445062,-2.8119175,-13.74072,-5.890067,-37.8114
2.7650108,2.1059673,-2.7341912,-16.113535,-7.986,-41.758556
2.9105859,1.7451187,-2.6348472,-18.328161,-9.711533,-44.435585
3.0362198,1.3712462,-2.525795,-20.134485,-10.971751,-46.07104
3.1346505,0.9944567,-2.4108956,-21.174145,-11.53952,-46.634872
3.1914835,0.6333324,-2.2971923,-21.463646,-11.56224,-46.594772
3.213577,0.304716,-2.1940641,-21.192116,-11.254987,-46.021107
3.204704,0.016813215,-2.0979047,-20.655046,-10.82605,-44.88115
3.1738799,-0.22314475,-2.0090864,-20.047262,-10.321087,-43.238373
3.125347,-0.4204045,-1.9285632,-19.386164,-9.710151,-41.148445
3.0568547,-0.5692928,-1.8528016,-18.800903,-9.072649,-38.832783
2.9838023,-0.6913053,-1.7795326,-18.19401,-8.36375,-36.277504
2.909604,-0.7848848,-1.7066206,-17.545181,-7.578084,-33.51485
2.8326442,-0.8454378,-1.634802,-17.01173,-6.874019,-30.553202
2.7601757,-0.8815705,-1.5580596,-16.386532,-6.3231926,-27.575642
2.6741726,-0.854102,-1.5095127,-15.875951,-6.126171,-26.716425
2.5908544,-0.8274911,-1.4624814,-15.38131,-5.9353004,-25.884031
2.510137,-0.80171084,-1.4169182,-14.902109,-5.750387,-25.077621
2.4319386,-0.7767351,-1.3727769,-14.437863,-5.571245,-24.296377
2.3561802,-0.7525387,-1.3300129,-13.988103,-5.397693,-23.53951
2.2827854,-0.7290972,-1.2885832,-13.552375,-5.2295556,-22.806257
2.2116802,-0.7063869,-1.2484456,-13.130239,-5.066663,-22.095877
2.1427925,-0.68438494,-1.2095602,-12.721269,-4.9088507,-21.407652
2.0760534,-0.6630692,-1.1718873,-12.325053,-4.75596,-20.74089
2.0113952,-0.642418,-1.1353892,-11.941193,-4.6078367,-20.094921
1.9487531,-0.62241083,-1.100029,-11.569301,-4.464332,-19.469093
1.8880639,-0.60302734,-1.0657713,-11.2090025,-4.325301,-18.862776
1.8292665,-0.58424807,-1.0325814,-10.859937,-4.190604,-18.275358
1.7723018,-0.56605417,-1.0004262,-10.52175,-4.060106,-17.70625
1.7171127,-0.54842734,-0.96927303,-10.194104,-3.9336748,-17.15488
1.6636434,-0.53134984,-0.9390908,-9.87667,-3.811184,-16.620693
1.6118404,-0.51480454,-0.9098491,-9.569127,-3.6925101,-16.103153
1.5616516,-0.49877474,-0.8815186,-9.271168,-3.5775342,-15.60174
1.5130266,-0.48324445,-0.85407084,-8.982492,-3.466141,-15.115951
1.4659165,-0.468198,-0.82747823,-8.70281,-3.3582182,-14.645295
1.4202741,-0.4536203,-0.8017141,-8.431843,-3.2536576,-14.189303
1.3760537,-0.4394968,-0.7767526,-8.169315,-3.1523545,-13.747518
1.3332107,-0.4258132,-0.75256866,-7.914967,-3.054207,-13.319493
1.2917024,-0.41255587,-0.7291381,-7.6685414,-2.959117,-12.904802
1.2514869,-0.3997115,-0.70643735,-7.429791,-2.8669887,-12.503028
1.212524,-0.38726717,-0.68444365,-7.1984773,-2.77773,-12.113768
1.1747746,-0.37521043,-0.66313493,-6.974368,-2.6912513,-11.736631
1.138201,-0.36352918,-0.6424899,-6.757239,-2.6074657,-11.371241
1.1027664,-0.35221174,-0.6224878,-6.546871,-2.52629,-11.01723
1.0684352,-0.34124675,-0.60310864,-6.3430552,-2.4476418,-10.674244
1.0351733,-0.33062324,-0.58433294,-6.1455865,-2.371443,-10.341938
1.0029471,-0.32033053,-0.56614196,-5.954267,-2.2976172,-10.019981
0.9717244,-0.31035835,-0.54851747,-5.768905,-2.2260902,-9.70805
0.94147396,-0.30069667,-0.53144175,-5.5893154,-2.1567905,-9.405832
0.91216546,-0.29133585,-0.5148977,-5.4153175,-2.0896487,-9.113025
0.8837696,-0.28226653,-0.49886882,-5.2467375,-2.0245976,-8.829334
0.8562578,-0.27347955,-0.48333904,-5.0834064,-1.9615718,-8.554477
0.8296027,-0.2649662,-0.4682928,-4.9251614,-1.9005085,-8.2881775
0.8037775,-0.2567179,-0.45371503,-4.771843,-1.8413465,-8.03017
0.7787564,-0.24872643,-0.43959114,-4.623298,-1.7840264,-7.780195
0.7545142,-0.24098375,-0.425907,-4.479378,-1.728491,-7.538004
0.7310269,-0.23348214,-0.4126489,-4.339939,-1.6746845,-7.3033524
0.7082708,-0.22621408,-0.39980358,-4.2048416,-1.6225533,-7.0760064
0.68622315,-0.21917231,-0.38735816,-4.07395,-1.5720452,-6.8557386
0.6648619,-0.21234976,-0.3753002,-3.9471328,-1.5231094,-6.6423287
0.6441657,-0.20573962,-0.36361763,-3.8242643,-1.4756973,-6.4355626
0.6241138,-0.19933526,-0.35229877,-3.705221,-1.429761,-6.2352333
0.6046862,-0.19313028,-0.3413323,-3.5898833,-1.385255,-6.0411406
0.58586335,-0.18711847,-0.33070722,-3.4781365,-1.3421344,-5.8530903
0.5676265,-0.18129382,-0.3204129,-3.3698685,-1.3003563,-5.6708946
0.5499574,-0.17565049,-0.31043908,-3.264971,-1.2598786,-5.4943705
0.5328383,-0.17018284,-0.30077574,-3.1633391,-1.2206612,-5.323342
0.51625216,-0.1648854,-0.2914132,-3.0648708,-1.1826645,-5.157637
0.50018233,-0.15975288,-0.28234214,-2.969468,-1.1458507,-4.9970913
0.4846128,-0.15478012,-0.27355346,-2.8770351,-1.1101829,-4.8415427
0.4695279,-0.14996217,-0.26503837,-2.7874796,-1.0756254,-4.6908364
0.4549126,-0.1452942,-0.25678834,-2.700712,-1.0421438,-4.5448217
0.44075227,-0.14077154,-0.24879514,-2.6166453,-1.0097044,-4.4033527
0.42703274,-0.13638967,-0.24105076,-2.5351956,-0.9782747,-4.266287
0.41374028,-0.1321442,-0.23354745,-2.4562812,-0.94782346,-4.133488
0.4008616,-0.1280309,-0.22627772,-2.3798234,-0.9183202,-4.004823
