ax,ay,az,gx,gy,gz
0.5309139,0.41364014,-10.040091,-1.6091055,47.663162,-6.380967
0.26222757,0.07980825,-11.321267,4.0432725,29.867996,-5.4637837
0.0831201,-0.16412006,-11.955556,9.876975,10.64932,-5.2169547
0.06742301,-0.36997387,-12.34858,15.183921,-6.1075954,-3.2075849
0.1796077,-0.6633758,-12.684087,25.362656,-20.883272,1.4355791
0.38272873,-0.968477,-12.980465,36.730545,-37.06301,11.733092
0.6586592,-1.1102798,-13.133688,38.40494,-53.629932,23.56988
1.0629685,-1.1421638,-13.221065,30.10423,-70.920654,36.692028
1.5233535,-1.1676658,-13.309874,20.146025,-86.40817,47.731735
1.988764,-1.2885184,-13.443643,15.438787,-100.6298,54.29121
2.4678478,-1.5218447,-13.556353,20.488825,-112.65514,57.26583
2.9602263,-1.847948,-13.61818,31.143917,-122.81569,60.14612
3.3555088,-2.081076,-13.633557,42.200718,-131.76878,64.733635
3.6227305,-2.1848962,-13.661142,52.966732,-140.45235,69.76205
3.7905087,-2.1373258,-13.655052,61.731094,-150.88068,74.715645
3.985752,-1.9491849,-13.391401,66.23725,-164.93893,80.598946
4.3395996,-1.4954548,-12.455963,65.58438,-179.46307,86.38691
4.7939353,-0.9408384,-11.087571,60.502426,-192.72836,91.47667
5.298732,-0.39231884,-9.44108,53.53189,-201.38661,94.51921
5.7676864,0.05772689,-7.656528,48.461704,-205.27327,94.690796
6.1813006,0.4433968,-5.8121037,46.85795,-202.83578,91.8787
6.5218163,0.83237696,-3.9361143,46.288723,-195.98074,87.78534
6.793458,1.2071776,-2.1753457,45.665092,-185.6446,82.995056
7.004138,1.5770072,-0.6055636,43.846943,-172.67548,77.94438
7.1502137,1.9176435,0.7019038,40.9191,-157.7696,72.63737
7.225475,2.1926227,1.7149506,38.427864,-140.64104,66.28247
7.2446346,2.3765755,2.4196274,35.8511,-122.76301,59.57408
7.2404265,2.493287,2.9052482,32.91195,-104.76278,52.983307
7.206603,2.5664403,3.2205083,29.728325,-87.282715,46.682785
7.1642046,2.615252,3.396183,26.68855,-70.47976,40.712124
7.1205864,2.6343753,3.4515471,24.203094,-54.302727,35.04229
7.0734444,2.6311455,3.3800342,21.596588,-39.040096,29.794403
7.0266824,2.6078076,3.2074237,18.851427,-24.990759,24.896498
6.976258,2.5431528,2.9294493,16.692017,-12.408864,20.315102
6.9062276,2.4518065,2.5640705,14.901288,-1.8958006,16.19352
6.815618,2.3479962,2.1472263,13.114578,5.460347,12.620026
6.7171054,2.2376685,1.7100291,11.563575,10.849604,9.210907
6.634697,2.116859,1.2795082,10.809808,14.9924,5.771386
6.5627966,1.9654285,0.83453184,12.004966,18.227556,2.2065008
6.4839683,1.808875,0.37934202,14.922621,20.13656,-1.7508085
6.4203925,1.6740859,-0.08710777,19.42955,20.6936,-5.5391216
6.394874,1.6157564,-0.49337935,24.427193,20.522726,-8.696774
6.3822193,1.627571,-0.81888133,28.036125,19.502094,-11.419569
6.371454,1.6540389,-1.1039059,28.99336,17.966064,-13.731384
6.3522925,1.6249517,-1.4176575,29.155647,16.448526,-15.863453
6.3194437,1.5432217,-1.7764622,29.374758,14.218364,-17.702541
6.266999,1.4105002,-2.1698592,29.970373,11.254362,-19.05496
6.1910634,1.2692446,-2.5766363,31.029547,7.443585,-19.994484
6.087994,1.1385183,-2.9953618,32.38137,2.5367696,-20.492687
5.961564,1.0300063,-3.423835,33.882618,-3.4407256,-20.720842
5.8213406,0.9534788,-3.8545043,34.438152,-10.81986,-20.491333
5.66322,0.8997975,-4.2735734,33.698177,-19.13191,-20.049414
5.4834485,0.8377671,-4.693983,32.690678,-28.412558,-19.964813
5.2899113,0.7532211,-5.1202455,32.67116,-38.664,-20.66706
5.115133,0.64077854,-5.495938,33.79882,-50.09314,-21.907291
5.013286,0.50152,-5.758466,36.365444,-62.7794,-22.662783
5.0761166,0.39157397,-5.7870264,37.228848,-76.27154,-21.39172
5.29946,0.34737733,-5.611625,35.288635,-90.356346,-18.328285
5.7069316,0.35494435,-5.1611247,32.165703,-103.36831,-15.669728
6.259857,0.3326338,-4.4322066,30.129911,-112.56601,-15.010203
6.851559,0.20804363,-3.5188303,30.154406,-115.26769,-16.033356
7.324124,-0.032023557,-2.5610025,31.061945,-115.00561,-16.451208
7.655737,-0.2594136,-1.6323069,31.233717,-112.6854,-14.998369
7.8478546,-0.42184493,-0.79031247,30.911482,-108.66822,-12.49362
7.9189644,-0.53513557,-0.07699851,30.4923,-103.162964,-9.746914
7.9002457,-0.6313301,0.49534595,30.953665,-95.79374,-7.2311373
7.812843,-0.7219833,0.9111578,31.771029,-87.467834,-4.659953
7.6989927,-0.8057357,1.2100745,32.267876,-78.827614,-1.779249
7.5661983,-0.8947849,1.3942537,32.371803,-70.20491,1.3262632
7.423339,-1.0003692,1.4889497,32.31269,-61.785088,4.534171
7.2796035,-1.1198204,1.5158877,32.05343,-53.34264,7.913098
7.1278553,-1.2556887,1.4544622,31.882324,-44.997925,11.373952
6.9770274,-1.385224,1.3377825,31.77889,-36.68677,14.923916
6.824951,-1.4953327,1.1707444,31.976988,-28.521618,18.544706
6.672862,-1.5751534,0.9741843,32.162785,-20.813969,22.284487
6.518629,-1.6229639,0.7564933,32.688225,-13.9901285,26.048662
6.3546014,-1.6150618,0.52307975,33.455082,-8.164565,29.587767
6.200458,-1.5640535,0.29466984,34.53626,-3.212826,32.876816
6.06053,-1.4390635,0.0883123,35.42442,0.87142384,36.01677
5.9358187,-1.2206331,-0.09837684,35.85663,4.0672174,38.8973
5.830067,-0.89423615,-0.25251198,35.190403,6.15804,41.132973
5.742329,-0.4357174,-0.36658067,33.325558,7.566627,42.49541
5.6595197,0.061665133,-0.46524793,31.11938,8.801293,42.519905
5.570062,0.5688042,-0.5724756,29.166275,10.034728,40.96633
5.47684,1.0697856,-0.6947747,27.572979,11.004293,37.817165
5.3977146,1.5555027,-0.8206682,25.541903,11.827838,32.970955
5.3245673,1.9953663,-0.97210693,23.418583,12.533169,27.045828
5.2439957,2.3910341,-1.148456,21.460588,12.810114,20.08807
5.160596,2.763449,-1.3266858,19.251064,12.477357,12.366224
5.088089,3.0930007,-1.4919174,16.41741,11.476144,3.7497745
5.0309153,3.3479347,-1.6485832,13.572366,10.170204,-5.8187704
4.987266,3.4955828,-1.7969939,11.044961,8.649553,-15.712724
4.9508214,3.5654633,-1.9284337,8.662583,6.8828173,-25.49968
4.927984,3.5667944,-2.027396,6.439596,4.7269745,-34.862415
4.9333963,3.5104625,-2.0819387,3.7656214,2.081767,-43.46911
4.9742565,3.3692544,-2.1018298,0.23891775,-1.004817,-51.233322
5.0585656,3.0103447,-2.1050866,-2.7643485,-3.9214926,-58.099995
5.162345,2.5063188,-2.0827992,-4.2689137,-6.404767,-63.643787
5.2677927,1.9338332,-2.030873,-4.787772,-8.327306,-67.20876
5.3528647,1.3407862,-1.976239,-4.6191483,-10.029166,-68.71477
5.4258595,0.7705783,-1.9158587,-3.9792488,-12.054942,-67.73719
5.49656,0.29945132,-1.8040423,-4.1389627,-14.070405,-65.313255
5.544403,-0.11041958,-1.6652678,-4.331779,-15.645256,-62.23567
5.557906,-0.4676856,-1.5091879,-4.1527405,-16.50767,-58.757465
5.5266066,-0.76954836,-1.3574129,-3.7754948,-16.65536,-54.775032
5.4474854,-1.011455,-1.2299321,-3.0444343,-16.398478,-50.30997
5.327229,-1.1653152,-1.1133429,-2.3477123,-16.09062,-45.64024
5.194176,-1.2603245,-0.9917352,-2.2211642,-15.832372,-40.684635
5.032167,-1.2210143,-0.96080244,-2.1518848,-15.3385515,-39.41566
4.875231,-1.182935,-0.9308382,-2.0847747,-14.860193,-38.18642
4.7232065,-1.1460476,-0.90181196,-2.0197654,-14.396809,-36.995655
4.575939,-1.1103144,-0.8736939,-1.9567901,-13.947923,-35.842148
4.4332786,-1.0756989,-0.84645534,-1.8957846,-13.513079,-34.724724
4.2950788,-1.0421659,-0.8200686,-1.836687,-13.091832,-33.64224
4.1611996,-1.0096811,-0.7945067,-1.7794367,-12.683755,-32.593597
4.0315046,-0.9782117,-0.7697438,-1.7239757,-12.288431,-31.57773
3.9058619,-0.94772553,-0.7457546,-1.6702477,-11.90546,-30.593605
3.7841442,-0.91819173,-0.72251475,-1.618198,-11.534452,-29.64022
3.6662278,-0.8895803,-0.70000076,-1.5677739,-11.175032,-28.716614
3.5519936,-0.86186224,-0.67818975,-1.5189244,-10.826834,-27.821846
3.4413257,-0.8350096,-0.65705967,-1.4715999,-10.489507,-26.955011
3.334112,-0.80899507,-0.6365891,-1.4257525,-10.162708,-26.115234
3.2302442,-0.7837924,-0.61675745,-1.381336,-9.846109,-25.301666
3.1296175,-0.7593761,-0.59754455,-1.3383055,-9.539389,-24.513483
3.03213,-0.73572165,-0.5789311,-1.2966173,-9.242237,-23.74989
2.9376838,-0.71280503,-0.56089824,-1.2562296,-8.954356,-23.010117
2.8461833,-0.69060314,-0.5434279,-1.2171017,-8.675453,-22.293417
2.7575364,-0.6690937,-0.5265023,-1.179194,-8.405248,-21.599068
2.6716535,-0.64825493,-0.51010454,-1.1424682,-8.143469,-20.92637
2.5884485,-0.62806594,-0.49421805,-1.1068877,-7.8898516,-20.274647
2.5078375,-0.6085063,-0.4788268,-1.0724163,-7.644141,-19.643242
2.4297395,-0.58955646,-0.46391538,-1.0390195,-7.4060903,-19.03152
2.3540757,-0.5711973,-0.4494687,-1.0066637,-7.1754594,-18.438866
2.28077,-0.5534103,-0.4354723,-0.97531635,-6.952017,-17.864681
2.2097492,-0.5361776,-0.42191213,-0.94494593,-6.7355375,-17.308392
2.1409414,-0.51948196,-0.4087745,-0.9155219,-6.5258045,-16.769438
2.0742776,-0.5033065,-0.39604625,-0.8870148,-6.3226066,-16.247278
2.009691,-0.4876351,-0.3837146,-0.85939586,-6.12574,-15.741388
1.9471166,-0.47245196,-0.37176713,-0.8326375,-5.9350076,-15.25126
1.8864918,-0.45774186,-0.3601919,-0.80671275,-5.7502165,-14.7764015
1.8277556,-0.44348997,-0.3489773,-0.7815956,-5.5711827,-14.316336
1.7708491,-0.42968208,-0.338112,-0.7572609,-5.397726,-13.870602
1.7157152,-0.4163043,-0.32758516,-0.73368424,-5.2296724,-13.438752
1.6622986,-0.4033432,-0.31738624,-0.7108419,-5.0668535,-13.020354
1.6105458,-0.3907858,-0.30750495,-0.6887111,-4.909106,-12.614988
1.5604049,-0.37861952,-0.29793143,-0.6672695,-4.756271,-12.222247
1.5118256,-0.36683214,-0.2886561,-0.64649576,-4.6081963,-11.841739
1.4647592,-0.3554119,-0.2796696,-0.62636894,-4.4647336,-11.47308
1.4191586,-0.34434727,-0.27096298,-0.606869,-4.3257384,-11.115902
1.3749781,-0.33362722,-0.2625275,-0.5879762,-4.1910715,-10.769847
1.3321733,-0.323241,-0.25435472,-0.5696718,-4.0605984,-10.434568
1.2907015,-0.3131782,-0.24643642,-0.5519374,-3.9341881,-10.109731
1.2505212,-0.30342877,-0.23876467,-0.53475523,-3.8117142,-9.795009
1.2115918,-0.2939829,-0.23133183,-0.51810807,-3.693054,-9.490086
1.1738747,-0.28483114,-0.22413042,-0.50197923,-3.5780885,-9.194657
1.1373321,-0.27596435,-0.21715325,-0.48635262,-3.4667025,-8.908427
1.1019272,-0.26737362,-0.21039331,-0.47121257,-3.358785,-8.63111
1.0676246,-0.2590504,-0.20384385,-0.45654392,-3.2542272,-8.362427
1.0343901,-0.2509863,-0.1974983,-0.44233197,-3.152925,-8.102109
1.0021902,-0.24317329,-0.19135033,-0.4285625,-3.0547767,-7.849897
0.970993,-0.23560353,-0.18539377,-0.41522172,-2.9596841,-7.6055365
0.940767,-0.22826943,-0.17962265,-0.4022963,-2.8675523,-7.368784
0.911482,-0.22116368,-0.17403121,-0.3897733,-2.7782888,-7.1394024
0.88310874,-0.21427913,-0.16861385,-0.37764016,-2.6918044,-6.917162
0.85561883,-0.20760892,-0.16336514,-0.36588475,-2.6080122,-6.701841
0.82898474,-0.20114638,-0.15827984,-0.35449532,-2.5268288,-6.4932227
0.8031798,-0.19488503,-0.15335284,-0.34346047,-2.4481728,-6.291099
0.7781782,-0.18881859,-0.14857922,-0.33276916,-2.3719654,-6.0952682
0.75395495,-0.18294102,-0.14395423,-0.32241064,-2.2981305,-5.905534
0.7304858,-0.17724642,-0.13947321,-0.31237462,-2.2265942,-5.721706
0.7077472,-0.17172909,-0.13513169,-0.30265105,-2.1572847,-5.5436006
0.6857165,-0.16638352,-0.13092533,-0.29323015,-2.090133,-5.37104
0.66437167,-0.16120437,-0.1268499,-0.28410253,-2.0250716,-5.203851
0.64369124,-0.15618643,-0.12290135,-0.27525905,-1.9620357,-5.041867
0.6236546,-0.1513247,-0.11907571,-0.26669085,-1.900962,-4.884925
0.6042417,-0.14661433,-0.11536916,-0.25838938,-1.8417895,-4.7328687
0.5854331,-0.14205056,-0.111778,-0.25034636,-1.784459,-4.585546
0.56721,-0.13762888,-0.10829862,-0.2425537,-1.7289132,-4.442809
0.5495542,-0.13334484,-0.10492756,-0.2350036,-1.6750965,-4.304516
0.532448,-0.12919416,-0.101661436,-0.22768854,-1.622955,-4.170527
