ax,ay,az,gx,gy,gz
-3.114574,2.7800252,-4.3500395,63.920578,98.54453,49.604996
-3.8899887,3.4160967,-4.901769,73.655,74.914375,33.90922
-4.21639,3.6791224,-4.927374,72.870674,53.781467,21.984327
-4.0628,3.7635512,-4.5938544,64.75856,42.004883,17.678326
-3.6019285,3.782976,-4.2653656,56.159973,34.680443,18.75438
-2.836384,4.0912876,-3.7297797,48.320557,34.284515,21.579891
-2.3018155,4.724385,-3.4821794,39.7861,34.32184,24.310278
-2.1250272,5.492656,-3.5424764,29.724163,31.105572,24.116217
-2.1518936,6.226495,-3.7559183,21.345764,20.986784,18.680767
-1.8912178,6.770433,-3.7042782,8.545243,11.468429,11.54863
-1.4889945,6.9249496,-3.4180837,-1.947129,6.5274105,5.877154
-1.2180432,7.0534945,-3.165217,-11.423191,4.4716744,1.8108836
-1.0985117,7.213467,-2.9505942,-22.20163,4.470418,-2.4493105
-1.0422436,7.2736406,-2.7958992,-32.746185,6.3662806,-8.0434265
-1.1380181,7.2205033,-2.838394,-39.40614,4.2679615,-15.746397
-1.2168236,7.0066614,-2.866532,-46.41029,0.40148598,-22.51632
-1.1415541,6.5921946,-2.8020265,-52.567516,-2.988589,-28.10493
-0.9831879,6.059918,-2.6741455,-57.950127,-4.7623034,-32.57598
-0.8054453,5.4770093,-2.5630257,-62.91871,-4.9394364,-36.260258
-0.6614919,4.85806,-2.5126493,-65.9087,-5.5321417,-39.477604
-0.51767087,4.214152,-2.4385676,-67.71303,-6.546756,-41.406708
-0.39443865,3.6110785,-2.3366175,-68.813965,-7.6608386,-41.86786
-0.3123793,3.0642931,-2.2278733,-68.870834,-8.950133,-41.362026
-0.2404695,2.5760515,-2.092675,-67.99509,-9.602705,-40.53301
-0.1760063,2.1415465,-1.9479351,-65.70449,-9.04938,-39.97749
-0.13585536,1.7496601,-1.8324243,-63.258095,-7.828967,-39.307137
-0.11595988,1.383875,-1.7397844,-61.41013,-6.4128656,-37.82583
-0.090000555,1.0520185,-1.6472139,-59.96216,-4.581074,-35.3799
-0.050683193,0.7660304,-1.552378,-58.681,-2.2468786,-32.076862
-0.019887486,0.54023653,-1.4727228,-57.482063,0.5784351,-27.518602
-0.019063849,0.5178627,-1.41173,-55.101448,0.5544793,-26.378923
-0.018288158,0.49679133,-1.354288,-52.85942,0.53191805,-25.305588
-0.017556254,0.4769094,-1.3000885,-50.74395,0.5106303,-24.292841
-0.016864462,0.45811713,-1.2488594,-48.744423,0.4905093,-23.3356
-0.016209528,0.44032606,-1.2003598,-46.851425,0.4714603,-22.429358
-0.0155885555,0.42345756,-1.1543751,-45.056587,0.45339906,-21.570108
-0.014998959,0.4074414,-1.1107138,-43.35244,0.43625045,-20.754276
-0.014438425,0.39221472,-1.0692048,-41.732296,0.41994712,-19.978659
-0.013904874,0.37772098,-1.029694,-40.19014,0.40442857,-19.240376
-0.013396433,0.36390933,-0.9920424,-38.720554,0.38964036,-18.536837
-0.012911405,0.35073376,-0.95612484,-37.318653,0.37553316,-17.8657
-0.012448261,0.3381526,-0.9218277,-35.979996,0.3620624,-17.224838
-0.012005601,0.3261279,-0.88904756,-34.70055,0.3491875,-16.612324
-0.0115821585,0.31462523,-0.85769045,-33.476646,0.3368715,-16.0264
-0.011176772,0.30361307,-0.8276705,-32.30493,0.3250807,-15.465461
-0.01078838,0.29306254,-0.798909,-31.182339,0.31378415,-14.928038
-0.010416009,0.28294718,-0.77133393,-30.10605,0.3029536,-14.412783
-0.0100587625,0.2732427,-0.7448788,-29.073477,0.29256293,-13.918455
-0.009715815,0.26392668,-0.71948266,-28.082235,0.28258818,-13.443913
-0.009386405,0.25497836,-0.6950889,-27.13012,0.27300718,-12.988105
-0.009069827,0.24637863,-0.67164546,-26.215096,0.26379937,-12.550051
-0.008765427,0.23810974,-0.6491038,-25.33527,0.2549458,-12.128849
-0.008472599,0.23015516,-0.6274191,-24.48889,0.24642879,-11.723659
-0.008190778,0.22249958,-0.6065495,-23.674324,0.2382319,-11.333698
-0.007919436,0.21512869,-0.58645594,-22.890049,0.23033984,-10.95824
-0.0076580844,0.20802915,-0.5671021,-22.134645,0.2227383,-10.596602
-0.0074062613,0.20118846,-0.54845387,-21.406784,0.21541393,-10.248151
-0.0071635367,0.19459493,-0.53047943,-20.705223,0.2083542,-9.91229
-0.0069295075,0.18823762,-0.51314896,-20.028793,0.20154737,-9.58846
-0.006703794,0.18210618,-0.49643424,-19.3764,0.19498241,-9.276136
-0.0064860396,0.17619096,-0.48030892,-18.74701,0.18864894,-8.974827
-0.0062759076,0.17048281,-0.4647481,-18.139652,0.18253717,-8.684064
-0.006073082,0.16497311,-0.44972828,-17.553411,0.1766379,-8.403411
-0.005877262,0.15965374,-0.4352273,-16.987423,0.17094241,-8.132452
-0.0056881653,0.154517,-0.42122418,-16.440865,0.16544245,-7.8707967
-0.0055055236,0.1495556,-0.40769905,-15.912963,0.16013025,-7.6180725
-0.0053290823,0.14476264,-0.3946331,-15.402984,0.15499839,-7.3739285
-0.005158601,0.14013156,-0.3820085,-14.910231,0.15003988,-7.1380305
-0.00499385,0.13565616,-0.36980823,-14.43404,0.14524803,-6.9100623
-0.0048346114,0.1313305,-0.3580162,-13.9737835,0.14061652,-6.689722
-0.0046806787,0.12714897,-0.34661704,-13.528862,0.13613932,-6.4767227
-0.004531854,0.1231062,-0.33559614,-13.098703,0.1318107,-6.2707915
-0.004387948,0.119197056,-0.32493955,-12.682764,0.12762515,-6.071667
-0.0042487825,0.115416676,-0.31463397,-12.280525,0.12357746,-5.8791018
-0.0041141855,0.111760385,-0.30466667,-11.89149,0.11966265,-5.6928577
-0.0039839926,0.108223744,-0.29502553,-11.515185,0.115875944,-5.512708
-0.003858047,0.10480248,-0.28569892,-11.151157,0.11221277,-5.338435
-0.0037361989,0.10149252,-0.27667573,-10.798971,0.10866877,-5.169832
-0.003618304,0.098289944,-0.2679453,-10.458213,0.10523975,-5.0066996
-0.0035042248,0.095191024,-0.25949743,-10.128483,0.101921715,-4.8488464
-0.0033938293,0.09219217,-0.25132233,-9.8094,0.09871082,-4.6960907
-0.0032869903,0.089289926,-0.24341062,-9.500596,0.09560337,-4.548256
-0.0031835863,0.086481,-0.23575327,-9.201721,0.09259582,-4.4051743
-0.0030835003,0.08376219,-0.22834162,-8.9124365,0.089684784,-4.266684
-0.00298662,0.081130475,-0.22116736,-8.632417,0.08686698,-4.1326294
-0.0028928372,0.0785829,-0.21422249,-8.36135,0.08413927,-4.0028605
-0.002802048,0.076116644,-0.20749931,-8.098937,0.08149864,-3.8772345
-0.0027141527,0.07372899,-0.20099042,-7.8448873,0.078942165,-3.7556124
-0.0026290547,0.07141734,-0.19468868,-7.598923,0.07646706,-3.637861
-0.0025466615,0.06917916,-0.18858725,-7.360777,0.074070625,-3.5238523
-0.002466884,0.06701203,-0.18267949,-7.1301904,0.07175026,-3.4134629
-0.0023896357,0.0649136,-0.17695904,-6.9069147,0.069503464,-3.3065734
-0.0023148337,0.06288164,-0.17141975,-6.6907105,0.06732782,-3.203069
-0.0022423984,0.060913958,-0.16605572,-6.481346,0.06522101,-3.1028392
-0.0021722526,0.05900847,-0.16086122,-6.278599,0.0631808,-3.0057771
-0.0021043215,0.05716315,-0.15583076,-6.0822535,0.061204996,-2.91178
-0.0020385338,0.055376045,-0.15095899,-5.8921027,0.05929153,-2.8207486
-0.0019748197,0.053645276,-0.14624079,-5.7079463,0.057438385,-2.7325866
-0.0019131126,0.051969025,-0.14167121,-5.52959,0.055643607,-2.6472015
-0.0018533478,0.050345533,-0.13724546,-5.3568482,0.053905327,-2.5645041
-0.0017954628,0.04877311,-0.13295892,-5.1895394,0.05222172,-2.4844077
-0.0017393974,0.047250114,-0.12880713,-5.02749,0.050591037,-2.4068294
-0.0016850933,0.045774963,-0.12478576,-4.8705316,0.04901158,-2.331688
-0.0016324943,0.044346128,-0.120890655,-4.7185016,0.04748172,-2.258906
-0.0015815458,0.04296213,-0.117117785,-4.571242,0.045999862,-2.188408
-0.0015321955,0.041621547,-0.11346325,-4.4286013,0.04456449,-2.120121
-0.0014843922,0.04032299,-0.109923296,-4.2904325,0.043174114,-2.0539749
-0.001438087,0.039065123,-0.10649427,-4.156594,0.04182731,-1.9899018
-0.0013932323,0.037846662,-0.10317265,-4.0269475,0.04052269,-1.9278356
-0.001349782,0.036666352,-0.099955045,-3.9013605,0.039258927,-1.867713
-0.0013076918,0.035522986,-0.096838154,-3.7797043,0.038034715,-1.8094721
-0.0012669186,0.034415398,-0.093818784,-3.661855,0.036848813,-1.7530537
-0.0012274209,0.03334245,-0.090893865,-3.547692,0.035700005,-1.6984
-0.0011891582,0.03230306,-0.08806041,-3.437099,0.03458712,-1.6454554
-0.0011520917,0.03129616,-0.08531553,-3.3299634,0.033509023,-1.5941659
-0.0011161836,0.030320732,-0.08265644,-3.226176,0.032464627,-1.5444794
-0.0010813975,0.02937578,-0.08008044,-3.1256316,0.03145286,-1.4963454
-0.0010476981,0.028460348,-0.07758491,-3.028228,0.0304727,-1.449715
-0.0010150512,0.027573505,-0.07516731,-2.9338665,0.029523151,-1.404541
-0.0009834237,0.026714355,-0.07282521,-2.8424516,0.028603252,-1.3607775
-0.0009527835,0.025882026,-0.07055622,-2.7538905,0.027712071,-1.3183804
-0.00092309975,0.025075678,-0.068358056,-2.6680937,0.02684871,-1.2773066
-0.00089434243,0.024294494,-0.066228494,-2.5849745,0.02601229,-1.2375145
-0.0008664824,0.023537686,-0.06416538,-2.504449,0.02520197,-1.1989641
-0.0008394915,0.02280449,-0.06216664,-2.4264355,0.024416931,-1.1616166
-0.00081334263,0.022094164,-0.06023024,-2.3508556,0.02365638,-1.1254339
-0.0007880093,0.021405993,-0.05835424,-2.2776332,0.02291955,-1.0903798
-0.00076346606,0.020739285,-0.056536745,-2.2066941,0.022205701,-1.056419
-0.0007396881,0.020093365,-0.054775923,-2.1379673,0.02151411,-1.0235171
-0.0007166515,0.019467585,-0.05307,-2.0713832,0.020844083,-0.99164104
-0.0006943331,0.018861314,-0.051417265,-2.006875,0.020194944,-0.9607588
-0.0006727105,0.018273942,-0.04981605,-1.9443777,0.01956604,-0.93083924
-0.0006517618,0.017704878,-0.048264742,-1.8838284,0.018956741,-0.90185225
-0.00063146604,0.017153552,-0.046761785,-1.8251662,0.01836643,-0.8737687
-0.0006118028,0.016619407,-0.045305666,-1.7683322,0.017794518,-0.84656036
-0.0005927523,0.016101906,-0.043894924,-1.7132695,0.017240426,-0.8201999
-0.0005742954,0.015600531,-0.042528145,-1.6599224,0.016703602,-0.79466087
-0.0005564136,0.015114779,-0.04120395,-1.6082375,0.016183503,-0.7699176
-0.000539089,0.014644161,-0.03992101,-1.5581629,0.015679609,-0.7459452
-0.00052230404,0.014188205,-0.038678043,-1.5096484,0.0151914125,-0.72271967
-0.00050604204,0.0137464525,-0.037473794,-1.4626453,0.014718425,-0.70021766
-0.0004902866,0.013318461,-0.036307063,-1.4171064,0.014260173,-0.67841667
-0.00047502195,0.012903803,-0.035176672,-1.372986,0.013816195,-0.65729475
-0.00046023275,0.012502059,-0.034081493,-1.3302398,0.013386045,-0.6368307
-0.0004459042,0.01211283,-0.03302042,-1.2888252,0.012969294,-0.6170041
-0.00043202192,0.011735722,-0.031992402,-1.2487003,0.012565522,-0.59779495
-0.000418572,0.01137036,-0.030996399,-1.2098252,0.012174326,-0.5791841
-0.00040554095,0.011016376,-0.030031415,-1.1721606,0.011795313,-0.5611529
-0.00039291574,0.010673417,-0.029096482,-1.1356692,0.011428104,-0.5436832
-0.0003806837,0.010341137,-0.028190665,-1.1003141,0.01107233,-0.5267575
-0.00036883252,0.0100192055,-0.027313055,-1.06606,0.010727635,-0.5103589
-0.00035735042,0.009707298,-0.026462775,-1.0328726,0.010393674,-0.49447095
-0.00034622586,0.0094051035,-0.025638971,-1.0007186,0.010070112,-0.47907776
-0.00033544772,0.009112318,-0.024840819,-0.96956575,0.009756625,-0.46416384
-0.00032500515,0.00882865,-0.02406752,-0.939383,0.009452899,-0.44971433
-0.00031488776,0.008553814,-0.023318298,-0.91014,0.00915863,-0.43571472
-0.00030508536,0.008287536,-0.022592403,-0.8818075,0.008873524,-0.42215103
-0.00029558816,0.0080295475,-0.021889111,-0.8543572,0.008597295,-0.40900964
-0.00028638667,0.0077795926,-0.021207716,-0.82776153,0.008329666,-0.3962774
-0.00027747167,0.00753742,-0.020547535,-0.8019939,0.008070369,-0.38394156
-0.00026883424,0.0073027867,-0.019907909,-0.77702856,0.007819146,-0.37198982
-0.0002604657,0.0070754583,-0.019288195,-0.75284046,0.0075757443,-0.36041015
-0.0002523577,0.0068552075,-0.018687777,-0.72940546,0.0073399204,-0.349191
-0.00024450215,0.006641814,-0.01810605,-0.7067,0.007111438,-0.33832115
-0.00023689114,0.0064350637,-0.017542435,-0.68470144,0.006890069,-0.3277897
-0.00022951709,0.00623475,-0.016996367,-0.6633877,0.0066755917,-0.3175861
-0.00022237259,0.006040673,-0.016467297,-0.64273757,0.0064677917,-0.30770016
-0.00021545052,0.005852637,-0.0159547,-0.62273026,0.0062664608,-0.298122
-0.00020874394,0.0056704553,-0.015458059,-0.6033458,0.006071397,-0.28884202
-0.00020224614,0.005493945,-0.01497688,-0.5845648,0.005882406,-0.2798509
-0.00019595063,0.0053229295,-0.014510679,-0.5663685,0.005699299,-0.2711397
-0.0001898511,0.0051572374,-0.014058992,-0.5487386,0.0055218916,-0.2626997
-0.00018394143,0.004996704,-0.013621366,-0.5316576,0.0053500067,-0.2545224
-0.00017821575,0.0048411675,-0.013197363,-0.5151082,0.005183473,-0.2465997
-0.0001726683,0.0046904734,-0.012786559,-0.4990741,0.0050221235,-0.23892362
-0.00016729355,0.00454447,-0.012388543,-0.4835391,0.0048657963,-0.2314865
-0.0001620861,0.0044030114,-0.012002918,-0.4684877,0.004714336,-0.22428088
-0.00015704076,0.0042659566,-0.0116292965,-0.45390484,0.00456759,-0.21729957
-0.00015215247,0.004133168,-0.011267306,-0.4397759,0.0044254125,-0.21053557
-0.00014741636,0.004004513,-0.010916583,-0.4260868,0.004287661,-0.20398214
