ax,ay,az,gx,gy,gz
-3.4409404,0.81818926,-6.9773364,-33.45849,-8.822807,-35.289413
-3.8855126,0.41262567,-7.934875,-35.808666,-20.381035,-38.33765
-4.3911014,-0.062630415,-8.925742,-30.43,-42.138817,-40.60348
-4.612872,-0.7875963,-9.662187,-28.673262,-72.13612,-33.27823
-4.574225,-1.4810157,-10.162325,-31.517994,-99.04099,-22.70189
-4.430874,-2.1363533,-10.467435,-31.019043,-119.93244,-16.086449
-4.2724643,-3.0300608,-10.740267,-24.274603,-133.64433,-13.703411
-4.0110216,-4.037138,-11.023232,-12.963486,-144.8837,-10.539349
-3.6450748,-4.7194314,-11.191844,0.9620111,-156.66714,-3.782552
-3.0680723,-4.782649,-10.946759,13.933597,-166.62894,1.8318967
-2.3672884,-4.5873632,-10.443469,26.058208,-174.37126,6.130124
-1.5573376,-4.2140303,-9.717674,35.539345,-179.8878,10.765757
-0.6982473,-3.7618892,-8.836591,42.83342,-182.8369,16.518036
0.1017492,-3.2186694,-7.8642764,47.68686,-182.91205,22.84301
0.7454451,-2.5625014,-6.8963003,51.051174,-181.23863,28.045668
1.2999388,-1.8679924,-5.975286,52.956303,-178.43994,31.51432
1.8069425,-1.222894,-5.092755,53.730007,-174.24274,33.888058
2.2630773,-0.6229956,-4.267074,53.40303,-168.7747,35.597862
2.6625047,-0.07626755,-3.525069,51.87529,-161.76895,36.423046
3.023581,0.4148898,-2.8631053,49.78491,-153.90553,36.216187
3.3416603,0.8171013,-2.2744339,47.499996,-145.0451,35.201557
3.5816898,1.1357799,-1.7916374,45.278915,-135.6905,33.56166
3.7483923,1.3768289,-1.415329,43.191265,-126.72436,31.77444
3.8843086,1.5382637,-1.0970415,41.208073,-117.59975,29.943165
3.977307,1.6415462,-0.8441562,39.235275,-108.51079,27.948853
4.0401955,1.7115308,-0.6320428,37.26119,-99.36794,25.475948
4.093364,1.7499601,-0.4510318,35.314117,-90.17223,22.666168
4.123181,1.7605664,-0.31603274,33.67161,-81.3139,19.705584
4.1428103,1.7445222,-0.1940313,32.095406,-72.573784,16.51771
4.1686897,1.6955433,-0.07353694,30.529612,-63.776833,13.468763
4.1918535,1.6358418,0.030975133,28.992222,-54.66444,10.5146475
4.1953588,1.5731871,0.09103324,27.715715,-45.652885,7.7325044
4.1649685,1.531278,0.11840605,26.396444,-37.174435,5.1440277
4.0975885,1.5073487,0.11957218,25.029217,-29.00914,2.468949
3.9955068,1.4789077,0.06696714,23.621084,-21.070293,-0.31487042
3.866079,1.4376523,-0.03328657,22.180735,-13.568821,-3.0244794
3.7149758,1.4013939,-0.16849066,20.621557,-6.7949953,-5.53023
3.5579042,1.3747706,-0.32831025,19.054848,-0.59225994,-7.8827953
3.3800874,1.3496138,-0.5272936,17.331228,4.7660503,-10.095064
3.1707454,1.3243974,-0.76558185,15.548128,9.372272,-12.178687
2.9473295,1.3024424,-1.0244312,13.89577,13.194022,-14.263565
2.7183528,1.288688,-1.3004434,12.401139,15.932596,-16.341986
2.4974775,1.2835429,-1.5822755,11.04424,17.662315,-18.269867
2.2932801,1.2936463,-1.8564228,9.451313,18.25781,-19.868645
2.1004503,1.3145193,-2.1357856,7.6486135,18.03535,-21.181332
1.9044105,1.3348647,-2.4277267,5.730606,17.058659,-22.320213
1.6951605,1.350229,-2.7386906,3.8748345,15.111038,-23.511145
1.4796274,1.3603733,-3.0588372,2.1635153,12.158164,-24.900717
1.2673343,1.372089,-3.377898,0.30637679,7.71907,-26.359524
1.0557927,1.3666273,-3.6928067,-1.7382144,2.1783903,-27.586916
0.8421711,1.3581407,-3.9988546,-3.7710857,-4.5935903,-28.680056
0.628746,1.3674997,-4.3022914,-5.647891,-12.844197,-29.868374
0.4197592,1.3993534,-4.604717,-7.808136,-23.164766,-31.610981
0.265262,1.4411529,-4.853764,-10.865738,-35.939713,-34.859447
0.42655185,1.2867398,-4.804412,-13.338527,-47.331722,-37.97297
0.8314277,1.0004613,-4.462669,-14.032364,-55.242695,-37.453
1.2039158,0.8453027,-4.0509477,-15.407368,-60.304234,-34.314747
1.3935751,0.78404033,-3.7248266,-16.926739,-63.99275,-32.344025
1.5842483,0.6854097,-3.4181962,-17.937052,-66.51422,-32.05307
1.8542036,0.4919465,-3.0690093,-18.54564,-67.894424,-31.166079
2.0983014,0.32891965,-2.7114441,-18.940474,-68.1633,-30.05856
2.3144803,0.20678353,-2.3575838,-18.965534,-67.38066,-29.009607
2.5041404,0.114586726,-2.0211325,-18.447294,-65.901306,-27.945833
2.6611636,0.03144307,-1.6985927,-17.273897,-63.197807,-26.873537
2.7495089,-0.04640078,-1.4273121,-15.818723,-60.11973,-26.0089
2.7979772,-0.12894039,-1.1926489,-14.321099,-56.89589,-25.501066
2.8371406,-0.23322652,-0.983579,-12.725682,-53.431377,-25.102419
2.8745015,-0.33766916,-0.7938231,-11.147043,-49.58009,-24.32279
2.8973205,-0.41841683,-0.6330572,-9.502566,-45.265697,-23.1035
2.8793898,-0.46014348,-0.52801996,-7.5627737,-41.08594,-22.11378
2.839514,-0.5071981,-0.44660506,-5.520482,-36.98323,-21.351383
2.7933621,-0.5759657,-0.38433,-3.5304432,-32.890526,-20.43963
2.7364154,-0.6505257,-0.3563123,-1.6042502,-28.969942,-19.211073
2.6754134,-0.71822137,-0.34593147,0.13461803,-25.192038,-17.542934
2.621736,-0.76579624,-0.34362108,1.6326988,-21.29067,-15.612451
2.5604167,-0.7998526,-0.35667077,2.9175856,-17.159632,-13.635042
2.4785578,-0.8200895,-0.4072618,4.5329537,-13.063024,-11.731787
2.3612728,-0.8147492,-0.49716997,6.706836,-10.026898,-10.046595
2.249308,-0.79219544,-0.57103425,8.713881,-7.6150784,-8.244674
2.1468627,-0.76163834,-0.63721114,10.704079,-5.4313917,-6.366352
2.0397234,-0.71020436,-0.6981009,12.741539,-3.487451,-4.4679356
1.9425209,-0.62639725,-0.73908514,14.598076,-1.5100615,-2.5615187
1.8547665,-0.51816726,-0.7730262,16.028212,0.6226425,-0.69717336
1.7641063,-0.39115196,-0.82559,17.351027,2.5564446,0.9269574
1.6518431,-0.22534934,-0.9068523,18.545198,3.7609708,2.29582
1.5496378,-0.02895669,-0.97860813,19.363878,4.208247,3.4407365
1.4789407,0.18009143,-1.0277994,19.796291,4.461195,4.3843703
1.4381012,0.41249603,-1.061307,19.732449,4.685033,5.2749667
1.4167149,0.67816925,-1.0946573,19.002777,5.1199036,5.5707555
1.381749,0.94859225,-1.1752105,18.135622,5.3496566,5.1130815
1.3474545,1.2075803,-1.2716578,16.948019,5.3465033,4.1919265
1.3096129,1.4501213,-1.3713415,15.138657,4.9707494,3.162352
1.2771641,1.6885808,-1.4411981,13.038889,4.3126826,1.8463482
1.2484331,1.9153029,-1.4744239,10.747706,3.5226374,0.21481435
1.2225497,2.1318562,-1.4679666,7.832078,2.6009972,-1.5236266
1.1983904,2.305515,-1.4424182,4.386261,1.6187394,-3.6347265
1.1770879,2.4134195,-1.3997309,0.8106485,0.82394296,-6.129539
1.1441739,2.4507558,-1.3613584,-2.7934284,-0.01637256,-8.856662
1.1040785,2.4048305,-1.3282254,-6.365974,-0.9637063,-11.6943035
1.0797405,2.2477944,-1.293605,-9.810825,-2.0471354,-14.471242
1.0789053,1.9986892,-1.254389,-12.693636,-2.983986,-16.953043
1.0916797,1.6946498,-1.2135643,-14.778743,-3.7351313,-18.794605
1.1045212,1.3825539,-1.1629702,-16.21144,-4.1844463,-19.938051
1.1042552,1.0848769,-1.1124663,-16.844702,-4.3662868,-20.502623
1.0694804,0.81745124,-1.0741584,-17.006655,-4.612891,-20.78851
1.0178854,0.5758878,-1.0351174,-16.75023,-4.941284,-20.802597
0.9655368,0.37368947,-0.988939,-16.214315,-5.2193847,-20.481102
0.9219722,0.22053307,-0.9321041,-15.573348,-5.328835,-19.861229
0.8823299,0.11590333,-0.87302595,-14.682129,-5.185457,-19.20176
0.823907,0.07258811,-0.8287713,-13.668435,-5.1227264,-18.612434
0.76419455,0.061655734,-0.78590184,-12.863464,-5.090492,-17.858852
0.7084395,0.06840124,-0.74721116,-12.283511,-5.051658,-16.913807
0.6593544,0.089993894,-0.712443,-11.9785595,-4.8580017,-15.730018
0.61015195,0.11954631,-0.68830115,-11.90195,-4.5220165,-14.46719
0.5596512,0.1551882,-0.66909075,-12.065564,-4.04433,-13.201978
0.513565,0.18884346,-0.6527249,-12.5740795,-3.3494668,-11.924944
0.46997848,0.2166477,-0.6428229,-13.325407,-2.4233472,-10.682109
0.4277535,0.23270753,-0.64678615,-14.2073345,-1.3720893,-9.499008
0.388343,0.2314079,-0.6642116,-15.06932,-0.4411629,-8.33385
0.3762428,0.22419757,-0.6435157,-14.599782,-0.42741692,-8.07418
0.36452034,0.21721233,-0.62346596,-14.144902,-0.41410005,-7.8226156
0.3531638,0.21044514,-0.60404205,-13.704222,-0.40119886,-7.5789037
0.3421617,0.20388913,-0.5852243,-13.277293,-0.3887003,-7.3427978
0.33150285,0.19753769,-0.5669937,-12.863687,-0.37659174,-7.114059
0.32117656,0.1913844,-0.5493319,-12.462984,-0.36486092,-6.8924565
0.3111724,0.18542308,-0.532221,-12.07478,-0.35349607,-6.6777673
0.30148026,0.17964767,-0.5156439,-11.698686,-0.34248567,-6.469774
0.2920904,0.17405239,-0.49958366,-11.334319,-0.33181864,-6.2682667
0.28299332,0.16863157,-0.4840243,-10.981315,-0.32148424,-6.0730433
0.27417988,0.16337977,-0.46895,-10.639317,-0.31147206,-5.8839064
0.26564118,0.1582917,-0.45434567,-10.307981,-0.301772,-5.7006664
0.2573687,0.15336224,-0.44019663,-9.986974,-0.29237434,-5.5231385
0.24935405,0.14858642,-0.42648858,-9.675972,-0.28326958,-5.351144
0.2415892,0.14395946,-0.4132078,-9.374664,-0.2744486,-5.18451
0.23406635,0.13947672,-0.40034088,-9.082746,-0.26590255,-5.0230694
0.22677793,0.13513364,-0.38787496,-8.799925,-0.2576228,-4.8666596
0.21971661,0.13092591,-0.37579748,-8.525916,-0.24960105,-4.7151237
0.2128753,0.12684928,-0.3640963,-8.260446,-0.24182923,-4.5683093
0.20624717,0.12289966,-0.3527597,-8.003246,-0.23429957,-4.4260693
0.19982551,0.11907309,-0.34177628,-7.7540593,-0.22700448,-4.2882605
0.19360392,0.115365736,-0.331135,-7.512635,-0.21993667,-4.1547446
0.18757613,0.11177386,-0.32082525,-7.2787323,-0.21308902,-4.0253882
0.1817361,0.10829388,-0.3108366,-7.052115,-0.20645468,-3.9000611
0.17607798,0.10492229,-0.3011591,-6.8325567,-0.20002697,-3.7786376
0.1705961,0.101655714,-0.29178306,-6.619837,-0.19379948,-3.6609964
0.16528495,0.09849088,-0.28269902,-6.413742,-0.18776594,-3.547019
0.16013922,0.095424615,-0.2738979,-6.2140665,-0.18192032,-3.4365914
0.15515374,0.092453845,-0.26537088,-6.0206094,-0.17625676,-3.329603
0.15032353,0.08957559,-0.25710937,-5.8331766,-0.17076956,-3.2259464
0.14564373,0.08678696,-0.24910519,-5.6515813,-0.16545326,-3.1255178
0.14110966,0.08408518,-0.24135023,-5.475641,-0.16030249,-3.0282168
0.13671678,0.08146753,-0.23383678,-5.3051786,-0.15531212,-2.9339457
0.1324607,0.07893139,-0.22655728,-5.140025,-0.15047716,-2.84261
0.12833714,0.07647423,-0.21950446,-4.980014,-0.14579274,-2.7541182
0.12434198,0.074093565,-0.21267124,-4.824985,-0.14125417,-2.668382
0.12047122,0.07178704,-0.20605078,-4.674783,-0.13685694,-2.5853152
0.116720974,0.06955232,-0.19963647,-4.5292583,-0.13259661,-2.504835
0.1130875,0.06738718,-0.19342187,-4.388264,-0.12846893,-2.4268603
0.10956715,0.06528946,-0.18740076,-4.25166,-0.124469765,-2.3513136
0.1061564,0.063257046,-0.1815671,-4.119309,-0.12059511,-2.2781188
0.102851845,0.06128791,-0.17591508,-3.9910786,-0.11684109,-2.2072031
0.099650174,0.05938008,-0.17043903,-3.8668404,-0.11320395,-2.1384952
0.096548185,0.057531647,-0.16513346,-3.7464702,-0.10968005,-2.0719264
0.09354276,0.055740763,-0.15999307,-3.6298475,-0.10626585,-2.00743
0.09063091,0.054005634,-0.15501271,-3.5168555,-0.10295794,-1.9449415
0.08780971,0.05232452,-0.1501874,-3.4073813,-0.09975302,-1.8843985
0.08507634,0.050695743,-0.14551233,-3.301315,-0.09664787,-1.8257402
0.08242806,0.049117673,-0.14098278,-3.198551,-0.093639396,-1.7689081
0.07986223,0.047588732,-0.13659424,-3.098986,-0.09072457,-1.7138453
0.07737627,0.046107385,-0.13234232,-3.0025203,-0.08790049,-1.6604966
0.074967705,0.044672154,-0.12822278,-2.9090579,-0.08516432,-1.6088086
0.072634116,0.043281604,-0.124231465,-2.818505,-0.08251334,-1.5587298
0.07037317,0.04193434,-0.12036441,-2.730771,-0.07994487,-1.5102099
0.06818261,0.040629018,-0.11661773,-2.6457682,-0.07745637,-1.4632004
0.06606024,0.03936433,-0.11298769,-2.5634115,-0.07504533,-1.4176544
0.064003944,0.03813901,-0.10947065,-2.4836185,-0.072709344,-1.3735261
0.06201165,0.036951836,-0.10606309,-2.4063094,-0.070446074,-1.3307716
0.06008138,0.035801616,-0.10276161,-2.331407,-0.068253264,-1.2893479
0.0582112,0.034687202,-0.0995629,-2.258836,-0.06612871,-1.2492137
0.056399234,0.033607475,-0.096463755,-2.1885242,-0.06407029,-1.2103289
