ax,ay,az,gx,gy,gz
-0.4700043,1.2527387,-1.100919,25.412958,125.62296,-54.821407
-0.6153247,0.8931306,-1.2057804,5.2779603,126.37294,-51.675102
-0.43974066,0.5906051,-1.3263922,-15.718117,132.41875,-43.792408
-0.69881064,0.17771132,-2.016164,-24.540955,135.78735,-36.98641
-1.2576238,-0.03769189,-3.093038,-22.420496,133.1773,-30.423277
-1.7614373,-0.16682501,-3.8489895,-18.124296,124.591965,-25.62088
-1.9730394,-0.29872996,-4.385503,-14.378805,114.28364,-20.796717
-2.2320313,-0.3544338,-5.014145,-10.738798,103.84149,-17.554325
-2.5534518,-0.38507712,-5.6715918,-7.0063024,92.75721,-16.761017
-2.8476079,-0.47502097,-6.290089,-5.2604136,79.720406,-17.62773
-3.1247654,-0.6704307,-6.8990755,-4.285835,63.94985,-18.294859
-3.35895,-0.8999918,-7.4371815,-2.6914127,45.283916,-17.849287
-3.518966,-1.1194079,-7.858682,-0.7631369,26.989468,-16.002472
-3.6021495,-1.3605118,-8.179718,1.5485213,10.039373,-12.395554
-3.668168,-1.5440706,-8.425191,4.355925,-5.901885,-7.9724092
-3.7272284,-1.6149116,-8.61671,7.816935,-21.63968,-4.670663
-3.7150698,-1.6107844,-8.720556,12.147546,-38.227634,-3.4966497
-3.4258204,-1.5862286,-8.545386,16.164793,-54.051456,-2.3477585
-2.9197018,-1.5143676,-8.154935,19.377161,-67.602196,0.0787301
-2.3339624,-1.3385645,-7.62045,20.849855,-78.42785,3.152402
-1.7670616,-1.1188122,-7.0142426,21.612038,-86.68632,5.606775
-1.2400703,-0.88815117,-6.375825,21.817642,-92.07954,7.228903
-0.65108615,-0.6471559,-5.6454353,21.779428,-95.11318,8.503123
-0.03720315,-0.42367592,-4.886778,21.315844,-95.91538,9.698073
0.51960474,-0.23036842,-4.173626,20.337627,-94.719604,11.086535
0.9785864,-0.047919795,-3.5353863,18.745556,-92.556656,12.405806
1.381823,0.09278637,-2.932771,16.925896,-88.77385,13.317524
1.7206451,0.1954521,-2.4000945,15.233104,-83.87931,13.526465
2.0104804,0.2591672,-1.9340531,14.143411,-77.98303,12.610175
2.2525856,0.2736784,-1.5402011,13.626349,-71.492485,10.983195
2.4525955,0.2575813,-1.2164109,13.304666,-64.77791,9.206321
2.6255813,0.21320654,-0.9406849,13.195429,-57.500546,7.6918197
2.755305,0.17305756,-0.7184227,13.146107,-50.09906,6.331204
2.8554587,0.15548098,-0.531354,13.183655,-42.694366,4.970606
2.9426646,0.16971481,-0.3717277,13.349571,-34.96122,3.3696024
2.9868479,0.1884972,-0.25979888,13.6308155,-26.955679,1.4120599
2.9866266,0.20307782,-0.21702941,13.823981,-18.91602,-0.716698
2.9336853,0.20961493,-0.25559568,13.756713,-11.386706,-2.7176917
2.873204,0.22466925,-0.32730052,13.1852,-4.3145485,-4.3359356
2.8055863,0.25301978,-0.43307424,12.042477,2.5274343,-5.3423734
2.7204819,0.30327252,-0.5833612,10.38225,9.167028,-5.880412
2.590109,0.35674646,-0.7967451,8.875729,14.900619,-6.7882576
2.4297657,0.3954447,-1.0420464,7.3837504,19.833647,-7.966313
2.2502122,0.40798527,-1.2994837,5.6357923,23.768957,-8.970522
2.0639298,0.40711075,-1.5584737,3.5992002,26.85282,-9.5580635
1.8814605,0.4139179,-1.803305,1.5270914,28.98449,-10.104017
1.7203932,0.43166193,-2.0213318,-0.41954282,30.0486,-10.9897995
1.5757114,0.44065955,-2.2303658,-2.1887097,30.179836,-12.111723
1.4229443,0.44749004,-2.4394882,-3.8829036,29.500479,-13.45512
1.2559325,0.4546951,-2.6702259,-5.2949963,27.93326,-15.047611
1.0793049,0.4780784,-2.9065115,-6.7694187,25.331966,-16.915678
0.92262834,0.5139197,-3.1144097,-8.010956,21.910982,-19.226013
0.7946245,0.58467877,-3.3030796,-9.399025,18.028734,-21.729914
0.6739599,0.66867775,-3.4905455,-10.984623,13.587908,-24.253391
0.5481093,0.7674751,-3.686875,-13.097617,8.313393,-26.723475
0.41791523,0.87778306,-3.8821485,-16.05132,2.2702315,-29.118734
0.26823318,0.98801506,-4.0740833,-19.914902,-5.049832,-32.024773
0.13444673,1.076403,-4.212972,-23.854923,-13.101539,-35.215874
0.07722781,1.1328428,-4.2637086,-28.212124,-21.403204,-37.969624
0.108066835,1.10249,-4.2058687,-33.122242,-28.98442,-39.498276
0.17449094,0.9622156,-4.0684733,-38.362797,-35.406185,-39.63083
0.23411891,0.7316677,-3.901481,-42.634872,-40.691547,-39.55904
0.41706836,0.3775357,-3.6770477,-45.52952,-44.8503,-40.22945
0.7537245,-0.11787663,-3.4061975,-46.708435,-47.525177,-40.768456
1.1844184,-0.6709566,-3.0627308,-47.130096,-48.800335,-40.041946
1.6148595,-1.1950104,-2.6741552,-46.79854,-48.615055,-38.183987
1.9662703,-1.6253508,-2.292779,-45.390682,-46.945545,-35.78077
2.1957636,-1.9093537,-1.9454302,-43.284485,-44.62754,-33.519253
2.3626747,-2.1022108,-1.6160166,-40.68574,-41.65842,-31.542336
2.477924,-2.2410078,-1.3255266,-37.73022,-38.140553,-29.59458
2.5262594,-2.350823,-1.09776,-34.40872,-34.40175,-27.593176
2.5253608,-2.442368,-0.92530817,-30.811245,-30.470705,-25.378733
2.4662867,-2.516153,-0.831941,-26.945066,-26.654081,-23.088247
2.380646,-2.5659733,-0.7798979,-22.956505,-23.059963,-20.733847
2.2973413,-2.5993004,-0.7448958,-18.953846,-19.560637,-18.269161
2.2157183,-2.616379,-0.7238869,-15.194185,-16.10626,-15.668801
2.130088,-2.6177897,-0.71778923,-11.703833,-12.612176,-13.07418
2.0215664,-2.6061423,-0.7472627,-8.330881,-9.312707,-10.604424
1.911738,-2.5894454,-0.77350795,-4.9614387,-6.4169064,-8.197479
1.8274711,-2.558029,-0.7879004,-1.6875856,-3.6494467,-5.7625937
1.759188,-2.5085044,-0.80557704,1.2498266,-0.936754,-3.1890476
1.6964418,-2.4376578,-0.8308376,3.667964,1.600177,-0.43517613
1.6233495,-2.3260536,-0.88268644,5.8969936,3.7214541,2.2147734
1.5371038,-2.1927543,-0.94308895,8.133157,5.2143426,4.434313
1.4769332,-2.048549,-0.98336524,10.343727,6.594221,6.1953983
1.4446865,-1.9033964,-1.0193393,12.552606,8.016238,7.635686
1.4266819,-1.7394334,-1.0562677,14.350017,9.5039625,8.945699
1.4018795,-1.5313227,-1.112283,15.548315,10.657092,10.112514
1.3643847,-1.3092678,-1.1675816,16.216665,11.325701,11.056549
1.3273294,-1.0815154,-1.2221568,16.458273,11.513998,11.748695
1.3022267,-0.8520022,-1.2655702,16.432169,11.409525,12.013538
1.3040044,-0.62409794,-1.2888813,16.179459,11.509025,11.702321
1.3499252,-0.39771447,-1.297368,15.676818,12.025704,11.152606
1.4034991,-0.17354898,-1.3204186,14.653395,12.667383,10.301326
1.4389256,0.04293725,-1.3659203,13.572601,13.057735,8.993898
1.4528753,0.24811572,-1.4112048,12.291143,13.004424,7.338386
1.4584754,0.44844675,-1.4360527,10.227705,12.580701,5.479401
1.4822767,0.6354304,-1.4216739,7.655098,12.422123,3.591253
1.5045784,0.80486923,-1.3922181,4.772563,12.823549,1.5375385
1.4986873,0.9540111,-1.3784659,1.7786686,13.460195,-0.83859205
1.4456015,1.0671042,-1.3992211,-1.3993995,13.777543,-3.656571
1.3641449,1.1152204,-1.4442735,-4.5537906,13.303482,-6.809083
1.2614888,1.0582994,-1.5022718,-7.7577233,12.223128,-10.148408
1.1605889,0.8815858,-1.5442466,-10.664815,10.755646,-13.521945
1.0715002,0.6098936,-1.5463923,-13.04828,9.397069,-16.351505
0.9707272,0.29401982,-1.5378615,-14.997017,8.121108,-18.540007
0.86699843,-0.03865752,-1.5245125,-15.923039,6.9860787,-20.04671
0.7911329,-0.35763425,-1.4965148,-15.972762,6.1322145,-21.00165
0.72793674,-0.6254165,-1.4577601,-15.474563,5.33557,-21.410788
0.6777906,-0.8354455,-1.4075259,-14.618877,4.539108,-21.346457
0.6410012,-0.9823346,-1.3442394,-13.582516,3.7428474,-20.893978
0.61384386,-1.0682237,-1.26488,-12.534805,2.8991969,-20.010351
0.59904,-1.0877331,-1.1668031,-11.62833,2.2684011,-18.93934
0.58513546,-1.0753033,-1.0719491,-10.822523,1.9046905,-17.818092
0.5698889,-1.0444664,-0.9864815,-10.112289,1.7634983,-16.76425
0.5587032,-1.0111647,-0.90845376,-9.424253,1.9482137,-15.760454
0.54231954,-0.98292387,-0.8609127,-8.88515,2.245118,-14.795628
0.51363975,-0.9673448,-0.84779584,-8.541699,2.4052913,-13.817188
0.49763444,-0.9372018,-0.821378,-8.275535,2.3303409,-13.386637
0.48212886,-0.90799993,-0.79578507,-8.017681,2.2577307,-12.969528
0.4671074,-0.8797097,-0.7709911,-7.7678776,2.1873877,-12.565442
0.45255476,-0.8523026,-0.7469711,-7.5258713,2.11924,-12.173968
0.4384563,-0.82575077,-0.72370064,-7.2914176,2.0532193,-11.794712
0.42479774,-0.80002743,-0.7011563,-7.0642796,1.9892585,-11.42729
0.41156533,-0.77510667,-0.6793154,-6.844228,1.9272933,-11.071331
0.3987457,-0.7509633,-0.65815574,-6.63104,1.867261,-10.726476
0.3863259,-0.7275729,-0.63765603,-6.4245024,1.8091012,-10.392377
0.37429345,-0.70491195,-0.61779565,-6.2244053,1.752755,-10.068697
0.36263618,-0.68295765,-0.59855455,-6.0305476,1.698166,-9.75511
0.35134235,-0.6616879,-0.57991344,-5.842735,1.6452789,-9.451301
0.34040064,-0.6410812,-0.5618534,-5.6607766,1.5940406,-9.156962
0.3298,-0.62111694,-0.5443564,-5.484491,1.5443996,-8.871799
0.3195298,-0.6017749,-0.5274047,-5.3137,1.496306,-8.595526
0.3095797,-0.5830357,-0.51098144,-5.1482325,1.4497112,-8.327862
0.2999397,-0.56488055,-0.49506995,-4.987921,1.4045686,-8.068541
0.2906001,-0.5472911,-0.47965434,-4.832606,1.3608327,-7.8173
0.28155148,-0.5302498,-0.46471906,-4.6821303,1.3184597,-7.5738883
0.27278486,-0.51373947,-0.45024914,-4.536343,1.2774069,-7.3380604
0.26429135,-0.49774352,-0.43623003,-4.395098,1.2376332,-7.1095805
0.25606245,-0.48224592,-0.4226477,-4.2582536,1.1990986,-6.888219
0.2480899,-0.46723112,-0.4094885,-4.1256723,1.1617645,-6.673753
0.24036571,-0.45268404,-0.39673924,-3.997221,1.1255934,-6.465968
0.23288213,-0.4385901,-0.3843871,-3.8727708,1.090549,-6.2646556
0.22563164,-0.42493516,-0.37241971,-3.7521973,1.0565962,-6.069614
0.218607,-0.41170555,-0.36082506,-3.635379,1.0237008,-5.8806467
0.21180113,-0.39888796,-0.34959152,-3.5221992,0.9918301,-5.6975656
0.20520723,-0.3864696,-0.3387079,-3.4125445,0.960952,-5.520186
0.19881868,-0.37443796,-0.32816318,-3.3063047,0.93103546,-5.3483305
0.1926291,-0.36278105,-0.31794685,-3.2033734,0.9020507,-5.1818275
0.18663228,-0.35148713,-0.3080487,-3.1036475,0.8739685,-5.0205092
0.18082218,-0.3405449,-0.29845878,-3.0070271,0.84676075,-4.864215
0.17519303,-0.32994342,-0.28916746,-2.9134157,0.8204003,-4.7127876
0.16973914,-0.31967208,-0.2801655,-2.822719,0.7948607,-4.5660753
0.16445509,-0.30972055,-0.2714438,-2.7348466,0.7701163,-4.423931
0.15933557,-0.30007887,-0.26299372,-2.6497102,0.74614245,-4.2862134
0.15437545,-0.29073742,-0.25480673,-2.5672247,0.72291505,-4.1527834
0.14956978,-0.2816868,-0.24687465,-2.4873075,0.70041084,-4.023508
0.14491373,-0.27291802,-0.23918954,-2.4098787,0.67860734,-3.898258
0.14040264,-0.26442224,-0.23174371,-2.3348606,0.6574827,-3.7769074
0.13603202,-0.25619096,-0.2245297,-2.2621782,0.63701576,-3.6593351
0.13179746,-0.24821597,-0.21754028,-2.1917584,0.617186,-3.5454233
0.12769474,-0.24048927,-0.21076848,-2.1235313,0.59797364,-3.4350579
0.12371976,-0.23300312,-0.20420751,-2.0574284,0.5793594,-3.3281286
0.119868524,-0.22575004,-0.1978508,-1.9933833,0.5613247,-3.2245283
0.116137184,-0.21872276,-0.19169198,-1.9313321,0.5438515,-3.1241534
0.11252201,-0.21191426,-0.1857249,-1.8712127,0.5269222,-3.0269034
0.10901939,-0.20531772,-0.17994359,-1.8129649,0.51052,-2.9326808
0.10562581,-0.19892654,-0.17434226,-1.7565304,0.4946284,-2.8413916
0.10233787,-0.19273432,-0.1689153,-1.7018529,0.47923154,-2.7529442
0.09915229,-0.18673487,-0.1636573,-1.6488775,0.46431398,-2.6672504
0.09606587,-0.18092218,-0.15856297,-1.5975512,0.4498608,-2.5842242
0.09307554,-0.17529045,-0.15362725,-1.5478228,0.4358576,-2.5037827
0.0901783,-0.16983403,-0.14884515,-1.4996424,0.42229027,-2.4258454
0.08737125,-0.16454749,-0.14421193,-1.4529619,0.40914533,-2.3503342
0.08465159,-0.1594255,-0.13972294,-1.4077345,0.39640957,-2.2771738
0.08201658,-0.15446296,-0.1353737,-1.3639151,0.38407028,-2.2062905
0.0794636,-0.1496549,-0.13115984,-1.3214597,0.37211508,-2.137614
0.0769901,-0.14499651,-0.12707716,-1.2803259,0.36053205,-2.0710754
0.07459359,-0.14048313,-0.12312157,-1.2404726,0.3493096,-2.006608
0.07227168,-0.13611025,-0.11928911,-1.2018598,0.33843648,-1.9441475
