ax,ay,az,gx,gy,gz
0.97455436,3.1973019,-15.925599,35.73396,54.155037,-42.780388
0.03803261,1.876868,-18.73647,29.206383,20.47071,-40.979633
-0.88978726,0.5574242,-20.735098,21.326181,-30.445929,-35.11332
-1.4252336,-0.33451384,-22.238928,9.62066,-84.538155,-29.879255
-1.615195,-0.6179439,-23.552814,-6.283273,-142.61925,-26.524775
-1.2188144,-0.41357312,-24.384268,-10.152382,-196.61078,-31.639938
-0.2915419,0.13443865,-25.074173,-6.865319,-253.65048,-43.997986
0.93276125,0.43623248,-25.647186,-2.459063,-311.3919,-54.284477
2.4245586,0.45711744,-26.076067,1.8385117,-372.0178,-58.590984
4.2395296,0.35258627,-26.005669,5.512421,-430.202,-61.00369
6.3319244,0.3027226,-25.219389,16.805687,-473.69458,-69.50642
9.222112,0.22512248,-23.141514,29.576456,-497.61487,-77.51604
12.287425,-0.0011971098,-20.279772,38.93384,-503.1786,-78.65111
14.972455,-0.10560886,-17.063135,45.143066,-491.77798,-72.14167
16.873625,0.16265109,-14.064243,48.911602,-471.2767,-66.05351
18.306753,0.632571,-11.275955,51.768337,-442.96237,-61.160973
19.413979,1.3422961,-8.682083,52.497215,-409.8114,-55.82864
20.205826,1.9895006,-6.5393705,50.912056,-371.68045,-50.594223
20.584764,2.413414,-5.0575547,48.529285,-330.42798,-46.141853
20.584276,2.6111534,-4.190828,46.86734,-288.2487,-43.22385
20.35089,2.6726716,-3.7835805,42.24005,-246.57768,-40.560112
20.022612,2.6263468,-3.719357,35.62636,-206.45665,-37.843952
19.725628,2.5314314,-3.8313177,28.335773,-167.1059,-34.84811
19.36502,2.417164,-4.156056,21.968845,-129.5548,-32.47135
18.879154,2.3028684,-4.6458993,17.573126,-96.08929,-30.39771
18.411783,2.2588472,-5.1205125,16.032581,-66.70089,-27.045654
18.244022,2.374529,-5.4609394,15.173258,-39.125557,-21.521381
18.262854,2.6694498,-5.795444,11.825321,-10.738047,-11.322306
17.476385,2.554493,-5.54587,11.316077,-10.275624,-10.834723
16.738808,2.4466827,-5.3118105,10.838491,-9.841949,-10.377453
16.04557,2.3453534,-5.0918226,10.389616,-9.434346,-9.947671
15.392692,2.2499232,-4.8846407,9.966872,-9.050471,-9.54291
14.776666,2.1598797,-4.689154,9.567991,-8.688265,-9.1609955
14.194402,2.0747712,-4.5043817,9.190971,-8.34591,-8.800014
13.64316,1.9941971,-4.329453,8.834038,-8.021795,-8.458263
13.120502,1.9178013,-4.1635957,8.495614,-7.7144876,-8.134234
12.624254,1.8452655,-4.006119,8.17429,-7.4227076,-7.826579
12.152467,1.7763051,-3.8564038,7.8688045,-7.14531,-7.5340877
11.70339,1.7106644,-3.713896,7.578024,-6.881265,-7.2556767
11.275447,1.6481127,-3.5780947,7.300928,-6.629647,-6.9903674
10.867212,1.5884416,-3.4485476,7.036593,-6.389616,-6.7372766
10.477394,1.5314626,-3.3248446,6.784183,-6.1604137,-6.4956036
10.104818,1.4770039,-3.2066133,6.542938,-5.94135,-6.2646203
9.748417,1.4249094,-3.0935147,6.312166,-5.7317963,-6.0436645
9.407213,1.3750361,-2.9852388,6.091234,-5.531178,-5.8321304
9.080314,1.3272538,-2.881502,5.879565,-5.33897,-5.6294646
8.766898,1.2814424,-2.7820442,5.6766257,-5.1546903,-5.4351583
8.466212,1.2374916,-2.6866262,5.48193,-4.9778957,-5.248744
8.177562,1.1953001,-2.5950272,5.295027,-4.8081775,-5.0697913
7.9003057,1.1547741,-2.507044,5.1155014,-4.6451583,-4.8979025
7.6338496,1.1158266,-2.4224882,4.9429693,-4.4884896,-4.7327094
7.377644,1.0783775,-2.3411853,4.7770743,-4.337848,-4.5738716
7.131178,1.042352,-2.2629728,4.617486,-4.1929326,-4.421071
6.8939757,1.0076805,-2.1877003,4.463896,-4.0534644,-4.2740145
6.6655946,0.9742985,-2.115227,4.3160176,-3.9191828,-4.1324263
6.4456205,0.9421453,-2.0454216,4.173583,-3.7898443,-3.9960506
6.2336674,0.9111644,-1.9781613,4.0363417,-3.6652217,-3.8646474
6.029372,0.88130295,-1.9133313,3.9040594,-3.545102,-3.7379918
5.8323956,0.8525112,-1.8508236,3.7765155,-3.429285,-3.6158733
5.642418,0.8247425,-1.7905371,3.653504,-3.3175838,-3.4980943
5.4591393,0.797953,-1.7323765,3.5348296,-3.209821,-3.384468
5.2822766,0.7721013,-1.6762516,3.42031,-3.1058307,-3.2748196
5.111563,0.7471484,-1.6220783,3.3097718,-3.005456,-3.1689835
4.9467463,0.7230574,-1.5697762,3.2030518,-2.9085484,-3.0668032
4.7875886,0.6997936,-1.5192697,3.0999959,-2.8149679,-2.9681308
4.6338634,0.6773238,-1.4704874,3.0004578,-2.7245817,-2.8728268
4.4853573,0.65561694,-1.4233612,2.9042993,-2.6372643,-2.7807586
4.341867,0.63464326,-1.3778267,2.8113883,-2.5528963,-2.6917999
4.2032003,0.6143745,-1.3338228,2.7216005,-2.471364,-2.6058314
4.0691733,0.5947841,-1.2912915,2.6348174,-2.39256,-2.5227396
3.939612,0.57584625,-1.250177,2.5509253,-2.3163815,-2.4424162
3.8143494,0.5575369,-1.2104268,2.4698172,-2.2427306,-2.364758
3.6932278,0.5398327,-1.1719908,2.3913898,-2.1715145,-2.2896671
3.5760956,0.52271175,-1.1348206,2.315546,-2.102644,-2.2170494
3.4628084,0.50615275,-1.0988705,2.2421918,-2.0360343,-2.1468153
3.3532283,0.49013558,-1.0640969,2.171238,-1.9716042,-2.0788796
3.2472231,0.474641,-1.0304577,2.102599,-1.9092761,-2.0131602
3.1446664,0.45965046,-0.99791294,2.0361927,-1.8489757,-1.9495789
3.0454373,0.44514632,-0.96642405,1.9719412,-1.7906318,-1.8880605
2.9494197,0.4311116,-0.93595433,1.9097692,-1.7341762,-1.828533
2.8565025,0.41753003,-0.9064684,1.8496046,-1.6795434,-1.7709277
2.7665787,0.40438604,-0.8779325,1.7913784,-1.6266707,-1.7151783
2.679546,0.39166462,-0.85031396,1.7350242,-1.575498,-1.6612213
2.5953062,0.37935144,-0.8235817,1.6804783,-1.5259674,-1.6089956
2.5137644,0.3674326,-0.7977056,1.6276795,-1.478023,-1.5584426
2.4348297,0.35589486,-0.77265686,1.5765687,-1.4316117,-1.509506
2.358415,0.34472543,-0.7484077,1.5270895,-1.3866818,-1.4621315
2.2844355,0.333912,-0.7249315,1.4791874,-1.343184,-1.4162669
2.2128105,0.3234427,-0.7022024,1.4328098,-1.3010706,-1.3718622
2.1434622,0.31330618,-0.68019575,1.3879063,-1.2602957,-1.3288687
2.0763154,0.30349144,-0.6588877,1.3444282,-1.2208152,-1.28724
2.0112975,0.29398787,-0.6382552,1.3023286,-1.1825864,-1.2469313
1.9483385,0.28478527,-0.6182761,1.2615623,-1.1455685,-1.2078991
1.8873715,0.27587384,-0.59892917,1.2220858,-1.1097215,-1.1701018
1.8283314,0.26724404,-0.5801937,1.183857,-1.0750076,-1.133499
1.7711556,0.25888675,-0.5620498,1.1468352,-1.0413898,-1.0980521
1.7157836,0.25079313,-0.5444783,1.1109815,-1.0088327,-1.0637234
1.662157,0.24295463,-0.5274607,1.076258,-0.9773018,-1.0304769
1.6102197,0.23536304,-0.5109792,1.0426282,-0.94676405,-0.9982777
1.5599171,0.22801039,-0.4950164,1.0100569,-0.9171875,-0.9670919
1.5111967,0.22088902,-0.47955573,0.9785101,-0.88854134,-0.9368871
1.4640079,0.21399151,-0.46458104,0.947955,-0.8607956,-0.9076317
1.4183015,0.20731068,-0.45007682,0.9183598,-0.8339215,-0.8792954
1.3740301,0.20083962,-0.43602797,0.8896938,-0.80789125,-0.8518488
1.3311481,0.19457163,-0.42242,0.8619274,-0.78267777,-0.8252635
1.2896111,0.18850023,-0.40923885,0.8350319,-0.7582552,-0.799512
1.2493763,0.18261918,-0.39647093,0.80897963,-0.7345983,-0.7745679
1.2104024,0.17692243,-0.38410312,0.78374374,-0.7116827,-0.7504055
1.1726493,0.17140412,-0.37212273,0.7592983,-0.6894849,-0.72699994
1.1360782,0.1660586,-0.36051747,0.73561835,-0.66798216,-0.7043272
1.100652,0.1608804,-0.34927547,0.7126796,-0.64715254,-0.6823642
1.0663342,0.15586422,-0.33838522,0.6904586,-0.62697464,-0.66108847
1.0330899,0.15100497,-0.32783565,0.6689327,-0.6074279,-0.6404782
1.0008851,0.14629765,-0.31761596,0.6480799,-0.5884924,-0.6205124
0.9696871,0.14173749,-0.30771574,0.62787896,-0.5701488,-0.6011708
0.9394642,0.13731986,-0.29812494,0.60830945,-0.5523786,-0.5824337
0.91018564,0.13304026,-0.28883383,0.58935136,-0.53516364,-0.564282
0.88182163,0.12889434,-0.27983293,0.5709855,-0.51848644,-0.5466974
0.85434353,0.12487792,-0.27111316,0.5531932,-0.50233006,-0.52966195
0.82772344,0.12098691,-0.2626657,0.5359565,-0.48667818,-0.51315844
0.8019344,0.11721737,-0.2544819,0.51925796,-0.47151494,-0.49717018
0.7769503,0.11356549,-0.24655358,0.5030806,-0.45682502,-0.48168096
0.752746,0.11002758,-0.23887269,0.4874081,-0.44259351,-0.46667513
0.72929686,0.10660006,-0.23143147,0.47222462,-0.4288061,-0.45213756
0.7065793,0.10327948,-0.22422239,0.45751488,-0.4154488,-0.4380535
0.68457043,0.10006248,-0.2172382,0.44326398,-0.40250823,-0.4244088
0.663248,0.096945815,-0.21047185,0.42945758,-0.38997123,-0.41118968
0.6425905,0.09392635,-0.20391652,0.41608173,-0.37782523,-0.39838278
0.62257725,0.09100104,-0.19756559,0.40312296,-0.36605796,-0.38597527
0.6031879,0.08816694,-0.19141269,0.39056826,-0.3546576,-0.3739546
0.5844031,0.08542119,-0.1854516,0.37840495,-0.34361264,-0.36230868
0.56620383,0.082761034,-0.17967632,0.3666208,-0.33291197,-0.3510258
0.5485718,0.0801838,-0.17408109,0.35520396,-0.32254487,-0.3400946
0.5314894,0.07768689,-0.16866022,0.34414297,-0.31250086,-0.3295041
0.5149393,0.07526779,-0.16340831,0.33342668,-0.3027699,-0.31924367
0.49890497,0.072924085,-0.15832005,0.32304436,-0.29334214,-0.30930296
0.4833703,0.0706534,-0.15339035,0.31298554,-0.28420818,-0.299672
0.46831962,0.068453476,-0.14861424,0.30324012,-0.27535883,-0.29034117
0.45373788,0.06632209,-0.14398694,0.29379836,-0.26678517,-0.28130102
0.43961045,0.0642571,-0.1395038,0.28465074,-0.2584786,-0.2725425
0.4259231,0.062256444,-0.13516034,0.2757881,-0.25043085,-0.26405686
0.41266215,0.060318112,-0.13095216,0.2672015,-0.24263377,-0.25583553
0.39981425,0.05844016,-0.12687509,0.25888243,-0.23507957,-0.24787031
0.38736656,0.056620702,-0.12292499,0.25082245,-0.22776067,-0.2401532
0.37530658,0.054857913,-0.11909794,0.24301355,-0.22066975,-0.23267643
0.3636222,0.053150028,-0.11539008,0.23544782,-0.21379966,-0.22543254
0.35230175,0.051495336,-0.1117977,0.22811775,-0.20714355,-0.21841428
0.34133384,0.049892176,-0.1083172,0.22101596,-0.20069472,-0.21161456
0.3307075,0.048338942,-0.104945086,0.21413533,-0.19444673,-0.20502663
0.32041207,0.046834078,-0.101677984,0.20746897,-0.18839331,-0.19864383
0.31043726,0.045376077,-0.09851263,0.20101021,-0.1825284,-0.19245982
0.30077305,0.043963477,-0.095445834,0.19475259,-0.17684612,-0.18646836
0.2914098,0.042594865,-0.09247454,0.1886898,-0.17134078,-0.18066348
0.28233808,0.04126887,-0.08959577,0.1828158,-0.16600688,-0.17503935
0.27354884,0.03998416,-0.08680664,0.17712471,-0.16083904,-0.16959034
0.26503325,0.038739454,-0.084104344,0.17161082,-0.15583213,-0.16431099
0.25678283,0.037533503,-0.081486195,0.16626862,-0.1509811,-0.15919602
0.24878928,0.0363651,-0.07894956,0.16109274,-0.14628112,-0.15424031
0.24104461,0.035233073,-0.07649191,0.15607801,-0.14172748,-0.1494389
0.23354107,0.034136295,-0.07411077,0.15121941,-0.1373156,-0.14478698
0.22627114,0.033073664,-0.07180377,0.14651209,-0.13304108,-0.14027989
0.21922755,0.032044113,-0.06956859,0.14195132,-0.12889966,-0.13591312
0.21240327,0.031046618,-0.067403,0.13753255,-0.12488716,-0.1316823
0.20579143,0.030080177,-0.06530484,0.13325134,-0.12099959,-0.1275832
0.19938543,0.029143825,-0.06327199,0.1291034,-0.117233045,-0.12361172
0.19317886,0.028236622,-0.06130243,0.12508462,-0.11358376,-0.11976388
0.18716553,0.027357662,-0.059394184,0.12119094,-0.110048085,-0.11603583
0.18133938,0.026506066,-0.05754535,0.11741848,-0.10662248,-0.11242383
0.17569463,0.025680982,-0.05575407,0.11376346,-0.103303514,-0.108924285
0.17022559,0.02488158,-0.05401855,0.11022222,-0.10008787,-0.10553368
0.16492681,0.024107067,-0.05233706,0.10679123,-0.09697234,-0.10224863
0.15979299,0.023356665,-0.050707918,0.10346704,-0.093953796,-0.09906585
0.15481897,0.022629622,-0.04912949,0.10024633,-0.09102922,-0.095982134
0.1499998,0.021925213,-0.0476002,0.09712589,-0.08819568,-0.09299443
0.14533065,0.02124273,-0.046118513,0.09410258,-0.08545035,-0.09009972
0.14080685,0.020581495,-0.044682954,0.09117339,-0.08279048,-0.08729513
0.13642387,0.019940842,-0.04329208,0.08833538,-0.08021341,-0.08457784
0.13217734,0.019320132,-0.041944504,0.08558571,-0.07771657,-0.08194514
0.12806298,0.018718746,-0.040638875,0.08292165,-0.075297445,-0.0793944
0.12407671,0.018136078,-0.039373893,0.08034051,-0.07295363,-0.07692305
