ax,ay,az,gx,gy,gz
-3.7109425,5.985509,-12.637387,-77.62616,112.97193,-9.266448
-4.6605687,5.994796,-13.278051,-82.1387,95.6705,-14.36062
-5.232712,6.324491,-13.743716,-88.08053,70.39424,-25.282457
-5.677353,6.4842305,-14.258862,-89.67752,47.303925,-38.024582
-5.976205,6.352975,-15.0001745,-86.57929,20.68928,-51.849632
-6.1307383,6.012732,-15.802607,-82.02877,-10.582235,-64.86432
-6.074541,5.658521,-16.504452,-77.516624,-44.30066,-76.21751
-5.7356787,5.4555054,-16.977652,-73.84245,-78.41064,-85.32381
-5.2479014,5.615767,-17.408056,-73.69266,-111.123505,-94.40936
-4.8239264,5.763707,-17.985758,-76.74942,-146.03174,-104.71954
-4.396266,5.7108474,-18.70941,-79.616104,-184.12642,-116.8075
-3.6674733,5.4059644,-19.438316,-81.25447,-225.4744,-129.16061
-2.3572757,4.8874507,-19.771624,-80.89104,-264.69073,-138.29497
-0.3133926,4.2740707,-19.186832,-78.94679,-294.61777,-142.7221
1.6217699,3.6380224,-18.076014,-73.201706,-313.30975,-143.81653
3.288366,3.021081,-16.786741,-66.414116,-323.9535,-143.6071
4.8740683,2.4578063,-15.377726,-58.613407,-328.14215,-142.76941
6.561914,1.9626799,-13.769968,-51.340275,-324.39774,-138.78856
8.191359,1.4576151,-12.022159,-45.16774,-314.9008,-131.37967
9.485023,1.0799634,-10.389955,-39.004707,-300.08478,-122.70894
10.467456,0.9255314,-8.9425,-32.75665,-281.805,-115.03613
11.240141,0.8901637,-7.6830482,-26.311998,-261.15018,-108.803505
11.84499,0.8334377,-6.654038,-18.79943,-237.41849,-103.10447
12.265177,0.7235567,-5.931126,-11.33553,-212.53134,-97.30274
12.576427,0.5770219,-5.4240265,-4.352096,-186.97992,-91.27516
12.807389,0.399112,-5.0838065,1.8766583,-160.59093,-84.69386
12.950152,0.22989498,-4.9117665,7.601918,-133.00655,-77.92872
13.006952,0.10986255,-4.9042964,11.92704,-103.966,-71.693184
12.915616,0.06391929,-5.0943246,14.877647,-75.46516,-65.7014
12.726177,0.09089119,-5.4116864,17.356316,-48.64593,-59.955868
12.521746,0.1878066,-5.7402854,20.310347,-23.466825,-54.957672
12.480131,0.30398184,-5.9870534,23.561798,2.965899,-51.03025
12.4680395,0.3735785,-6.412911,27.680052,27.508377,-48.582497
12.281262,0.33564878,-6.942902,33.082966,50.104507,-47.002445
11.9370165,0.43038142,-7.47887,39.331043,69.73563,-46.893185
11.486884,0.8023484,-7.972718,42.107876,84.24756,-48.325825
11.032529,1.3055617,-8.373759,40.3398,94.12027,-51.318146
10.616489,1.7430115,-8.743036,33.85514,98.60451,-54.721825
10.247157,1.9502096,-9.104108,26.543655,99.93175,-58.14436
9.8703785,2.00644,-9.457622,20.77246,98.728195,-62.149025
9.482348,2.015041,-9.770959,17.034935,95.405594,-66.565895
9.117671,2.0831587,-10.006991,14.000211,90.87546,-70.98055
8.772361,2.2147958,-10.199727,10.003659,85.06114,-75.75121
8.402714,2.2926097,-10.415344,5.597231,78.059074,-81.07256
8.024854,2.2373219,-10.648053,1.5175493,69.35602,-86.45537
7.6600194,2.0423288,-10.867358,-1.9965885,59.331646,-91.28379
7.3184834,1.7120343,-11.070818,-4.706382,47.36546,-95.34632
7.0166116,1.2336469,-11.262411,-5.941228,32.217735,-98.19927
6.9219446,0.6104477,-11.379137,-5.5368266,16.1135,-100.04323
7.1530395,-0.16937149,-11.302237,-3.7722378,1.905216,-98.74759
7.525725,-1.0690681,-11.097268,0.01716605,-8.134765,-93.28034
7.818863,-1.9092513,-10.941298,6.6822276,-15.162408,-85.321495
8.002072,-2.5221643,-10.827068,15.137039,-21.710867,-74.80854
8.181422,-2.6949918,-10.539677,22.979683,-28.384699,-62.97522
8.383586,-2.4067814,-10.018357,29.309393,-34.56974,-52.218864
8.573094,-1.7402266,-9.223474,33.92159,-39.29436,-44.543472
8.724519,-0.88193184,-8.221537,36.284332,-41.691177,-39.56239
8.799748,-0.007750845,-7.1998253,34.15104,-40.990948,-35.717434
8.694234,0.7050572,-6.4204345,29.91475,-39.239048,-32.859653
8.50488,1.2279465,-5.860135,25.063559,-37.054356,-31.149168
8.273221,1.5690123,-5.4863896,20.349745,-34.496655,-30.244434
8.014811,1.7614208,-5.265847,16.105448,-31.735846,-29.782658
7.7557864,1.704495,-5.0956645,15.5849495,-30.710201,-28.820135
7.5057096,1.6495354,-4.9313602,15.08243,-29.719984,-27.890863
7.264219,1.5964627,-4.7726974,14.597164,-28.763765,-26.993494
7.0309715,1.5452018,-4.6194506,14.128462,-27.840187,-26.126757
6.805643,1.4956812,-4.471406,13.6756735,-26.947964,-25.289448
6.587925,1.4478332,-4.3283625,13.238177,-26.085878,-24.480417
6.3775253,1.4015934,-4.190127,12.815388,-25.25277,-23.698584
6.174166,1.356901,-4.0565166,12.406745,-24.447536,-22.94291
5.977582,1.3136976,-3.9273582,12.011717,-23.669134,-22.212412
5.7875214,1.2719278,-3.8024855,11.629797,-22.91656,-21.506155
5.603743,1.2315388,-3.6817405,11.260502,-22.188862,-20.823244
5.426018,1.19248,-3.5649726,10.903371,-21.485132,-20.162827
5.254127,1.1547034,-3.4520378,10.557963,-20.804504,-19.524088
5.087861,1.118163,-3.3427985,10.223858,-20.146149,-18.90625
4.927019,1.0828146,-3.237123,9.900652,-19.509272,-18.308569
4.7714095,1.0486162,-3.1348853,9.587961,-18.893112,-17.730331
4.620849,1.0155274,-3.035965,9.285416,-18.296946,-17.170856
4.475161,0.9835095,-2.9402459,8.992661,-17.720074,-16.629488
4.3341775,0.95252544,-2.8476176,8.70936,-17.161827,-16.105598
4.1977363,0.9225396,-2.7579737,8.435186,-16.621567,-15.598589
4.0656815,0.89351785,-2.6712117,8.169827,-16.098677,-15.10788
3.937864,0.8654273,-2.5872338,7.912984,-15.592564,-14.632916
3.8141406,0.83823645,-2.5059457,7.6643662,-15.102661,-14.173165
3.6943727,0.81191504,-2.4272566,7.4236975,-14.628424,-13.728114
3.5784283,0.7864338,-2.3510792,7.1907115,-14.169324,-13.29727
3.4661791,0.76176476,-2.27733,6.9651513,-13.724856,-12.880157
3.3575025,0.7378808,-2.2059278,6.74677,-13.294536,-12.47632
3.2522802,0.714756,-2.1367953,6.53533,-12.877892,-12.0853195
3.150398,0.6923653,-2.0698574,6.3306017,-12.474474,-11.70673
3.0517461,0.6706845,-2.0050416,6.1323643,-12.083847,-11.340144
2.9562185,0.64969033,-1.9422785,5.9404054,-11.705591,-10.985168
2.863713,0.6293603,-1.8815011,5.7545195,-11.339302,-10.641422
2.7741313,0.6096729,-1.8226446,5.5745087,-10.98459,-10.308541
2.6873784,0.5906071,-1.7656466,5.400182,-10.641078,-9.986171
2.6033623,0.57214284,-1.7104468,5.2313547,-10.308404,-9.673971
2.5219946,0.5542606,-1.6569872,5.0678496,-9.986217,-9.371613
2.44319,0.53694165,-1.6052114,4.909495,-9.674177,-9.078778
2.3668659,0.5201678,-1.5550652,4.756124,-9.371961,-8.795161
2.2929423,0.5039216,-1.5064964,4.607578,-9.079249,-8.520465
2.2213426,0.4881861,-1.4594543,4.463701,-8.795739,-8.254404
2.151992,0.4729449,-1.41389,4.3243437,-8.521135,-7.996701
2.084819,0.45818225,-1.3697565,4.1893625,-8.255155,-7.7470894
2.0197542,0.44388285,-1.3270078,4.0586166,-7.9975195,-7.5053105
1.9567299,0.43003199,-1.2856,3.9319723,-7.747966,-7.271116
1.8956815,0.41661534,-1.2454903,3.8092978,-7.5062356,-7.044263
1.8365463,0.40361914,-1.2066376,3.6904678,-7.272081,-6.824519
1.7792634,0.39103004,-1.1690019,3.5753603,-7.0452604,-6.6116586
1.7237742,0.3788351,-1.1325446,3.4638567,-6.8255424,-6.405463
1.6700218,0.36702192,-1.0972285,3.3558433,-6.612702,-6.205722
1.6179513,0.35557836,-1.0630175,3.2512097,-6.406521,-6.0122304
1.5675097,0.34449273,-1.0298766,3.1498492,-6.2067895,-5.8247914
1.5186453,0.3337538,-0.997772,3.0516582,-6.0133038,-5.6432137
1.4713085,0.32335055,-0.96667105,2.9565368,-5.8258667,-5.467313
1.4254512,0.31327248,-0.93654215,2.8643885,-5.644288,-5.2969093
1.3810267,0.30350927,-0.9073546,2.775119,-5.468383,-5.13183
1.33799,0.29405105,-0.87907887,2.6886387,-5.297972,-4.9719076
1.2962974,0.28488824,-0.85168624,2.6048589,-5.132884,-4.81698
1.2559067,0.27601153,-0.82514894,2.5236952,-4.972951,-4.6668897
1.2167768,0.26741195,-0.7994401,2.4450655,-4.818011,-4.5214853
1.1788685,0.2590808,-0.77453375,2.36889,-4.6679068,-4.3806195
1.1421431,0.25100964,-0.75040466,2.295092,-4.522487,-4.24415
1.1065638,0.24319033,-0.7270285,2.2235966,-4.381605,-4.1119385
1.0720944,0.23561499,-0.7043816,2.1543317,-4.2451186,-3.9838521
1.0387002,0.22827592,-0.6824412,2.0872276,-4.11289,-3.859761
1.0063477,0.22116578,-0.6611851,2.0222163,-3.9847848,-3.7395406
0.9750041,0.21427737,-0.64059186,1.9592326,-3.860675,-3.623069
0.94463784,0.20760377,-0.6206408,1.8982128,-3.7404354,-3.5102296
0.9152184,0.20113823,-0.6013118,1.8390956,-3.6239448,-3.4009082
0.8867161,0.19487426,-0.5825854,1.7818214,-3.5110855,-3.2949953
0.85910237,0.18880557,-0.56444275,1.7263325,-3.4017448,-3.1923838
0.8323493,0.18292603,-0.5468656,1.6725733,-3.295812,-3.0929706
0.80643004,0.17722973,-0.5298363,1.6204897,-3.1931808,-2.996656
0.7813186,0.17171097,-0.5133377,1.5700291,-3.0937483,-2.903343
0.75698966,0.16636418,-0.49735323,1.5211412,-2.9974144,-2.8129377
0.7334189,0.161184,-0.48186684,1.4737765,-2.904082,-2.7253497
0.71058244,0.15616523,-0.46686298,1.4278877,-2.8136578,-2.6404908
0.68845755,0.15130283,-0.4523266,1.3834285,-2.726051,-2.5582757
0.66702193,0.1465919,-0.4382431,1.3403544,-2.6411734,-2.478622
0.6462541,0.14202774,-0.42459834,1.2986224,-2.5589402,-2.4014497
0.6261332,0.13760576,-0.41137862,1.2581902,-2.4792686,-2.3266814
0.6066391,0.13332152,-0.3985707,1.2190175,-2.4020784,-2.2542422
0.58775216,0.12917073,-0.3861617,1.181065,-2.327293,-2.1840591
0.56945354,0.12514922,-0.37413922,1.1442946,-2.2548366,-2.1160624
0.5517248,0.12125297,-0.3624912,1.1086694,-2.184637,-2.0501833
0.5345482,0.11747806,-0.35120595,1.0741538,-2.1166239,-1.9863559
0.5179066,0.11382072,-0.34027216,1.0407131,-2.0507288,-1.9245164
0.50178325,0.11027727,-0.32967886,1.0083138,-1.986886,-1.8646027
0.48616195,0.10684417,-0.31941548,0.97692347,-1.9250313,-1.8065548
0.47102717,0.10351799,-0.30947167,0.9465106,-1.8651026,-1.7503146
0.45636365,0.10029537,-0.29983753,0.9170449,-1.8070403,-1.6958257
0.44215673,0.09717311,-0.29050338,0.88849664,-1.750786,-1.6430335
0.4283922,0.09414807,-0.2814599,0.86083734,-1.6962832,-1.5918851
0.41505626,0.09121722,-0.272698,0.83403933,-1.6434776,-1.5423294
0.40213555,0.08837763,-0.2642089,0.80807567,-1.5923162,-1.4943167
0.38961717,0.08562645,-0.25598413,0.7829205,-1.5427476,-1.447799
0.37748855,0.08296093,-0.24801545,0.75854844,-1.4947225,-1.4027295
0.36573753,0.080378406,-0.24029487,0.7349353,-1.4481927,-1.3590634
0.35435238,0.077876285,-0.23281467,0.7120573,-1.4031115,-1.3167567
0.3433217,0.07545207,-0.22556736,0.6898916,-1.3594339,-1.2757673
0.33263448,0.07310332,-0.21854568,0.66841596,-1.3171161,-1.236054
0.32227996,0.0708277,-0.21174261,0.64760894,-1.2761159,-1.197577
0.3122478,0.06862293,-0.20515133,0.62744975,-1.236392,-1.160298
0.30252796,0.0664868,-0.19876526,0.60791814,-1.197905,-1.1241796
0.29311073,0.06441716,-0.19257802,0.58899456,-1.1606159,-1.0891856
0.2839867,0.062411964,-0.18658337,0.5706601,-1.1244879,-1.055281
0.27514666,0.060469188,-0.18077536,0.5528965,-1.0894846,-1.022432
0.26658186,0.05858689,-0.17514816,0.53568584,-1.0555708,-0.9906056
0.25828367,0.056763195,-0.16969614,0.51901096,-1.022713,-0.95976996
0.25024384,0.05499627,-0.16441382,0.5028552,-0.990878,-0.9298942
0.24245426,0.05328435,-0.15929598,0.48720235,-0.960034,-0.9009486
0.23490718,0.051625725,-0.15433744,0.47203678,-0.9301503,-0.872904
0.22759505,0.05001873,-0.14953326,0.45734334,-0.9011967,-0.8457324
0.22051053,0.04846176,-0.14487863,0.44310728,-0.87314457,-0.8194067
0.21364656,0.04695326,-0.1403689,0.4293144,-0.8459656,-0.7939005
0.20699625,0.04549172,-0.13599955,0.41595086,-0.8196327,-0.7691883
0.20055297,0.044075675,-0.13176621,0.40300333,-0.7941196,-0.74524534
0.19431026,0.04270371,-0.12766466,0.39045885,-0.76940066,-0.72204775
0.18826188,0.041374452,-0.123690784,0.37830487,-0.74545115,-0.6995722
