ax,ay,az,gx,gy,gz
-3.2709389,3.336394,-15.347412,3.7727616,19.697453,-10.487369
-3.2242744,3.1851664,-16.329214,1.8298429,-20.950161,-12.993409
-3.3482814,2.8997571,-16.996483,1.8499299,-55.91666,-17.098454
-3.3521295,3.0063078,-17.481573,4.63953,-90.49019,-23.17765
-3.271405,3.42158,-17.925995,6.578172,-124.39534,-31.574549
-3.0768874,3.8840284,-18.350311,7.0248013,-158.09035,-41.156986
-2.8842216,4.1676235,-18.870794,7.1197433,-196.78494,-51.546963
-2.4971435,4.337194,-19.508448,5.7341857,-236.10825,-59.987427
-1.94793,4.454319,-20.109423,4.382701,-273.95575,-66.72694
-1.2786475,4.541182,-20.654182,1.9963117,-309.90335,-72.83113
-0.40730274,4.5639243,-21.074091,-0.8713725,-343.23364,-79.39947
0.89466995,4.2944436,-21.115696,-1.9110368,-373.04053,-86.49888
3.053658,3.5796444,-20.119972,-2.0954165,-394.071,-90.39273
5.6544375,2.672564,-18.335415,-0.8108862,-403.11392,-91.20834
8.266093,1.7286042,-16.053774,1.4858456,-400.32812,-87.54349
10.469998,0.990002,-13.669518,4.3263083,-390.9859,-82.50358
12.304327,0.5175269,-11.207352,6.5620728,-373.6511,-75.255424
13.517038,0.44694293,-8.863523,8.504039,-351.72452,-68.23902
14.246665,0.60661435,-6.873187,9.8180895,-326.7614,-62.318695
14.686782,0.8060719,-5.2991667,11.361022,-300.10544,-57.79004
14.955952,0.92374736,-4.1417084,12.783974,-272.54947,-53.68109
15.099339,0.90834785,-3.36284,14.480249,-244.1556,-50.268196
15.117759,0.75043494,-2.924177,16.006493,-216.1816,-46.835278
15.0707855,0.5587685,-2.6701849,17.66572,-188.26888,-43.436974
14.981099,0.38308313,-2.586071,19.307129,-160.28094,-39.88941
14.842921,0.25519717,-2.6590774,20.911764,-132.39748,-36.147163
14.637196,0.19566242,-2.8845248,22.806337,-105.08219,-32.0654
14.29296,0.20958187,-3.2886147,25.259249,-79.88355,-28.199778
13.883295,0.27062142,-3.74808,27.493782,-57.57148,-25.064003
13.460945,0.37450197,-4.2044306,28.708427,-37.88547,-22.66672
13.093514,0.51297265,-4.612764,28.252516,-20.229734,-20.845798
12.80452,0.6681213,-4.978243,25.749464,-3.6217198,-18.927235
12.522634,0.84648854,-5.37804,22.994423,11.677528,-16.418371
12.146652,1.0559819,-5.803447,20.780005,24.425894,-14.496727
11.733304,1.3104305,-6.196519,18.91347,34.44712,-14.367495
11.32871,1.6046665,-6.53768,16.676083,42.138897,-16.220757
10.974061,1.8579754,-6.825029,13.083562,47.95768,-19.231575
10.657297,2.0351546,-7.103408,8.685026,52.714115,-22.481754
10.303271,2.1537697,-7.414172,3.99976,56.003345,-26.14386
9.891714,2.2384279,-7.750571,-0.34226722,57.588894,-30.87006
9.440022,2.3138287,-8.096785,-4.281034,57.013157,-36.719948
8.97542,2.3914957,-8.441118,-8.453696,53.185856,-43.8363
8.491542,2.3736625,-8.806279,-12.986566,46.96462,-50.97647
8.00539,2.2349205,-9.198124,-17.290384,38.348347,-57.778675
7.5139985,1.9474957,-9.618305,-20.466425,27.046743,-63.974655
7.0581837,1.5061895,-10.050793,-21.988594,12.369367,-69.60548
6.789609,0.86639506,-10.431925,-20.991581,-6.3583493,-72.70564
7.040408,-0.13213149,-10.562396,-17.788862,-25.003672,-70.55532
7.6322727,-1.2572416,-10.436881,-11.801007,-39.972683,-61.526096
8.189721,-2.2045937,-10.259361,-1.368619,-50.154156,-47.683994
8.517594,-2.757094,-10.194154,12.723034,-58.786213,-31.954092
8.830269,-2.7806847,-10.008754,24.699385,-66.67856,-17.226711
9.120201,-1.9294139,-9.3556185,29.650782,-73.62453,-9.208834
9.464796,-1.2882617,-8.491965,32.635586,-75.8714,-6.050114
9.679271,-0.774145,-7.6892834,32.183273,-74.94723,-2.2546422
9.66352,-0.21704374,-7.0318866,28.442226,-73.239265,1.4413695
9.532693,0.2347744,-6.4947743,22.435162,-70.45158,3.7723238
9.259968,0.50653434,-6.1315274,16.955206,-67.674614,4.230773
8.957449,0.48998612,-5.9312134,16.401289,-65.463715,4.0925555
8.66568,0.4740259,-5.738017,15.867052,-63.33138,3.9592495
8.384198,0.45862845,-5.551633,15.351654,-61.27423,3.8306441
8.112571,0.44377002,-5.3717737,14.854299,-59.289097,3.7065406
7.8503876,0.4294282,-5.198168,14.374234,-57.37298,3.586752
7.5972605,0.41558173,-5.0305586,13.910753,-55.523052,3.471101
7.352824,0.4022107,-4.868704,13.463184,-53.736637,3.359421
7.1167316,0.38929608,-4.712374,13.030894,-52.011204,3.251553
6.8886547,0.3768199,-4.5613523,12.613279,-50.34435,3.1473472
6.668281,0.36476514,-4.415431,12.209771,-48.73379,3.0466611
6.455315,0.3531156,-4.2744145,11.819826,-47.177376,2.9493594
6.2494755,0.34185582,-4.138117,11.442928,-45.673035,2.8553135
6.0504937,0.3309712,-4.00636,11.0785885,-44.218815,2.764401
5.8581142,0.3204478,-3.8789756,10.726337,-42.81285,2.676505
5.6720943,0.31027222,-3.7558017,10.385732,-41.45336,2.5915148
5.492202,0.30043182,-3.636685,10.056344,-40.138653,2.5093238
5.3182144,0.29091445,-3.5214784,9.737769,-38.8671,2.429831
5.14992,0.28170848,-3.4100416,9.429618,-37.637154,2.3529394
4.9871163,0.27280286,-3.3022404,9.13152,-36.44734,2.278556
4.829609,0.26418698,-3.197946,8.843121,-35.296223,2.2065928
4.6772118,0.2558506,-3.097036,8.564078,-34.18246,2.1369643
4.529747,0.24778406,-2.9993913,8.294067,-33.104744,2.0695894
4.387044,0.23997799,-2.9048998,8.032775,-32.06183,2.00439
4.248938,0.2324234,-2.8134525,7.7799,-31.05251,1.941291
4.1152725,0.2251117,-2.7249453,7.535156,-30.075642,1.8802208
3.985896,0.2180346,-2.6392782,7.2982645,-29.130121,1.8211101
3.8606634,0.21118417,-2.5563548,7.0689607,-28.214882,1.7638928
3.7394347,0.20455278,-2.4760828,6.846988,-27.328907,1.7085048
3.622076,0.19813308,-2.3983731,6.6321015,-26.471214,1.6548849
3.5084577,0.19191799,-2.3231404,6.424064,-25.640858,1.602974
3.3984556,0.1859007,-2.250302,6.2226477,-24.83693,1.5527153
3.2919497,0.18007468,-2.1797788,6.027633,-24.058554,1.5040541
3.188825,0.17443359,-2.111494,5.8388095,-23.304886,1.4569376
3.0889697,0.16897136,-2.0453746,5.655972,-22.575113,1.4113147
2.992277,0.16368212,-1.981349,5.4789257,-21.868454,1.367137
2.8986433,0.1585602,-1.919349,5.3074803,-21.18415,1.3243568
2.8079689,0.15360017,-1.8593086,5.1414533,-20.521477,1.2829287
2.7201576,0.14879677,-1.801164,4.980669,-19.879725,1.2428088
2.6351168,0.14414491,-1.7448539,4.8249574,-19.25822,1.2039546
2.5527568,0.13963969,-1.6903188,4.6741543,-18.65631,1.1663252
2.4729908,0.13527636,-1.6375015,4.528101,-18.073357,1.1298811
2.3957355,0.1310504,-1.5863466,4.3866453,-17.508753,1.0945841
2.3209105,0.12695734,-1.5368007,4.2496386,-16.961906,1.0603973
2.2484374,0.12299295,-1.4888124,4.1169386,-16.432253,1.0272852
2.178241,0.119153105,-1.4423316,3.9884076,-15.919236,0.99521327
2.1102486,0.11543382,-1.3973101,3.8639123,-15.422328,0.9641484
2.04439,0.111831255,-1.3537016,3.7433236,-14.941013,0.9340583
1.9805971,0.10834168,-1.3114609,3.6265173,-14.474795,0.90491205
1.918804,0.104961514,-1.2705444,3.513373,-14.023194,0.87667954
1.8589475,0.10168727,-1.2309101,3.4037743,-13.585745,0.8493318
1.8009659,0.098515585,-1.1925173,3.2976086,-13.161998,0.82284063
1.7447999,0.09544321,-1.1553267,3.1947672,-12.751519,0.79717904
1.6903919,0.09246701,-1.1193002,3.095145,-12.3538885,0.7723206
1.6376863,0.08958393,-1.084401,2.9986398,-11.9687,0.74824005
1.5866293,0.08679104,-1.0505934,2.9051535,-11.595561,0.7249127
1.5371689,0.08408549,-1.017843,2.8145905,-11.23409,0.70231485
1.4892547,0.08146451,-0.9861164,2.7268586,-10.883919,0.6804234
1.4428381,0.078925446,-0.95538145,2.6418686,-10.544692,0.65921617
1.3978717,0.07646572,-0.9256068,2.5595343,-10.216064,0.6386716
1.3543102,0.07408283,-0.89676225,2.4797719,-9.897703,0.61876875
1.312109,0.07177436,-0.8688186,2.4025006,-9.589285,0.59948754
1.2712256,0.069537975,-0.84174746,2.3276422,-9.290497,0.58080834
1.2316185,0.06737141,-0.8155215,2.255121,-9.001037,0.5627124
1.1932478,0.06527247,-0.7901141,2.184863,-8.720612,0.5451812
1.1560744,0.06323904,-0.76549965,2.116798,-8.448937,0.5281971
1.120061,0.06126905,-0.74165326,2.0508568,-8.185741,0.511743
1.0851712,0.059360523,-0.7185508,1.9869727,-7.930756,0.49580228
1.0513698,0.05751153,-0.696169,1.9250815,-7.683725,0.48035878
1.0186226,0.05572021,-0.6744853,1.8651206,-7.444399,0.46539697
0.9868967,0.053984754,-0.65347785,1.8070298,-7.2125363,0.45090178
0.95616007,0.052303415,-0.6331255,1.7507503,-6.9879036,0.43685856
0.92638177,0.050674494,-0.6134077,1.6962256,-6.770275,0.42325318
0.89753187,0.04909636,-0.59430456,1.6434008,-6.559431,0.410072
0.8695812,0.04756742,-0.57579696,1.5922226,-6.3551598,0.39730167
0.8425019,0.046086136,-0.5578662,1.5426396,-6.1572556,0.38492942
0.8162665,0.04465102,-0.5404943,1.4946021,-5.9655194,0.37294278
0.79084873,0.04326063,-0.5236639,1.4480616,-5.779759,0.3613297
0.7662231,0.04191357,-0.5073579,1.4029714,-5.599787,0.35007852
0.7423647,0.04060848,-0.49155998,1.3592863,-5.425423,0.3391779
0.7192498,0.03934406,-0.4762543,1.3169624,-5.256492,0.32861695
0.696855,0.038119033,-0.4614255,1.275957,-5.0928245,0.31838503
0.6751579,0.036932167,-0.4470587,1.2362292,-4.934256,0.3084719
0.6541368,0.03578228,-0.43313947,1.197739,-4.7806273,0.29886758
0.63377047,0.03466821,-0.41965383,1.1604478,-4.631784,0.28956243
0.6140385,0.033588845,-0.40658826,1.1243182,-4.4875774,0.28054717
0.5949213,0.0325431,-0.39392966,1.0893141,-4.3478622,0.2718127
0.57639945,0.031529926,-0.38166535,1.0554001,-4.212499,0.26335028
0.55845445,0.03054831,-0.369783,1.0225425,-4.081352,0.25515142
0.5410684,0.029597266,-0.35827073,0.99070823,-3.9542894,0.24720792
0.52422374,0.02867584,-0.347117,0.95986533,-3.831184,0.23951182
0.5079037,0.027783109,-0.33631063,0.929983,-3.7119122,0.23205538
0.49209192,0.026918178,-0.32584077,0.90103126,-3.5963547,0.22483115
0.4767725,0.026080184,-0.31569695,0.8729811,-3.484396,0.21783188
0.46193013,0.025268283,-0.305869,0.84580433,-3.3759234,0.21105057
0.44754994,0.024481663,-0.2963471,0.81947386,-3.2708287,0.20448042
0.4336175,0.02371954,-0.28712168,0.7939633,-3.1690063,0.19811486
0.4201189,0.022981144,-0.27818352,0.76924706,-3.0703545,0.1919475
0.4070406,0.022265742,-0.26952368,0.7453004,-2.9747744,0.18597218
0.3943695,0.021572614,-0.26113346,0.72209936,-2.8821704,0.1801829
0.38209295,0.020901067,-0.2530045,0.69962066,-2.7924495,0.17457388
0.3701986,0.020250428,-0.2451286,0.6778419,-2.705522,0.16913949
0.35867462,0.019620048,-0.23749793,0.6567412,-2.6213012,0.16387431
0.34750938,0.019009294,-0.23010483,0.6362974,-2.5397024,0.15877305
0.33669177,0.018417554,-0.2229419,0.6164901,-2.4606442,0.1538306
0.32621095,0.017844237,-0.21600199,0.5972995,-2.3840473,0.14904204
0.31605643,0.017288769,-0.20927812,0.5787064,-2.309835,0.14440255
0.30621806,0.016750595,-0.20276359,0.5606921,-2.2379332,0.13990751
0.29668596,0.016229175,-0.19645187,0.5432386,-2.1682696,0.1355524
0.2874506,0.015723987,-0.19033664,0.52632844,-2.100775,0.13133287
0.27850276,0.015234526,-0.18441181,0.50994474,-2.0353816,0.12724471
0.26983348,0.014760303,-0.1786714,0.49407113,-1.9720238,0.123283826
0.26143408,0.014300844,-0.17310971,0.47869164,-1.9106386,0.11944623
0.25329617,0.013855687,-0.16772115,0.46379092,-1.8511642,0.11572811
0.24541159,0.013424388,-0.16250034,0.44935408,-1.7935413,0.11212574
0.23777246,0.013006516,-0.15744205,0.43536666,-1.7377123,0.10863551
0.23037113,0.012601652,-0.15254124,0.42181465,-1.683621,0.10525393
0.2232002,0.012209392,-0.14779297,0.40868455,-1.6312138,0.10197761
0.2162525,0.011829342,-0.14319253,0.39596316,-1.580438,0.09880329
0.20952109,0.011461123,-0.13873528,0.38363776,-1.5312427,0.09572778
0.2029992,0.011104367,-0.1344168,0.37169605,-1.4835789,0.09274801
0.19668035,0.010758716,-0.13023274,0.3601261,-1.4373988,0.089861
0.1905582,0.010423824,-0.12617892,0.3489163,-1.3926563,0.08706385
