ax,ay,az,gx,gy,gz
-2.2227473,1.0745553,-4.8245893,30.351187,21.084738,37.731255
-2.7322109,1.2467717,-5.3188815,22.811008,20.402561,31.095377
-3.2411292,1.2720524,-5.913545,17.924414,15.564587,23.019016
-3.7960765,1.1386194,-6.5570107,14.492599,7.645161,15.127638
-4.3623347,0.9017278,-7.232788,12.235279,-2.666574,7.4340844
-4.8900266,0.52677274,-7.931687,11.907397,-17.103653,0.9514999
-5.3279104,-0.111185685,-8.662067,13.143644,-33.91469,-1.9109666
-5.504482,-0.7310711,-9.215114,15.441988,-52.45582,-1.0725294
-5.413925,-1.1986398,-9.527306,18.378874,-70.918205,2.3417728
-5.1329737,-1.5337287,-9.602862,21.804081,-88.42148,6.9156823
-4.7487755,-1.7164803,-9.4574585,26.56783,-105.76998,11.798579
-4.1636424,-1.6712947,-8.9292145,31.12009,-121.598045,15.819642
-3.3545516,-1.4981917,-8.050333,34.247295,-134.63655,19.175278
-2.305215,-1.2858709,-6.83923,35.447315,-143.52177,22.418634
-1.1223305,-1.0332867,-5.369252,35.508724,-146.89401,25.994345
0.036377378,-0.70452726,-3.806749,35.48513,-142.53844,28.612135
1.0761034,-0.33266848,-2.2695525,35.483593,-132.92067,30.068272
1.8944523,0.037300132,-0.9678549,35.052723,-119.18476,30.795311
2.4411545,0.37863216,-0.0053240927,34.10513,-103.54142,31.052134
2.7550552,0.66182387,0.64499474,32.23316,-87.243996,30.937206
2.9055636,0.87231284,1.0310264,29.307283,-70.54889,30.38335
2.9020574,1.008312,1.1287422,26.40227,-54.71237,29.588984
2.7993195,1.1035962,1.0619397,23.84021,-40.551247,28.206758
2.637,1.1564012,0.88423705,22.092194,-28.326443,26.510672
2.4435825,1.1963735,0.65185934,20.709927,-17.848322,24.398493
2.247556,1.2252923,0.37865683,19.190804,-9.008059,22.033134
2.0315356,1.2377968,0.04335524,17.917221,-1.4515576,19.573477
1.7873899,1.2524143,-0.33353627,16.86297,4.536899,16.773178
1.5350617,1.2732824,-0.73314613,15.884474,9.112098,13.76675
1.2745746,1.3237468,-1.1491469,15.020871,11.921713,10.638121
1.006762,1.3973516,-1.5639112,13.948852,12.145862,7.1262965
0.7531973,1.4853477,-1.9611218,12.447512,10.765042,3.38183
0.52943385,1.5670561,-2.3393922,10.52774,8.1431265,-0.5127744
0.32435688,1.6212741,-2.7067034,8.42695,4.4070845,-4.3599014
0.11999236,1.650118,-3.064853,6.461815,-0.5094127,-8.198762
-0.088102475,1.6530633,-3.4130502,4.86981,-7.450741,-12.3506365
-0.28583387,1.6182265,-3.7199388,3.2497342,-15.885817,-16.752113
-0.42392778,1.5482585,-3.9652102,1.1734954,-25.524607,-20.927517
-0.4597015,1.430552,-4.113793,-1.6779321,-35.942158,-24.247847
-0.37008977,1.247374,-4.130109,-5.189672,-46.152916,-26.287086
-0.16957961,0.9664046,-4.0124364,-8.144137,-54.76201,-26.926403
0.13035901,0.5668225,-3.744751,-9.673566,-61.2509,-27.090248
0.4471495,0.16212143,-3.4031358,-9.568324,-65.70773,-27.073206
0.78291875,-0.20949209,-3.0034463,-8.589347,-68.539536,-26.66727
1.135206,-0.5671144,-2.560004,-7.359437,-70.01796,-25.27244
1.4822114,-0.9074162,-2.0809417,-6.04108,-69.10557,-22.540491
1.7868074,-1.2032727,-1.604796,-4.5453973,-66.147285,-19.356653
2.0140371,-1.454152,-1.2029696,-2.294039,-61.49004,-16.096964
2.1540275,-1.6471891,-0.9027013,1.0034003,-55.828907,-12.782548
2.2187502,-1.7789018,-0.6967076,4.986016,-49.892498,-9.354782
2.2344418,-1.8483497,-0.5650798,9.340478,-44.061775,-5.426505
2.1997578,-1.7985322,-0.49778578,13.232453,-38.549595,-1.4117273
2.1443434,-1.6620462,-0.46101165,16.091557,-33.52016,2.1221406
2.0680938,-1.4894445,-0.44837144,18.662512,-28.95791,5.1476107
1.9843771,-1.2868211,-0.44193238,21.119638,-24.565321,7.70266
1.9056233,-1.0310003,-0.44015253,22.861927,-20.402943,9.770902
1.8119512,-0.7226863,-0.44675705,23.900417,-16.480623,11.155588
1.7006562,-0.39788476,-0.46269262,24.41733,-12.814041,11.780121
1.5795941,-0.045025088,-0.48197767,24.283636,-9.474203,11.670445
1.4550489,0.3278692,-0.5011964,23.440956,-6.4817,10.753539
1.3353502,0.70876074,-0.52672106,21.55939,-3.95553,8.728966
1.2345824,1.0577223,-0.5713415,19.002172,-1.7214756,6.025846
1.1441051,1.347981,-0.63577294,15.876999,0.3402466,2.8367884
1.0545926,1.5717542,-0.724193,12.415005,2.1319668,-0.7223168
0.9609142,1.7310247,-0.8343837,8.63591,3.4988925,-4.597152
0.859677,1.8063519,-0.9618445,4.6506934,3.9764545,-8.888463
0.7615884,1.7432381,-1.0963229,0.80077577,3.682752,-13.2316265
0.697716,1.5777103,-1.2148064,-2.8976068,2.7429028,-17.121557
0.6768062,1.3191882,-1.3062167,-6.3040357,1.4545294,-20.124397
0.68771774,0.99804944,-1.366189,-9.193624,0.06331975,-22.113998
0.71259356,0.65042126,-1.3895853,-11.14742,-1.0444598,-22.982046
0.73451364,0.30857322,-1.3721745,-12.386259,-1.6031576,-23.184774
0.7443094,-0.0071136216,-1.3360326,-13.101546,-1.4960457,-22.737331
0.72282827,-0.295403,-1.2912177,-13.319001,-0.9453063,-21.78586
0.6999298,-0.28604493,-1.2503133,-12.897068,-0.9153599,-21.095705
0.67778057,-0.27699307,-1.2107472,-12.488942,-0.8863935,-20.428133
0.65635395,-0.26823652,-1.172472,-12.0941305,-0.85837203,-19.782341
0.6356244,-0.25976485,-1.135442,-11.712163,-0.8312622,-19.157558
0.61556745,-0.25156805,-1.0996134,-11.342589,-0.8050319,-18.553047
0.59615964,-0.24363652,-1.0649444,-10.984976,-0.77965057,-17.9681
0.5773785,-0.2359611,-1.0313948,-10.63891,-0.7550888,-17.40204
0.55920243,-0.22853296,-0.99892616,-10.303993,-0.73131835,-16.854218
0.5416107,-0.22134364,-0.9675014,-9.979844,-0.7083121,-16.324009
0.52458346,-0.214385,-0.937085,-9.666097,-0.6860441,-15.810812
0.5081016,-0.20764925,-0.9076427,-9.362398,-0.6644893,-15.314053
0.49214673,-0.20112886,-0.87914187,-9.06841,-0.6436237,-14.833177
0.47670114,-0.19481662,-0.85155076,-8.783806,-0.6234242,-14.367651
0.46174785,-0.18870555,-0.8248391,-8.508273,-0.6038684,-13.916963
0.44727048,-0.182789,-0.7989776,-8.241509,-0.58493507,-13.4806185
0.43325326,-0.17706048,-0.77393806,-7.9832253,-0.56660354,-13.058143
0.419681,-0.17151381,-0.7496934,-7.7331395,-0.5488539,-12.649078
0.40653905,-0.16614302,-0.7262174,-7.490983,-0.531667,-12.252984
0.39381334,-0.1609423,-0.7034849,-7.256496,-0.5150244,-11.869433
0.3814902,-0.15590613,-0.6814716,-7.029427,-0.4989084,-11.498017
0.36955658,-0.15102912,-0.66015404,-6.809535,-0.48330173,-11.138341
0.35799974,-0.14630613,-0.6395096,-6.596586,-0.46818784,-10.790021
0.3468075,-0.14173213,-0.6195165,-6.3903556,-0.4535508,-10.45269
0.3359681,-0.13730231,-0.6001536,-6.190626,-0.43937513,-10.125993
0.32547012,-0.13301203,-0.58140063,-5.997188,-0.425646,-9.809587
0.31530258,-0.1288568,-0.5632379,-5.8098383,-0.41234902,-9.5031395
0.30545485,-0.12483225,-0.5456465,-5.6283817,-0.39947024,-9.206331
0.29591665,-0.12093422,-0.5286081,-5.452629,-0.38699633,-8.918853
0.28667814,-0.11715865,-0.51210487,-5.2823977,-0.3749143,-8.640406
0.27772966,-0.11350162,-0.4961199,-5.1175113,-0.3632116,-8.370702
0.269062,-0.10995936,-0.4806365,-4.957799,-0.35187614,-8.109461
0.26066622,-0.10652819,-0.46563876,-4.8030963,-0.34089622,-7.856414
0.25253367,-0.1032046,-0.45111123,-4.653244,-0.33026055,-7.6113
0.24465594,-0.09998517,-0.43703893,-4.508087,-0.31995818,-7.373868
0.237025,-0.09686657,-0.42340744,-4.3674774,-0.3099785,-7.1438727
0.22963297,-0.09384563,-0.4102028,-4.2312703,-0.3003113,-6.921079
0.22247234,-0.09091924,-0.39741147,-4.099327,-0.29094672,-6.70526
0.21553576,-0.08808443,-0.38502038,-3.9715118,-0.28187513,-6.496193
0.20881616,-0.08533828,-0.37301686,-3.8476949,-0.27308732,-6.293666
0.20230669,-0.08267801,-0.3613887,-3.7277498,-0.2645743,-6.0974717
0.19600071,-0.08010091,-0.3501241,-3.6115544,-0.25632742,-5.907411
0.18989182,-0.077604346,-0.33921152,-3.4989905,-0.24833828,-5.723291
0.1839738,-0.07518579,-0.32863992,-3.3899438,-0.24059877,-5.5449233
0.17824066,-0.072842784,-0.3183986,-3.2843037,-0.23310103,-5.372128
0.17268656,-0.07057296,-0.30847707,-3.1819627,-0.22583745,-5.204729
0.1673059,-0.06837401,-0.29886538,-3.0828173,-0.2188007,-5.0425572
0.16209322,-0.06624371,-0.28955376,-2.9867673,-0.2119836,-4.8854485
0.15704325,-0.064179905,-0.28053278,-2.8937151,-0.2053793,-4.7332435
0.15215087,-0.062180504,-0.27179334,-2.8035672,-0.19898112,-4.5857882
0.14741115,-0.06024349,-0.2633266,-2.716232,-0.19278257,-4.4429345
0.1428193,-0.05836691,-0.25512397,-2.6316216,-0.18677741,-4.3045373
0.1383707,-0.05654887,-0.24717724,-2.5496507,-0.18095958,-4.170458
0.13406084,-0.05478753,-0.23947838,-2.4702363,-0.1753232,-4.04056
0.1298854,-0.053081125,-0.2320196,-2.3932984,-0.1698626,-3.914713
0.12584016,-0.051427927,-0.22479342,-2.31876,-0.16457227,-3.7927902
0.12192103,-0.049826276,-0.21779254,-2.2465453,-0.1594469,-3.6746688
0.1181241,-0.048274558,-0.21100992,-2.176582,-0.1544813,-3.5602303
0.11444552,-0.04677121,-0.20443872,-2.1087997,-0.14967051,-3.449359
0.110881604,-0.04531472,-0.19807236,-2.0431302,-0.14500967,-3.3419433
0.10742877,-0.043903627,-0.19190441,-1.9795074,-0.14049408,-3.2378757
0.10408354,-0.04253651,-0.18592869,-1.9178674,-0.13611923,-3.1370513
0.10084256,-0.041211996,-0.18013918,-1.8581483,-0.13188072,-3.0393689
0.09770256,-0.039928753,-0.17453009,-1.8002901,-0.12777427,-2.9447303
0.09466041,-0.038685497,-0.16909577,-1.7442346,-0.12379577,-2.8530405
0.09171303,-0.037480973,-0.16383074,-1.6899257,-0.11994123,-2.7642074
0.08885748,-0.036313977,-0.15872976,-1.6373086,-0.11620677,-2.6781418
0.08609089,-0.035183333,-0.15378769,-1.5863308,-0.11258866,-2.5947576
0.08341048,-0.034087915,-0.14899956,-1.5369409,-0.10908325,-2.5139706
0.080813564,-0.033026617,-0.14436059,-1.4890895,-0.10568704,-2.4357004
0.07829754,-0.031998374,-0.13986611,-1.4427286,-0.10239661,-2.359868
0.07585988,-0.03100216,-0.13551162,-1.3978118,-0.09920866,-2.2863975
0.073498145,-0.030036975,-0.13129275,-1.354294,-0.096120015,-2.2152154
0.07120997,-0.029101849,-0.12720528,-1.3121314,-0.093127556,-2.1462502
0.06899305,-0.028195845,-0.123245105,-1.271282,-0.0902283,-2.079433
0.06684517,-0.027318059,-0.119408265,-1.2317046,-0.08741932,-2.0146964
0.06476418,-0.026467606,-0.11569091,-1.1933597,-0.084697835,-1.9519758
0.06274799,-0.025643637,-0.112089306,-1.1562091,-0.08206109,-1.8912085
0.06079459,-0.024845326,-0.108599864,-1.1202152,-0.07950645,-1.8323334
0.05890201,-0.024071876,-0.10521907,-1.0853422,-0.07703136,-1.7752917
0.057068367,-0.023322508,-0.10194356,-1.0515549,-0.07463334,-1.720026
0.055291817,-0.022596473,-0.09877004,-1.0188198,-0.072309986,-1.6664813
0.053570583,-0.021893045,-0.095695324,-0.987104,-0.07005898,-1.6146038
0.051902942,-0.021211518,-0.09271635,-0.95637566,-0.06787806,-1.5643414
0.050287224,-0.020551212,-0.08983013,-0.92660403,-0.06576504,-1.5156441
0.048721813,-0.019911464,-0.08703377,-0.8977594,-0.06371781,-1.468463
0.047205135,-0.019291636,-0.08432447,-0.8698128,-0.061734322,-1.4227508
0.045735683,-0.018691104,-0.08169953,-0.8427363,-0.05981259,-1.3784618
0.044311978,-0.01810927,-0.0791563,-0.8165028,-0.057950687,-1.3355517
0.0429326,-0.01754555,-0.07669226,-0.791086,-0.05614675,-1.2939776
0.041596163,-0.016999379,-0.07430493,-0.76646054,-0.054398973,-1.2536978
0.040301334,-0.016470212,-0.07199192,-0.74260175,-0.052705612,-1.214672
0.039046817,-0.015957521,-0.06975093,-0.7194857,-0.051064968,-1.176861
0.03783135,-0.015460789,-0.067579694,-0.69708925,-0.049475398,-1.1402273
0.036653727,-0.014979522,-0.06547606,-0.6753901,-0.047935314,-1.1047341
0.035512764,-0.0145132365,-0.06343791,-0.65436643,-0.046443176,-1.0703456
0.03440732,-0.014061468,-0.061463207,-0.63399726,-0.04499749,-1.0370278
0.03333629,-0.013623762,-0.05954998,-0.6142622,-0.043596808,-1.0047473
0.032298602,-0.013199683,-0.057696313,-0.59514153,-0.04223973,-0.9734716
0.031293213,-0.012788805,-0.055900354,-0.57661605,-0.0409249,-0.94316953
0.030319126,-0.012390718,-0.054160297,-0.55866724,-0.039651,-0.91381073
0.029375361,-0.012005024,-0.052474413,-0.5412772,-0.038416754,-0.8853659
0.028460976,-0.011631335,-0.050841007,-0.52442855,-0.03722093,-0.85780656
0.027575053,-0.01126928,-0.04925845,-0.5081043,-0.036062334,-0.8311051
0.026716711,-0.010918495,-0.047725156,-0.49228832,-0.0349398,-0.80523485
0.025885087,-0.01057863,-0.046239592,-0.47696462,-0.033852212,-0.7801699
0.025079349,-0.010249344,-0.04480027,-0.4621179,-0.03279848,-0.7558852
