ax,ay,az,gx,gy,gz
-2.9409356,1.805471,-6.9127903,6.436422,32.0712,35.62305
-3.5189207,1.8047701,-8.060223,1.7992444,22.111992,39.50099
-4.0085425,1.6313043,-9.143726,-3.2793872,4.6109443,45.730343
-4.7749023,1.414575,-10.253262,-4.82256,-14.552583,43.918682
-5.345339,1.1771002,-11.128665,-5.6051693,-34.309494,38.28797
-5.6208234,0.90634215,-11.823446,-4.546337,-53.499622,32.25471
-5.634693,0.6438179,-12.361036,-4.0368953,-72.877754,28.574532
-5.4672194,0.32238796,-12.722949,-5.0942593,-94.19257,29.08718
-5.2221074,-0.110830136,-12.932291,-4.617547,-115.57253,31.306547
-4.8256164,-0.60502154,-12.847709,-1.772043,-137.72281,33.358875
-4.0005393,-0.9266327,-12.269709,3.613769,-158.10141,33.389854
-2.5707808,-0.92804277,-10.99415,11.042777,-172.7232,31.575397
-0.6249993,-0.58436596,-8.989978,16.17096,-176.07054,30.071604
1.2817048,-0.14388517,-6.519627,19.708553,-171.20096,30.008873
2.8213217,0.32976338,-4.1592174,21.240757,-160.08601,30.282188
4.031498,0.79619706,-2.0914974,20.873232,-145.39131,30.890017
4.866229,1.2055866,-0.5084746,18.781574,-127.667725,31.61917
5.322286,1.4932795,0.5136792,16.083393,-107.193275,31.718952
5.4255977,1.6433479,0.93769836,13.31999,-86.599144,31.163513
5.3385935,1.7088773,1.0156486,10.530565,-67.38913,30.000452
5.139904,1.7461222,0.8723566,8.419936,-50.39332,28.21455
4.8808517,1.7709733,0.59070694,7.026418,-35.609093,25.876158
4.568836,1.7858448,0.19610865,6.7500925,-23.71388,23.257738
4.193401,1.8079315,-0.28179118,6.5073633,-14.701491,20.55342
3.7788749,1.8533278,-0.83277124,6.0804725,-8.423262,18.026508
3.3838813,1.9484282,-1.3839532,5.3294487,-4.2825637,15.512961
3.006154,2.0961878,-1.935898,4.330952,-1.7372446,12.692823
2.6361797,2.2608345,-2.4842975,3.326612,-1.3197443,8.994783
2.2805073,2.4468346,-3.005401,2.21347,-2.5140464,4.564939
1.9663599,2.618444,-3.4801815,0.74191576,-5.30847,-0.20514743
1.7089512,2.7658627,-3.9002454,-1.3691646,-9.4186735,-4.797186
1.5077864,2.871375,-4.2657046,-4.261338,-14.518943,-9.092115
1.3515142,2.8956926,-4.58256,-7.652196,-20.467136,-13.095737
1.2064469,2.7486086,-4.8426456,-10.674457,-26.750734,-16.78131
1.0724481,2.486137,-5.039826,-13.20622,-33.567093,-20.234985
0.99048775,2.0911646,-5.141543,-15.550576,-41.15697,-22.95777
1.000984,1.5547239,-5.0999937,-17.79032,-49.18749,-24.023952
1.1243479,0.92864937,-4.8945627,-18.603548,-56.57126,-23.35194
1.406734,0.29328316,-4.4666567,-17.539413,-62.32074,-22.599531
1.807614,-0.26022285,-3.8667717,-14.992119,-65.67946,-21.695057
2.256723,-0.73020035,-3.1647525,-12.078176,-66.848236,-19.809067
2.6721911,-1.1140851,-2.4556267,-9.072391,-65.83401,-16.613527
3.0047762,-1.3788967,-1.8195442,-5.7133875,-62.24498,-12.417724
3.2272348,-1.4921185,-1.3347682,-2.129933,-57.298374,-8.104831
3.35631,-1.5094048,-0.9885821,1.4758954,-51.511658,-3.8326924
3.391501,-1.450316,-0.7778037,4.5636363,-45.47335,0.14369349
3.3527222,-1.3612883,-0.6835819,7.454499,-39.5261,3.831769
3.26318,-1.2361599,-0.68033797,10.202802,-34.021362,7.1062603
3.1409795,-1.051738,-0.7551977,12.778673,-29.19478,10.016616
3.0026839,-0.8105162,-0.86134607,15.213572,-25.264372,12.474809
2.8578358,-0.49767813,-0.9617405,17.055433,-22.053185,14.390525
2.7171166,-0.11511823,-1.0368941,18.371677,-19.524734,15.609807
2.5902324,0.33728558,-1.0866742,18.997639,-17.526728,15.449225
2.4875095,0.8312603,-1.110867,19.139217,-15.561177,14.145586
2.4002013,1.3357196,-1.1179608,18.73164,-13.482709,11.899678
2.3320467,1.8403862,-1.1061805,17.642143,-11.412277,8.962994
2.2885735,2.3362536,-1.0760864,15.6550665,-9.33503,5.529253
2.2562406,2.791952,-1.0585501,12.077546,-7.3968415,1.415464
2.2338214,3.1136177,-1.0913323,7.852511,-5.8052535,-3.3046753
2.2392995,3.3032038,-1.1452621,3.366079,-4.423311,-8.527083
2.2885654,3.3365889,-1.2047286,-1.2397164,-3.0504375,-13.773522
2.3516252,3.2057161,-1.2784095,-5.605164,-1.7058606,-18.63657
2.4101655,2.9278212,-1.3750275,-9.329669,-0.64670104,-22.707222
2.4440162,2.5049162,-1.4954898,-12.258359,0.039342448,-26.042942
2.4602315,2.0252647,-1.6030327,-14.306885,0.5172483,-28.543432
2.4559214,1.5174187,-1.6879923,-15.474118,0.8592663,-30.019827
2.4223056,1.0220714,-1.7374107,-15.608043,1.1212182,-30.313553
2.348941,0.60270196,-1.7442755,-14.80021,1.3528565,-29.833897
2.2331069,0.28576723,-1.7088803,-13.0546465,1.5377133,-29.025347
2.1619,0.276655,-1.6543895,-12.638375,1.4886804,-28.09982
2.0930657,0.26784638,-1.6017141,-12.235972,1.4412811,-27.205128
2.0265152,0.25933003,-1.5507866,-11.846922,1.3954546,-26.340124
1.9621649,0.2510952,-1.5015426,-11.470732,1.3511431,-25.503714
1.899934,0.24313162,-1.4539206,-11.106934,1.3082911,-24.694853
1.839746,0.23542945,-1.4078618,-10.755076,1.2668457,-23.912544
1.7815275,0.22797932,-1.3633102,-10.414733,1.2267566,-23.155836
1.7252083,0.22077222,-1.320212,-10.085494,1.1879752,-22.423813
1.6707212,0.21379961,-1.2785159,-9.766965,1.1504556,-21.715605
1.618002,0.20705321,-1.2381727,-9.458771,1.1141533,-21.030375
1.5669892,0.20052518,-1.1991352,-9.160551,1.0790259,-20.367321
1.5176234,0.1942079,-1.1613581,-8.871962,1.0450326,-19.725677
1.469848,0.18809418,-1.1247982,-8.592669,1.0121347,-19.104706
1.4236088,0.182177,-1.0894136,-8.322355,0.98029435,-18.5037
1.3788532,0.1764497,-1.0551645,-8.060717,0.9494757,-17.921978
1.335531,0.17090583,-1.0220124,-7.807457,0.9196442,-17.358889
1.293594,0.16553922,-0.98992014,-7.5622954,0.89076644,-16.813803
1.2529957,0.16034393,-0.9588524,-7.3249598,0.86281055,-16.286116
1.2136915,0.15531422,-0.92877483,-7.095188,0.8357457,-15.775249
1.1756381,0.15044458,-0.89965457,-6.87273,0.80954224,-15.280642
1.1387942,0.14572974,-0.8714599,-6.6573424,0.7841716,-14.801754
1.1031199,0.14116454,-0.8441602,-6.4487915,0.7596063,-14.338068
1.0685767,0.1367441,-0.8177261,-6.2468534,0.73581994,-13.889085
1.0351274,0.13246365,-0.7921291,-6.0513105,0.71278685,-13.45432
1.0027364,0.12831862,-0.767342,-5.861954,0.69048244,-13.03331
0.9713692,0.12430461,-0.7433382,-5.6785827,0.668883,-12.625607
0.9409924,0.12041734,-0.7200925,-5.5010014,0.6479656,-12.230777
0.91157395,0.116652705,-0.69758004,-5.3290224,0.62770814,-11.848404
0.88308287,0.11300675,-0.6757773,-5.1624646,0.6080892,-11.478084
0.8554892,0.10947563,-0.65466136,-5.0011535,0.5890883,-11.119429
0.8287641,0.106055655,-0.63421,-4.844919,0.57068545,-10.772062
0.8028796,0.10274326,-0.61440194,-4.6935997,0.5528614,-10.435622
0.7778087,0.09953498,-0.5952165,-4.5470366,0.5355977,-10.109757
0.75352556,0.09642749,-0.5766338,-4.405078,0.51887625,-9.79413
0.7300047,0.09341758,-0.5586346,-4.267576,0.5026799,-9.488414
0.70722204,0.09050211,-0.5412002,-4.13439,0.4869918,-9.19229
0.68515396,0.08767809,-0.5243126,-4.0053806,0.47179577,-8.905455
0.6637777,0.08494261,-0.50795454,-3.8804162,0.45707613,-8.627612
0.64307135,0.08229285,-0.49210903,-3.7593677,0.44281775,-8.358476
0.6230136,0.079726085,-0.47675988,-3.6421108,0.42900604,-8.097771
0.60358393,0.0772397,-0.46189132,-3.5285258,0.41562676,-7.845228
0.5847624,0.074831136,-0.4474882,-3.418496,0.4026663,-7.6005907
0.5665298,0.07249794,-0.43353572,-3.3119087,0.39011136,-7.3636084
0.54886746,0.070237726,-0.4200197,-3.2086558,0.37794915,-7.1340384
0.53175753,0.06804819,-0.40692633,-3.1086316,0.36616725,-6.9116473
0.51518244,0.065927096,-0.3942423,-3.0117345,0.35475367,-6.6962085
0.49912536,0.0638723,-0.38195464,-2.9178655,0.3436968,-6.487503
0.48357004,0.061881706,-0.37005097,-2.8269298,0.33298543,-6.285319
0.4685006,0.0599533,-0.3585191,-2.7388346,0.32260865,-6.0894504
0.45390186,0.058085117,-0.34734744,-2.6534908,0.31255597,-5.899699
0.43975893,0.056275267,-0.3365246,-2.5708117,0.3028172,-5.7158732
0.42605755,0.054521922,-0.32603964,-2.490714,0.29338244,-5.537786
0.41278383,0.052823305,-0.31588194,-2.4131165,0.28424218,-5.3652577
0.39992434,0.0511777,-0.30604127,-2.3379407,0.27538717,-5.1981134
0.38746613,0.04958344,-0.29650766,-2.2651105,0.26680845,-5.036185
0.37539658,0.04803892,-0.28727147,-2.1945524,0.2584974,-4.879308
0.36370355,0.04654258,-0.27832338,-2.1261954,0.2504456,-4.727325
0.3523752,0.04509291,-0.2696544,-2.0599704,0.24264492,-4.5800824
0.34140018,0.04368845,-0.26125577,-1.9958107,0.23508753,-4.4374313
0.33076736,0.042327788,-0.25311902,-1.9336518,0.22776578,-4.2992287
0.32046607,0.041009545,-0.24523598,-1.8734308,0.22067234,-4.165335
0.31048593,0.0397324,-0.2375987,-1.8150873,0.21380003,-4.035616
0.3008169,0.03849507,-0.23019949,-1.7585626,0.20714195,-3.9099402
0.29144922,0.037296306,-0.22303091,-1.7037997,0.2006914,-3.788182
0.28237355,0.036134906,-0.21608576,-1.6507436,0.1944419,-3.6702187
0.2735807,0.035009697,-0.20935707,-1.599341,0.18838717,-3.5559316
0.26506186,0.033919558,-0.20283803,-1.5495403,0.18252112,-3.445206
0.2568085,0.032863382,-0.19652216,-1.5012914,0.17683785,-3.3379304
0.24881226,0.03184012,-0.19040306,-1.4545459,0.17133166,-3.2339976
0.24106517,0.030848736,-0.18447462,-1.4092567,0.16599703,-3.133303
0.23355943,0.029888239,-0.17873086,-1.3653784,0.16082859,-3.0357454
0.22628753,0.028957663,-0.17316605,-1.3228672,0.15582117,-2.941227
0.21924214,0.028056078,-0.16777459,-1.2816802,0.15096973,-2.849653
0.21241623,0.027182575,-0.16255108,-1.2417761,0.14626943,-2.7609313
0.20580292,0.02633628,-0.15749025,-1.2031151,0.14171551,-2.6749732
0.1993956,0.025516346,-0.15258707,-1.1656581,0.13730344,-2.5916927
0.19318785,0.024721948,-0.1478366,-1.1293678,0.13302879,-2.5110059
0.18717343,0.023952292,-0.14323407,-1.0942079,0.12888728,-2.432832
0.18134631,0.023206607,-0.13877489,-1.0601428,0.12487474,-2.3570926
0.17570068,0.022484144,-0.13445458,-1.0271386,0.12098716,-2.2837121
0.17023085,0.021784179,-0.1302688,-0.99516225,0.11722065,-2.2126167
0.16493136,0.02110601,-0.12621337,-0.96418166,0.11357143,-2.1437354
0.1597969,0.02044896,-0.12228424,-0.9341658,0.110035844,-2.076999
0.1548223,0.019812372,-0.11847745,-0.90508455,0.10661036,-2.0123405
0.15000263,0.019195603,-0.114789195,-0.8769089,0.10329153,-1.9496955
0.145333,0.01859804,-0.111215785,-0.84961057,0.10007604,-1.889001
0.14080879,0.018019084,-0.107753634,-0.8231622,0.09696068,-1.8301964
0.13642545,0.017458152,-0.104399286,-0.7975373,0.09394231,-1.7732228
0.13217857,0.016914688,-0.10114938,-0.77271026,0.091017924,-1.7180231
0.12806393,0.016388142,-0.09800065,-0.7486563,0.08818459,-1.664542
0.124077395,0.015877992,-0.09494997,-0.72535115,0.085439466,-1.612726
0.12021498,0.015383724,-0.09199426,-0.7027716,0.08277981,-1.5625234
0.11647281,0.014904845,-0.08913057,-0.68089503,0.08020296,-1.5138836
0.11284715,0.014440875,-0.086356044,-0.6596996,0.07770634,-1.4667581
0.109334365,0.013991349,-0.08366789,-0.63916403,0.07528744,-1.4210999
0.10593094,0.013555818,-0.08106343,-0.61926776,0.07294385,-1.3768631
0.102633476,0.013133846,-0.07854005,-0.5999909,0.07067322,-1.3340034
0.09943866,0.012725011,-0.07609523,-0.58131415,0.06847328,-1.2924781
0.09634331,0.012328904,-0.07372651,-0.56321883,0.066341825,-1.2522455
0.093344316,0.0119451275,-0.07143155,-0.5456869,0.064276725,-1.2132654
0.090438694,0.011573299,-0.06920802,-0.5287007,0.062275916,-1.1754988
0.087623514,0.011213046,-0.06705371,-0.51224333,0.06033739,-1.1389079
0.084895976,0.010864006,-0.06496647,-0.49629825,0.058459215,-1.103456
0.08225335,0.010525834,-0.0629442,-0.48084956,0.056639504,-1.0691079
0.07969299,0.010198188,-0.06098489,-0.4658818,0.054876443,-1.035829
0.077212326,0.009880742,-0.05908657,-0.45137995,0.053168263,-1.0035859
0.07480889,0.009573177,-0.057247344,-0.43732956,0.051513262,-0.97234666
0.07248027,0.009275188,-0.05546537,-0.42371655,0.049909778,-0.94207984
0.070224136,0.008986474,-0.053738873,-0.4105273,0.04835621,-0.9127552
0.06803823,0.008706748,-0.052066114,-0.3977486,0.046851,-0.88434345
0.065920375,0.008435728,-0.05044543,-0.3853677,0.04539265,-0.85681605
