ax,ay,az,gx,gy,gz
1.4091036,-1.1745561,4.941863,-12.872844,-51.38138,-11.374649
2.0989785,-1.1847734,5.8634152,-24.915144,-41.760376,-3.2215133
2.654831,-1.335442,6.4226813,-36.430145,-27.31797,8.234239
2.9912379,-1.559088,6.6308455,-41.736317,-13.502993,15.46751
3.1468668,-1.71889,6.5991096,-43.039276,-0.5542715,19.653296
3.2223523,-1.7639215,6.4700093,-43.694237,10.789609,23.006735
3.2889557,-1.7539418,6.3080125,-44.609943,20.618008,26.875109
3.3249016,-1.7139874,6.08596,-44.434395,29.662416,31.720135
3.3061376,-1.5927944,5.787475,-44.00882,37.83501,36.443104
3.2686353,-1.4446955,5.4445305,-42.44798,45.178757,40.166973
3.2297735,-1.2818652,5.0929265,-40.395832,51.980785,43.14395
3.1960208,-1.079503,4.7633967,-38.430004,58.4609,45.910503
3.1546533,-0.8210864,4.4532814,-37.198727,64.86179,48.532146
3.0755525,-0.4777711,4.1314974,-37.036213,70.554146,50.63921
2.975197,-0.11250609,3.807962,-37.74039,75.775314,51.969604
2.84627,0.23948193,3.4533343,-38.469894,80.15449,52.551582
2.6878076,0.582029,3.0861928,-39.28375,83.46375,52.423492
2.5088003,0.91598165,2.7201355,-40.29964,85.72804,51.076057
2.3052917,1.27133,2.3731441,-41.77698,87.15472,48.54901
2.106509,1.6109942,2.0514724,-43.81151,87.6861,44.669353
1.9130896,1.8767135,1.7411819,-46.019394,87.22155,39.835506
1.7358136,2.044555,1.4452184,-48.05291,86.21104,35.275517
1.5454743,2.176249,1.1497626,-49.158886,84.52618,30.498486
1.3411824,2.2982817,0.8723956,-49.514645,82.37572,24.912678
1.1545318,2.3639884,0.6138549,-49.097454,79.85201,18.91992
0.9853208,2.3758957,0.3631277,-48.57801,76.9668,13.128678
0.8390582,2.3223631,0.10502645,-48.325455,73.5809,7.9067607
0.7090742,2.2058744,-0.17333044,-47.984993,69.46502,3.0308383
0.60683733,1.9769521,-0.4780794,-47.117126,64.959625,-1.3944871
0.5331556,1.6808493,-0.78000504,-45.362988,60.141865,-5.171195
0.4940121,1.327048,-1.0689567,-42.629894,54.97925,-8.086424
0.50117284,0.91051173,-1.331159,-39.15688,49.56584,-9.418853
0.5485104,0.44989341,-1.5617117,-34.797832,44.250385,-7.6471434
0.6111825,0.02902055,-1.7364416,-29.614641,39.317623,-4.491013
0.65529215,-0.2932345,-1.8386774,-23.439474,34.64767,-1.0100222
0.6930537,-0.47998247,-1.8413714,-16.79424,30.367214,2.021571
0.7318196,-0.54435676,-1.7454777,-10.4386015,26.279932,4.470585
0.77170175,-0.5163148,-1.5536319,-5.497954,22.608559,6.878745
0.8055992,-0.36778688,-1.2566129,-2.3017695,19.46124,9.249916
0.8326725,-0.15574993,-0.91477394,-0.59284145,16.901703,11.384517
0.8512217,0.09416863,-0.5602926,-0.060913738,15.0633,13.040726
0.85982275,0.35135797,-0.22503127,-0.2930025,13.901175,14.1734
0.8590112,0.6068788,0.0732464,-0.98794985,13.528394,14.481121
0.8533675,0.8529649,0.3096554,-1.8938373,13.651862,14.099526
0.84743947,1.0793521,0.4905873,-2.974742,14.150315,13.219375
0.8371035,1.2904456,0.61802953,-4.358179,14.850584,11.992204
0.8199455,1.4865499,0.6934804,-6.0216007,15.599906,10.387998
0.79624754,1.6605582,0.72320014,-7.977517,16.279007,8.225142
0.76944095,1.7888023,0.7031117,-9.907173,16.962154,5.6931176
0.7365386,1.8723836,0.64163905,-11.704785,17.614202,2.938202
0.6950696,1.9136529,0.54316753,-13.308863,18.158485,0.13623308
0.6479801,1.9159132,0.41445246,-14.587,18.429884,-2.7402542
0.60027534,1.8907604,0.26808056,-15.639159,18.217918,-5.829573
0.5663049,1.8014581,0.099036865,-16.471054,17.670816,-8.875852
0.53866637,1.6614124,-0.08353084,-17.013218,16.786182,-11.592489
0.51204526,1.4805511,-0.26931113,-17.199043,15.601756,-13.900953
0.4881376,1.2715267,-0.44345093,-17.11315,14.179528,-15.573301
0.4646022,1.0452784,-0.60487527,-16.476303,12.482631,-16.467138
0.44442543,0.80491966,-0.7480045,-15.413619,10.591307,-16.800528
0.42574736,0.5643721,-0.87279075,-13.963229,8.512695,-16.62706
0.40756547,0.32967553,-0.97641605,-12.100071,6.3012137,-15.96208
0.39095962,0.11327047,-1.0523748,-9.829552,4.0366187,-14.822073
0.37460792,-0.059575967,-1.0870401,-7.1053686,1.7620122,-13.350849
0.364367,-0.17305587,-1.0660158,-4.158427,-0.43402246,-11.879275
0.36663958,-0.24432011,-1.0050772,-1.275372,-2.501638,-10.369875
0.37699026,-0.28226277,-0.91288954,1.4367664,-4.4634185,-8.735622
0.3958989,-0.2911637,-0.7876174,4.0607367,-6.16884,-6.8673315
0.42962041,-0.26806113,-0.6332101,6.6058354,-7.150834,-4.369001
0.46846813,-0.19958593,-0.46598053,8.971808,-7.3942003,-0.8961876
0.45353013,-0.19322176,-0.45112187,8.685725,-7.1584225,-0.867611
0.43908983,-0.18706962,-0.43675825,8.409174,-6.9305,-0.83998644
0.4251287,-0.18112163,-0.42287123,8.141799,-6.71014,-0.81327856
0.41162908,-0.17537025,-0.4094433,7.8832626,-6.497065,-0.78745353
0.39857408,-0.16980831,-0.39645764,7.633242,-6.291008,-0.7624791
0.38594767,-0.16442895,-0.38389826,7.3914285,-6.0917153,-0.7383245
0.37373438,-0.15922563,-0.37174985,7.1575274,-5.8989434,-0.71496034
0.36191958,-0.15419205,-0.35999775,6.9312572,-5.712461,-0.6923584
0.3504891,-0.14932221,-0.34862798,6.7123485,-5.532045,-0.6704917
0.33942953,-0.14461039,-0.33762714,6.500542,-5.357483,-0.64933455
0.32872787,-0.14005107,-0.32698232,6.295591,-5.1885705,-0.6288621
0.31837177,-0.13563895,-0.3166812,6.097257,-5.0251117,-0.6090507
0.3083493,-0.131369,-0.30671197,5.905313,-4.8669195,-0.58987755
0.29864907,-0.1272363,-0.29706323,5.7195406,-4.7138133,-0.57132083
0.28926012,-0.12323624,-0.28772414,5.5397286,-4.5656195,-0.55335957
0.28017187,-0.119364284,-0.27868414,5.3656764,-4.4221725,-0.5359736
0.2713742,-0.11561613,-0.2699332,5.197189,-4.2833123,-0.5191435
0.26285735,-0.11198762,-0.2614616,5.03408,-4.1488843,-0.50285065
0.25461197,-0.10847477,-0.25326,4.8761697,-4.018741,-0.48707712
0.24662903,-0.10507371,-0.24531941,4.7232847,-3.8927398,-0.4718056
0.2388998,-0.10178076,-0.23763123,4.5752597,-3.7707434,-0.45701945
0.23141593,-0.09859233,-0.2301871,4.4319334,-3.6526196,-0.44270268
0.22416934,-0.095505,-0.222979,4.2931514,-3.538241,-0.42883983
0.21715227,-0.092515446,-0.21599917,4.1587644,-3.4274848,-0.41541603
0.21035717,-0.08962047,-0.20924017,4.0286293,-3.3202326,-0.4024169
0.20377687,-0.086817,-0.20269479,3.902607,-3.2163703,-0.38982865
0.19740433,-0.08410204,-0.19635609,3.780564,-3.1157875,-0.37763786
0.19123283,-0.08147274,-0.19021738,3.6623716,-3.018378,-0.3658317
0.18525589,-0.078926325,-0.18427216,3.5479047,-2.9240391,-0.35439768
0.1794672,-0.076460116,-0.17851421,3.4370434,-2.8326719,-0.34332386
0.17386071,-0.074071534,-0.17293751,3.3296719,-2.7441802,-0.33259857
0.16843058,-0.071758084,-0.16753621,3.2256773,-2.6584723,-0.3222106
0.16317114,-0.06951736,-0.1623047,3.1249518,-2.5754585,-0.31214923
0.15807693,-0.06734702,-0.15723754,3.0273907,-2.4950526,-0.3024039
0.15314268,-0.06524483,-0.15232947,2.9328928,-2.417171,-0.29296458
0.14836325,-0.06320861,-0.14757544,2.84136,-2.3417337,-0.28382146
0.14373374,-0.06123625,-0.1429705,2.7526987,-2.2686625,-0.2749651
0.13924937,-0.059325732,-0.13850994,2.6668167,-2.1978822,-0.26638645
0.13490552,-0.057475083,-0.13418916,2.583626,-2.12932,-0.25807658
0.13069774,-0.055682402,-0.13000374,2.5030415,-2.062905,-0.25002703
0.12662172,-0.053945854,-0.12594935,2.42498,-1.9985701,-0.24222954
0.12267328,-0.052263662,-0.12202188,2.349362,-1.9362488,-0.2346761
0.11884838,-0.05063411,-0.11821729,2.27611,-1.8758774,-0.22735901
0.115143135,-0.049055524,-0.11453172,2.2051494,-1.8173946,-0.22027081
0.11155375,-0.047526307,-0.11096139,2.1364076,-1.7607405,-0.21340425
0.10807658,-0.046044894,-0.107502684,2.069815,-1.7058575,-0.20675236
0.104708076,-0.044609778,-0.10415207,2.0053036,-1.6526898,-0.20030837
0.10144483,-0.043219507,-0.10090615,1.9428079,-1.6011834,-0.19406572
0.09828352,-0.041872665,-0.09776163,1.8822646,-1.5512861,-0.18801807
0.095220946,-0.040567886,-0.09471532,1.823612,-1.502947,-0.18215932
0.092254,-0.03930385,-0.09176412,1.766791,-1.4561174,-0.1764835
0.089379676,-0.038079277,-0.088905066,1.7117437,-1.4107497,-0.17098486
0.08659507,-0.036892924,-0.08613525,1.6584147,-1.3667982,-0.16565788
0.083897375,-0.035743598,-0.083451875,1.6067501,-1.3242183,-0.16049713
0.08128385,-0.034630135,-0.08085223,1.5566975,-1.282967,-0.15549742
0.07875187,-0.033551406,-0.07833369,1.5082065,-1.2430027,-0.15065369
0.07629886,-0.03250633,-0.075893715,1.4612281,-1.2042849,-0.14596105
0.07392237,-0.031493854,-0.07352984,1.4157151,-1.1667749,-0.14141478
0.071619995,-0.030512948,-0.07123969,1.3716214,-1.1304346,-0.13701029
0.06938941,-0.02956263,-0.06902095,1.3289026,-1.0952276,-0.13274314
0.06722837,-0.028641943,-0.06687138,1.2875158,-1.0611182,-0.12860903
0.065134704,-0.027749958,-0.06478883,1.2474191,-1.0280722,-0.124603815
0.063106306,-0.02688578,-0.06277121,1.2085725,-0.9960564,-0.12072345
0.06114113,-0.026048537,-0.060816467,1.1709367,-0.9650385,-0.116964035
0.059237204,-0.025237389,-0.058922652,1.1344739,-0.9349873,-0.113321796
0.057392612,-0.024451522,-0.057087857,1.0991474,-0.9058727,-0.10979306
0.055605505,-0.023690144,-0.05531024,1.0649219,-0.8776654,-0.10637429
0.053874083,-0.02295249,-0.05358801,1.0317628,-0.850337,-0.103062056
0.05219661,-0.022237819,-0.051919445,0.9996369,-0.8238601,-0.09985302
0.050571404,-0.021545416,-0.050302867,0.9685119,-0.7982082,-0.09674396
0.048996825,-0.020874584,-0.04873665,0.9383566,-0.7733554,-0.093731776
0.047471303,-0.020224651,-0.047219228,0.9091407,-0.7492769,-0.09081342
0.045993302,-0.019594964,-0.045749072,0.88083494,-0.7259484,-0.08798598
0.044561338,-0.018984891,-0.044324715,0.8534109,-0.7033466,-0.08524661
0.04317398,-0.018393822,-0.042944722,0.82684106,-0.6814488,-0.08259257
0.041829832,-0.017821161,-0.04160771,0.80109876,-0.6602331,-0.08002119
0.04052755,-0.017266337,-0.040312346,0.7761583,-0.6396781,-0.0775299
0.039265826,-0.016728792,-0.03905732,0.75199455,-0.6197634,-0.0751162
0.038043395,-0.01620799,-0.037841383,0.72858334,-0.6004688,-0.07277767
0.036859035,-0.015703406,-0.036663312,0.7059012,-0.5817751,-0.070511974
0.03571156,-0.015214535,-0.03552193,0.68392545,-0.5636636,-0.06831683
0.034599815,-0.014740889,-0.034416087,0.662634,-0.54611605,-0.06619004
0.03352269,-0.014281991,-0.033344682,0.6420056,-0.52911496,-0.06412949
0.032479107,-0.013837383,-0.03230664,0.6220195,-0.5126433,-0.062133092
0.03146802,-0.013406619,-0.03130092,0.6026558,-0.49668446,-0.060198862
0.030488413,-0.012989269,-0.030326517,0.583895,-0.48122257,-0.05832486
0.029539308,-0.012584913,-0.029382452,0.56571835,-0.4662421,-0.056509208
0.028619755,-0.012193147,-0.028467784,0.5481077,-0.45172808,-0.054750085
0.027728833,-0.011813579,-0.027581593,0.5310453,-0.43766597,-0.05304574
0.026865652,-0.011445829,-0.026722994,0.51451415,-0.4240417,-0.051394455
0.026029343,-0.011089529,-0.025891125,0.4984977,-0.41084158,-0.049794585
0.025219074,-0.010744322,-0.025085159,0.48297992,-0.39805245,-0.04824452
0.02443403,-0.010409862,-0.024304284,0.46794525,-0.38566148,-0.04674272
0.023673426,-0.010085816,-0.02354772,0.45337868,-0.3736563,-0.045287676
0.022936504,-0.009771857,-0.02281471,0.43926558,-0.36202487,-0.04387793
0.022222523,-0.0094676735,-0.02210452,0.42559186,-0.35075554,-0.04251207
0.02153077,-0.009172959,-0.02141644,0.41234386,-0.33983707,-0.041188736
0.020860553,-0.0088874195,-0.020749781,0.39950827,-0.3292585,-0.0399066
0.0202112,-0.00861077,-0.020103877,0.38707227,-0.31900924,-0.038664375
0.019582063,-0.008342733,-0.01947808,0.37502342,-0.30907908,-0.037460823
0.01897251,-0.008083039,-0.018871766,0.36334965,-0.29945803,-0.03629474
0.018381935,-0.00783143,-0.018284325,0.3520393,-0.29013652,-0.03516496
0.017809743,-0.0075876545,-0.017715173,0.34108105,-0.28110516,-0.034070347
0.017255364,-0.007351467,-0.017163737,0.33046395,-0.27235496,-0.03300981
0.016718242,-0.007122632,-0.016629469,0.32017735,-0.26387715,-0.031982288
0.016197842,-0.006900921,-0.01611183,0.31021094,-0.25566328,-0.030986752
0.015693642,-0.0066861114,-0.015610307,0.3005548,-0.24770507,-0.030022208
0.0152051365,-0.006477989,-0.015124396,0.29119927,-0.23999462,-0.029087689
0.014731837,-0.0062763453,-0.014653611,0.28213495,-0.23252417,-0.02818226
0.014273273,-0.006080978,-0.014197481,0.2733528,-0.22528628,-0.027305018
0.013828983,-0.005891693,-0.01375555,0.26484403,-0.2182737,-0.026455082
