ax,ay,az,gx,gy,gz
6.0246,-2.0182002,4.6154966,33.0703,67.25061,30.018456
6.512693,-1.9980931,4.769159,37.495583,95.20273,38.63181
6.7293134,-1.9476491,4.5331964,36.36496,122.86033,48.731777
6.624704,-1.8821266,3.9576056,34.261093,140.94077,57.630833
6.47323,-1.8233039,3.29098,34.12454,151.10275,65.47997
6.3363314,-1.8556896,2.6766849,35.54783,157.24727,71.037125
6.346418,-1.8360375,2.3643,35.640053,163.09833,74.67965
6.4064336,-1.7532191,2.239225,34.28298,170.23761,76.523834
6.4404497,-1.5814087,2.1209283,31.011972,178.95792,78.99575
6.270382,-1.3340254,1.8351886,26.478634,186.26958,82.90506
5.868983,-1.010078,1.4385645,22.187073,190.81921,86.2736
5.462255,-0.67820925,1.1134601,18.3405,193.71455,88.23232
5.102608,-0.3354009,0.88991916,14.849373,196.07877,89.10034
4.810078,0.019949691,0.7394039,11.374816,198.90799,89.49978
4.497459,0.40354443,0.5450347,9.112235,201.16507,90.007385
4.0557632,0.8257058,0.27743754,6.583514,201.63101,89.93517
3.5675986,1.2396408,-0.0009505497,3.9102566,199.8555,88.5983
3.109065,1.6288818,-0.23602591,1.3996074,196.55487,85.75248
2.7419813,1.9853395,-0.39435667,-0.6279054,193.31697,81.3957
2.4371104,2.319034,-0.5133289,-2.0093465,190.29575,75.03669
2.1356518,2.653908,-0.6310443,-3.1542032,187.1577,67.81345
1.816,2.974828,-0.77484155,-4.5520215,183.32391,59.793453
1.4968935,3.238833,-0.9532417,-6.5371423,178.47748,51.11707
1.198172,3.4119165,-1.1647123,-9.205254,172.7712,42.131527
0.9328187,3.4731393,-1.4171828,-11.770987,165.72134,32.760506
0.736735,3.3488505,-1.7093049,-13.253008,158.23102,23.412306
0.5919397,3.1075568,-2.0005717,-13.379039,150.61166,14.561354
0.4703212,2.7949872,-2.2746782,-12.314984,142.59868,6.494787
0.3666095,2.4485817,-2.5169265,-10.599233,133.92403,-0.47419116
0.28588933,2.0705762,-2.7271488,-8.467235,123.98033,-6.0413833
0.2946739,1.6061255,-2.8678703,-6.071621,113.701675,-10.06056
0.39677608,1.085178,-2.9234977,-3.495081,104.157974,-11.680207
0.51572645,0.5647021,-2.9290407,-0.6194327,95.62201,-10.953824
0.598368,0.10029502,-2.9090216,2.4834347,87.597176,-8.172481
0.6529948,-0.27971858,-2.8612924,5.5845227,79.52819,-3.538766
0.69490516,-0.5197743,-2.7614093,8.69551,71.75135,1.418157
0.73885834,-0.66407514,-2.6290913,12.164103,64.58215,5.9607296
0.79548144,-0.70757276,-2.442305,15.911078,58.525906,9.8414345
0.86404943,-0.6411091,-2.2020957,19.561125,53.755833,13.111326
0.91556877,-0.4750601,-1.9424024,22.519398,50.040466,15.361388
0.9508487,-0.22933017,-1.6745746,24.497263,46.829914,17.138783
0.98335326,0.07569318,-1.3951544,25.197062,44.20864,18.422184
1.0215676,0.4155502,-1.115328,24.492048,42.452103,19.238632
1.0526915,0.7465438,-0.8646847,22.945791,41.449924,19.518059
1.0637625,1.059748,-0.6570702,20.974125,41.043774,18.728085
1.0685315,1.3393545,-0.5013882,18.713953,40.9919,17.194952
1.0732764,1.5924133,-0.38119024,16.16357,41.235,14.951899
1.0791318,1.806452,-0.30147552,13.360903,41.71524,12.266175
1.0782409,1.9840342,-0.26248944,10.193879,42.278233,9.359146
1.0643996,2.1159894,-0.26786366,6.6200414,42.858295,6.2709475
1.0130194,2.185839,-0.3371104,2.9836986,43.152287,3.0663173
0.9398206,2.2061157,-0.44416875,-0.6131407,43.15023,-0.26084036
0.8462531,2.1773484,-0.5856759,-3.920312,42.736374,-3.624647
0.72307295,2.116067,-0.7505033,-6.83724,41.767586,-7.0366125
0.57548684,2.005849,-0.93345064,-8.944084,40.14534,-10.477396
0.40346754,1.8117397,-1.1508819,-10.147511,37.962418,-13.537701
0.24229103,1.5944883,-1.3616679,-10.658796,35.25295,-15.765917
0.0944759,1.3714529,-1.5677872,-10.563499,32.25935,-17.513565
-0.02961847,1.13233,-1.7684177,-9.733841,28.780752,-19.140781
-0.0975452,0.8802057,-1.9273268,-7.9754357,24.761765,-20.841383
-0.06965769,0.58145946,-2.0148559,-5.8071637,20.807152,-21.938784
-0.0053920574,0.2818645,-2.0577874,-3.4696112,16.905964,-22.074343
0.076288685,-0.0035977196,-2.0618017,-1.0989227,12.931313,-21.207073
0.16840015,-0.26391557,-2.0204713,1.1898746,9.109693,-19.328703
0.24566992,-0.48019382,-1.9482249,3.737857,5.539065,-16.813745
0.30752262,-0.6184172,-1.8389505,6.545769,2.2804396,-14.474799
0.38217774,-0.7125289,-1.704703,9.718017,-0.49201557,-12.332621
0.4670116,-0.73567325,-1.5421034,13.023272,-2.7627206,-10.256943
0.54838705,-0.6825403,-1.3601861,16.217424,-4.756342,-8.282207
0.6315995,-0.57531935,-1.1640759,18.681917,-6.4652767,-6.270393
0.705194,-0.41410443,-0.9688637,20.339434,-8.086167,-4.1721077
0.7682703,-0.24408996,-0.7889685,21.730415,-9.437857,-2.122082
0.8085896,-0.0748054,-0.636581,23.333195,-10.527793,-0.4130995
0.7829448,-0.07243292,-0.6163916,22.593174,-10.1939,-0.3999979
0.75814193,-0.07013831,-0.59686494,21.877445,-9.870967,-0.38732636
0.7341506,-0.06791879,-0.5779772,21.185135,-9.558601,-0.37506944
0.710942,-0.065771684,-0.5597057,20.515411,-9.256427,-0.36321244
0.68848836,-0.063694425,-0.54202855,19.867476,-8.964082,-0.35174114
0.6667633,-0.061684567,-0.524925,19.240562,-8.681223,-0.34064204
0.6457414,-0.059739754,-0.508375,18.63394,-8.407518,-0.32990217
0.6253982,-0.057857737,-0.49235934,18.046904,-8.142652,-0.31950906
0.60571045,-0.056036357,-0.4768597,17.47878,-7.8863177,-0.3094508
0.5866557,-0.05427353,-0.4618584,16.928925,-7.6382256,-0.29971594
0.56821233,-0.052567273,-0.4473384,16.39671,-7.3980937,-0.29029343
0.55035967,-0.050915666,-0.4332835,15.881543,-7.1656537,-0.2811727
0.53307784,-0.049316864,-0.41967797,15.382847,-6.940645,-0.2723436
0.51634765,-0.0477691,-0.40650678,14.90007,-6.7228193,-0.26379633
0.50015074,-0.046270665,-0.39375535,14.432681,-6.511936,-0.2555215
0.48446932,-0.04481992,-0.3814098,13.980167,-6.3077645,-0.24751005
0.4692863,-0.04341529,-0.36945662,13.542036,-6.1100826,-0.2397532
0.45458525,-0.042055245,-0.35788286,13.117813,-5.918676,-0.2322426
0.44035032,-0.04073832,-0.34667608,12.70704,-5.7333374,-0.22497013
0.4265662,-0.039463107,-0.33582422,12.309277,-5.5538692,-0.21792798
0.4132182,-0.038228236,-0.32531568,11.924097,-5.380079,-0.21110862
0.40029204,-0.037032392,-0.31513926,11.551092,-5.211781,-0.20450479
0.38777405,-0.03587431,-0.30528417,11.189864,-5.0487976,-0.1981095
0.375651,-0.034752764,-0.29574,10.840034,-4.890956,-0.19191596
0.36391008,-0.033666573,-0.2864967,10.50123,-4.7380896,-0.18591766
0.352539,-0.032614596,-0.27754456,10.173099,-4.590039,-0.1801083
0.34152582,-0.03159573,-0.2688742,9.855295,-4.446648,-0.17448178
0.33085907,-0.03060891,-0.26047653,9.547488,-4.3077674,-0.16903226
0.3205276,-0.029653111,-0.25234285,9.249357,-4.1732526,-0.16375403
0.31052074,-0.02872734,-0.2444647,8.960591,-4.042963,-0.15864162
0.30082804,-0.027830636,-0.2368339,8.680893,-3.916765,-0.15368973
0.2914395,-0.02696207,-0.22944255,8.409971,-3.7945268,-0.14889324
0.28234544,-0.026120748,-0.22228305,8.147548,-3.6761227,-0.14424719
0.2735365,-0.025305804,-0.215348,7.8933506,-3.5614307,-0.13974679
0.26500362,-0.024516396,-0.2086303,7.6471195,-3.4503329,-0.13538744
0.256738,-0.023751715,-0.202123,7.4086018,-3.342715,-0.13116463
0.24873121,-0.02301098,-0.19581945,7.177552,-3.238467,-0.12707403
0.24097504,-0.02229343,-0.18971322,6.953735,-3.1374822,-0.123111494
0.23346156,-0.021598332,-0.18379806,6.736921,-3.0396569,-0.11927294
0.22618309,-0.020924976,-0.17806792,6.526889,-2.9448917,-0.11555445
0.21913223,-0.020272676,-0.17251697,6.323425,-2.85309,-0.111952245
0.21230179,-0.019640768,-0.16713955,6.126321,-2.764158,-0.10846265
0.20568484,-0.019028611,-0.16193019,5.9353776,-2.6780055,-0.10508212
0.19927463,-0.01843558,-0.15688361,5.7504005,-2.594545,-0.101807214
0.19306466,-0.017861076,-0.15199466,5.571202,-2.5136917,-0.09863461
0.18704864,-0.017304514,-0.14725842,5.3975997,-2.4353635,-0.095561095
0.18122049,-0.01676533,-0.14267007,5.2294183,-2.359481,-0.09258355
0.17557427,-0.01624298,-0.13822494,5.0664873,-2.2859676,-0.08969896
0.1701043,-0.015736934,-0.13391858,4.9086423,-2.2147489,-0.086904414
0.16480502,-0.01524668,-0.12974662,4.755723,-2.1457527,-0.084197074
0.15967111,-0.014771724,-0.12570482,4.6075754,-2.0789094,-0.08157422
0.15469737,-0.0143115865,-0.12178913,4.46405,-2.0141516,-0.07903319
0.14987879,-0.0138658015,-0.117995575,4.3250012,-1.9514138,-0.07657142
0.14521049,-0.013433921,-0.11432035,4.19029,-1.8906327,-0.07418644
0.14068778,-0.01301551,-0.110759735,4.0597796,-1.8317473,-0.07187583
0.13630609,-0.012610145,-0.10731015,3.9333389,-1.774698,-0.06963728
0.13206102,-0.012217419,-0.10396813,3.8108404,-1.7194275,-0.067468524
0.1279483,-0.011836938,-0.10073029,3.6921608,-1.6658801,-0.06536738
0.12396379,-0.011468316,-0.09759339,3.577181,-1.6140019,-0.06333173
0.12010346,-0.011111185,-0.09455426,3.465785,-1.5637407,-0.06135954
0.116363466,-0.010765184,-0.09160985,3.357861,-1.515046,-0.059448812
0.11274002,-0.010429966,-0.08875721,3.2533004,-1.4678689,-0.057597633
0.10922948,-0.0101051945,-0.08599346,3.1519983,-1.422162,-0.05580414
0.105828345,-0.0097905435,-0.083315834,3.0538526,-1.3778794,-0.054066535
0.10253318,-0.009485696,-0.08072164,2.958765,-1.3349764,-0.05238307
0.09934067,-0.009190347,-0.07820826,2.86664,-1.2934102,-0.050752055
0.09624763,-0.008904199,-0.075773194,2.7773852,-1.253139,-0.049171854
0.093250945,-0.008626965,-0.07341398,2.6909108,-1.2141223,-0.04764088
0.09034761,-0.008358368,-0.071128264,2.6071303,-1.176321,-0.0461576
0.08753471,-0.008098138,-0.06891375,2.5259595,-1.1396973,-0.04472052
0.08480943,-0.007846012,-0.06676821,2.4473171,-1.1042143,-0.043328207
0.08216904,-0.0076017403,-0.064689495,2.371124,-1.0698365,-0.041979257
0.07961088,-0.0073650763,-0.06267553,2.2973042,-1.0365294,-0.04067232
0.0771324,-0.007135783,-0.06072428,2.2257833,-1.0042597,-0.03940609
0.0747311,-0.0069136308,-0.058833804,2.15649,-0.9729949,-0.038179293
0.072404586,-0.006698397,-0.057002198,2.0893545,-0.9427038,-0.036990706
0.07015052,-0.006489866,-0.055227637,2.0243099,-0.913356,-0.03583913
0.06796665,-0.0062878286,-0.053508334,1.9612906,-0.88492215,-0.034723412
0.06585079,-0.0060920822,-0.05184257,1.9002339,-0.8573737,-0.03364244
0.063800804,-0.005902432,-0.050228674,1.8410783,-0.83068305,-0.032595128
0.06181466,-0.0057186866,-0.048665036,1.7837647,-0.8048236,-0.03158043
0.059890356,-0.0055406624,-0.047150083,1.7282357,-0.77976924,-0.030597324
0.05802597,-0.005368182,-0.0456823,1.6744357,-0.755495,-0.029644828
0.056219634,-0.0052010715,-0.04426022,1.6223109,-0.7319766,-0.028721992
0.054469537,-0.0050391643,-0.042882416,1.571809,-0.7091905,-0.027827887
0.052773934,-0.004882298,-0.04154751,1.5228795,-0.68711376,-0.02696162
0.051131118,-0.0047303154,-0.04025417,1.4754734,-0.66572446,-0.026122326
0.049539454,-0.004583065,-0.039001092,1.4295433,-0.64500105,-0.02530916
0.04799734,-0.004440399,-0.037787028,1.385043,-0.6249228,-0.024521314
0.04650324,-0.004302175,-0.036610764,1.3419282,-0.6054697,-0.023757994
0.045055654,-0.0041682534,-0.035471115,1.3001558,-0.58662224,-0.023018438
0.043653138,-0.0040385015,-0.03436695,1.2596837,-0.5683615,-0.022301907
0.042294282,-0.0039127893,-0.033297163,1.2204717,-0.55066925,-0.021607682
0.04097773,-0.0037909907,-0.032260675,1.1824805,-0.53352785,-0.020935072
0.039702166,-0.0036729837,-0.031256456,1.145672,-0.5169201,-0.0202834
0.03846631,-0.0035586504,-0.030283501,1.1100093,-0.5008293,-0.019652015
0.037268925,-0.0034478765,-0.029340833,1.0754569,-0.48523945,-0.019040285
0.03610882,-0.0033405512,-0.028427511,1.04198,-0.4701349,-0.018447598
0.034984827,-0.0032365667,-0.027542623,1.0095453,-0.45550057,-0.017873364
0.033895824,-0.0031358195,-0.02668528,0.9781204,-0.44132185,-0.017317005
0.032840725,-0.0030382082,-0.025854627,0.9476737,-0.42758447,-0.016777964
0.031818468,-0.0029436357,-0.025049832,0.91817474,-0.41427475,-0.016255705
0.030828033,-0.0028520073,-0.02427009,0.88959414,-0.40137935,-0.015749702
0.029868431,-0.0027632313,-0.02351462,0.8619032,-0.38888538,-0.015259452
0.0289387,-0.0026772185,-0.022782668,0.83507425,-0.37678033,-0.014784463
0.028037911,-0.0025938835,-0.0220735,0.8090805,-0.3650521,-0.01432426
0.027165161,-0.0025131425,-0.02138641,0.7838959,-0.35368896,-0.013878383
