ax,ay,az,gx,gy,gz
6.3427854,-1.1872835,3.5191228,-28.07662,56.707787,17.201065
6.41674,-1.1461723,3.3175187,-26.040857,70.63502,28.11165
6.3224597,-1.0233135,3.2598276,-27.388828,80.86645,38.120213
6.1769314,-0.8628878,3.2395508,-29.111092,91.49148,46.001007
5.8805885,-0.7190725,3.0413451,-28.401161,99.849144,49.60562
5.596345,-0.66428334,2.8120844,-27.044447,106.29413,49.567787
5.3944793,-0.64454657,2.6360896,-26.42509,111.49895,48.312244
5.281194,-0.58817965,2.5496204,-27.944126,117.16861,48.20829
5.1775165,-0.4940595,2.4173386,-30.36058,123.71697,50.981564
4.954775,-0.44372937,2.1374657,-30.923763,129.69229,54.573666
4.704165,-0.4054185,1.8456571,-30.305183,134.72568,57.9261
4.4716234,-0.34369677,1.5992886,-29.571573,139.12512,61.24385
4.2650647,-0.22635745,1.4162456,-30.185602,143.17929,64.65222
4.0709963,-0.07678519,1.2355264,-30.88869,147.98198,68.183784
3.8153634,0.12482183,1.0236869,-31.380255,152.71742,71.11736
3.5034573,0.36299318,0.79324174,-31.98808,156.55103,73.32968
3.1368165,0.65845734,0.5708815,-33.408043,158.68178,74.46507
2.7636237,0.9758835,0.37458053,-34.691505,159.72647,74.38718
2.3921516,1.3091663,0.20831537,-36.395317,159.51038,72.43468
2.037398,1.6386865,0.062695585,-38.71986,158.38872,69.08501
1.708573,1.9358035,-0.083393194,-41.296455,156.63065,64.424904
1.3897038,2.2028625,-0.25291193,-43.31217,154.14035,59.025967
1.063378,2.422004,-0.44165742,-44.877098,150.85814,53.03428
0.7417251,2.618328,-0.64496815,-46.00971,146.57535,46.037704
0.43995544,2.771123,-0.8780943,-46.80841,141.60254,38.520493
0.15641086,2.8647559,-1.1357002,-47.14949,135.81961,30.56275
-0.098641306,2.8938994,-1.4019591,-47.62905,129.3495,22.318743
-0.3149702,2.850342,-1.6759164,-47.767742,122.04649,13.986036
-0.475729,2.747577,-1.9414951,-47.135273,113.586655,5.732451
-0.5287489,2.5496147,-2.1709807,-45.73328,104.80271,-1.9797131
-0.49198288,2.2688375,-2.3585083,-43.66737,96.07916,-8.469897
-0.38981327,1.923231,-2.5080607,-40.889755,87.62755,-13.581428
-0.22253436,1.5408243,-2.6015065,-37.64361,79.75802,-17.398062
-0.0035437297,1.135046,-2.6258779,-34.16411,73.01485,-18.905903
0.21737184,0.7098379,-2.5908144,-30.592665,67.029144,-18.66707
0.3963761,0.30740684,-2.5289524,-26.670973,61.56193,-17.224768
0.5462519,-0.044659052,-2.4338307,-22.363386,56.435608,-15.100484
0.69001067,-0.32876998,-2.2888732,-17.825611,51.963448,-12.490104
0.8217127,-0.5401158,-2.10969,-13.154402,48.493713,-9.29942
0.92253494,-0.6570122,-1.9039459,-8.705251,45.774223,-5.8237214
0.9892788,-0.6923123,-1.6957293,-4.8808746,43.502598,-2.134629
1.0244942,-0.657004,-1.4950045,-1.8573805,41.53706,1.4975163
1.0358913,-0.57375807,-1.3145734,0.43333167,39.72144,5.0688515
1.0245029,-0.43995062,-1.145502,2.194055,38.13101,8.377505
0.98143405,-0.22207154,-0.97527486,3.5613995,36.777172,11.019533
0.9270354,0.041404717,-0.8003691,4.4938993,35.74944,12.632431
0.869289,0.33926347,-0.6257401,4.7832847,35.06535,13.245558
0.8151914,0.6345245,-0.46626404,4.317785,34.744003,12.877077
0.7679982,0.893999,-0.34252653,2.688933,34.774723,11.917794
0.7171415,1.1080043,-0.27202117,0.5428804,34.858,10.667369
0.66131806,1.2914132,-0.23896772,-1.9107084,34.894833,9.144502
0.5980099,1.4518582,-0.23591468,-4.4665484,34.801167,7.1496735
0.5332664,1.5912043,-0.25713107,-7.039417,34.617287,4.584315
0.46842858,1.6971391,-0.3028629,-9.594743,34.17435,1.2768949
0.41123608,1.7346019,-0.37906104,-12.032814,33.576023,-2.1461155
0.35456488,1.734516,-0.4710999,-14.2159605,32.77412,-5.6505623
0.29933524,1.7009252,-0.57000965,-16.22316,31.694393,-9.209899
0.24515072,1.6312197,-0.6720968,-17.969816,30.335617,-12.7246275
0.18915023,1.5229131,-0.7806871,-19.205254,28.554945,-16.043667
0.14341313,1.3626578,-0.8914774,-20.076696,26.595009,-19.032038
0.10799401,1.1683923,-1.0006998,-20.388083,24.404793,-21.63549
0.08466798,0.95753646,-1.0910662,-20.214008,22.10736,-23.740473
0.06632198,0.7334248,-1.1702437,-19.641588,19.657047,-25.231781
0.058024913,0.47600812,-1.242043,-18.305672,17.084726,-25.506506
0.080320895,0.20188296,-1.2867639,-16.74465,14.508443,-24.505194
0.11999743,-0.043362506,-1.3059727,-15.025252,12.10044,-22.771778
0.17290877,-0.26281565,-1.3041468,-12.941707,9.954139,-21.024849
0.2408601,-0.4780555,-1.2928814,-10.41307,7.9623566,-19.428673
0.32441214,-0.6961525,-1.2638223,-7.4099855,6.240262,-17.533342
0.41263002,-0.9089288,-1.22719,-4.266035,4.7217364,-14.963821
0.4808426,-1.089176,-1.1922239,-1.1627069,3.246035,-11.681179
0.52838206,-1.2164165,-1.1526312,1.8357054,1.6970472,-7.785543
0.5599336,-1.2704806,-1.0993276,4.5780087,0.16049105,-3.7124763
0.57798177,-1.2559716,-1.0335077,7.1738505,-1.0834659,-0.21685326
0.59135085,-1.1893514,-0.95879257,9.717331,-1.9366302,2.582046
0.6018775,-1.0759884,-0.8684846,11.990246,-2.4200175,4.918513
0.6106698,-0.91324556,-0.7566229,13.764511,-2.5499775,6.815997
0.61617565,-0.7183083,-0.6335879,14.846872,-2.3691978,8.345272
0.61575985,-0.5117413,-0.51514447,14.761647,-1.9130995,9.801798
0.59634596,-0.49560696,-0.49890283,14.296237,-1.8527827,9.4927635
0.57755893,-0.47999355,-0.4831856,13.845854,-1.7944134,9.193707
0.5593772,-0.46488318,-0.46797472,13.409982,-1.7379247,8.904286
0.54178,-0.45025864,-0.4532529,12.988123,-1.683252,8.62417
0.52474743,-0.43610334,-0.4390035,12.579801,-1.6303338,8.353043
0.5082604,-0.42240143,-0.42521048,12.184556,-1.5791104,8.090599
0.49230054,-0.4091376,-0.41185844,11.8019495,-1.5295247,7.836546
0.47685015,-0.3962972,-0.39893264,11.431556,-1.481522,7.590603
0.4618922,-0.38386604,-0.38641882,11.072968,-1.4350492,7.352499
0.4474103,-0.37183052,-0.37430325,10.725793,-1.3900555,7.121973
0.43338868,-0.36017755,-0.3625728,10.389652,-1.3464919,6.898774
0.41981217,-0.3488945,-0.3512147,10.064181,-1.3043112,6.6826606
0.40666613,-0.33796918,-0.34021673,9.74903,-1.2634678,6.473399
0.39393643,-0.32738987,-0.32956704,9.443861,-1.223918,6.270765
0.38160944,-0.31714523,-0.3192543,9.148345,-1.1856194,6.074541
0.36967206,-0.30722442,-0.3092675,8.86217,-1.1485313,5.8845196
0.35811162,-0.29761684,-0.29959604,8.585031,-1.1126143,5.700498
0.3469159,-0.2883124,-0.2902297,8.316635,-1.0778303,5.522282
0.33607313,-0.27930123,-0.28115863,8.0567,-1.044143,5.3496842
0.32557186,-0.2705739,-0.2723733,7.8049526,-1.0115167,5.182523
0.31540114,-0.26212132,-0.26386446,7.5611296,-0.9799173,5.0206227
0.3055503,-0.25393456,-0.25562328,7.324975,-0.94931185,4.863816
0.29600915,-0.24600516,-0.24764113,7.0962443,-0.9196685,4.7119374
0.28676772,-0.23832487,-0.23990977,6.874699,-0.8909564,4.5648303
0.27781647,-0.23088571,-0.23242114,6.6601105,-0.8631458,4.4223423
0.2691461,-0.22368002,-0.22516753,6.4522552,-0.8362079,4.2843256
0.2607477,-0.21670033,-0.21814142,6.25092,-0.810115,4.150638
0.2526126,-0.20993946,-0.2113356,6.0558963,-0.7848401,4.0211415
0.24473241,-0.20339046,-0.20474304,5.8669844,-0.7603572,3.895703
0.23709907,-0.1970466,-0.19835699,5.6839895,-0.7366413,3.774194
0.22970475,-0.19090138,-0.1921709,5.5067253,-0.71366787,3.6564896
0.22254187,-0.1849485,-0.18617845,5.335009,-0.69141364,3.5424695
0.21560313,-0.1791819,-0.18037349,5.1686664,-0.66985565,3.4320168
0.20888142,-0.17359568,-0.17475012,5.0075264,-0.6489721,3.3250194
0.20236991,-0.16818413,-0.16930258,4.8514256,-0.6287415,3.2213678
0.19606197,-0.16294177,-0.16402537,4.700205,-0.6091434,3.1209567
0.18995117,-0.15786326,-0.15891308,4.55371,-0.5901578,3.0236835
0.1840313,-0.15294342,-0.15396051,4.4117928,-0.5717654,2.9294498
0.17829636,-0.14817727,-0.14916267,4.274309,-0.55394757,2.8381598
0.17274053,-0.14355996,-0.14451467,4.141119,-0.53668624,2.749721
0.16735819,-0.13908684,-0.1400118,4.012088,-0.51996386,2.6640437
0.16214389,-0.13475338,-0.1356495,3.8870847,-0.50376356,2.581041
0.15709233,-0.13055517,-0.13142338,3.7659833,-0.48806894,2.5006294
0.15219842,-0.12648797,-0.12732914,3.6486616,-0.4728641,2.4227273
0.14745723,-0.12254769,-0.12336265,3.5350006,-0.4581337,2.347256
0.14286394,-0.118730344,-0.11951992,3.4248855,-0.4438629,2.274139
0.13841395,-0.11503207,-0.11579705,3.3182056,-0.43003723,2.203303
0.13410275,-0.11144915,-0.112190306,3.2148528,-0.41664279,2.1346765
0.129926,-0.107977964,-0.108696036,3.1147234,-0.40366605,2.0681899
0.12587948,-0.10461502,-0.10531072,3.0177162,-0.391094,2.0037768
0.12195914,-0.10135693,-0.10203097,2.9237335,-0.3789139,1.9413718
0.118161015,-0.09820041,-0.09885346,2.832681,-0.36711353,1.8809125
0.11448129,-0.09514229,-0.095775,2.7444665,-0.35568103,1.8223379
0.110916264,-0.09217949,-0.0927925,2.659002,-0.34460488,1.7655889
0.10746235,-0.08930904,-0.08990296,2.576201,-0.33387393,1.7106087
0.104116075,-0.08652804,-0.08710346,2.4959805,-0.32347742,1.6573421
0.100874074,-0.0838337,-0.084391214,2.41826,-0.3134049,1.6057352
0.0977331,-0.081223324,-0.081763476,2.3429613,-0.3036462,1.5557365
0.094689995,-0.078694284,-0.07921761,2.2700086,-0.2941916,1.5072957
0.091741696,-0.076244034,-0.07675107,2.199329,-0.28503156,1.4603641
0.088885255,-0.07387012,-0.07436137,2.1308513,-0.2761569,1.4148946
0.0861178,-0.071570165,-0.072046116,2.064507,-0.26755872,1.3708416
0.083436556,-0.06934185,-0.069802985,2.0002294,-0.25922838,1.328161
0.08083883,-0.06718295,-0.06762973,1.9379538,-0.25115752,1.2868098
0.078322016,-0.0650913,-0.06552417,1.8776182,-0.24333805,1.2467467
0.0758836,-0.06306479,-0.063484184,1.8191618,-0.23576215,1.2079314
0.07352112,-0.061101403,-0.06150774,1.762526,-0.2284222,1.170325
0.07123222,-0.059199166,-0.05959285,1.7076542,-0.22131084,1.1338899
0.06901461,-0.057356168,-0.057737596,1.6544913,-0.21442096,1.0985894
0.06686606,-0.05557057,-0.05594012,1.602984,-0.20774564,1.0643884
0.06478442,-0.053840574,-0.054198623,1.5530807,-0.20127821,1.0312524
0.0627676,-0.05216445,-0.052511353,1.5047314,-0.19501218,0.99914825
0.06081359,-0.05054052,-0.050876625,1.4578876,-0.18894127,0.9680438
0.05892042,-0.04896716,-0.049292803,1.4125026,-0.1830594,0.93790793
0.057086203,-0.047442794,-0.047758296,1.3685309,-0.17736068,0.9087105
0.0553091,-0.045965888,-0.04627157,1.3259282,-0.1718394,0.8804221
0.053587325,-0.04453497,-0.044831134,1.2846521,-0.16649005,0.8530146
0.051919166,-0.043148607,-0.04343555,1.2446611,-0.16130725,0.8264604
0.05030294,-0.04180541,-0.04208342,1.2059153,-0.15628582,0.80073303
0.048737038,-0.04050403,-0.040773388,1.1683758,-0.15142073,0.77580667
0.04721989,-0.03924317,-0.03950414,1.1320052,-0.14670712,0.7516564
0.045749977,-0.038021564,-0.038274415,1.0967668,-0.14214025,0.728258
0.04432583,-0.03683799,-0.03708297,1.0626256,-0.13771558,0.7055881
0.04294602,-0.03569127,-0.035928622,1.0295473,-0.13342865,0.68362397
0.041609164,-0.034580246,-0.03481021,0.99749887,-0.12927519,0.6623436
0.04031393,-0.03350381,-0.033726618,0.9664482,-0.12525104,0.64172584
0.03905902,-0.03246089,-0.03267676,0.9363641,-0.121352166,0.6217499
0.037843175,-0.031450436,-0.03165959,0.90721667,-0.11757467,0.60239583
0.036665186,-0.030471439,-0.03067408,0.8789766,-0.11391477,0.5836443
0.035523865,-0.029522918,-0.02971925,0.85161567,-0.11036882,0.56547654
0.034418076,-0.028603926,-0.028794147,0.8251065,-0.10693325,0.54787433
0.03334671,-0.027713545,-0.027897844,0.79942256,-0.10360463,0.5308201
0.032308698,-0.02685088,-0.027029442,0.7745382,-0.10037964,0.51429677
0.031302996,-0.02601507,-0.026188074,0.7504285,-0.097255036,0.49828783
0.030328603,-0.025205279,-0.025372898,0.7270694,-0.0942277,0.48277724
0.029384544,-0.024420695,-0.024583098,0.7044374,-0.09129461,0.46774948
0.028469872,-0.023660537,-0.023817884,0.6825099,-0.08845282,0.45318955
0.027583674,-0.022924041,-0.02307649,0.66126496,-0.0856995,0.43908283
0.026725061,-0.022210471,-0.022358175,0.64068145,-0.083031885,0.42541528
0.025893178,-0.021519115,-0.021662222,0.6207386,-0.08044731,0.41217315
0.025087189,-0.02084928,-0.020987932,0.6014166,-0.07794319,0.39934325
