ax,ay,az,gx,gy,gz
-4.2282205,2.3536577,-1.6181965,2.7745707,-43.168575,-30.129364
-3.8960178,1.9574003,-1.1687945,3.4299173,-40.16513,-32.553455
-3.4642622,1.5352162,-0.82824403,9.796959,-39.552364,-32.6648
-2.8374906,1.3432341,-0.38655135,12.74788,-40.224274,-34.51486
-1.9660823,1.1944178,0.26842222,12.303961,-39.70609,-35.67703
-0.7917523,1.0482211,1.158357,10.833425,-36.387505,-33.8333
0.43309766,0.87192136,2.0182378,9.226254,-30.253159,-30.145615
1.6426175,0.64384806,2.8115354,8.65746,-20.729565,-26.372677
2.6538131,0.41384307,3.4320626,9.667212,-9.121707,-23.407722
3.426113,0.21225719,3.8365843,12.214056,2.110206,-20.208607
4.0420923,0.1085111,4.1464834,13.796093,12.434175,-16.023663
4.519201,0.056258246,4.3656154,13.848466,22.358229,-11.093748
4.8497105,0.0083781965,4.4648123,13.8441,32.18661,-6.1481423
5.035238,-0.022805493,4.424212,14.454361,42.210613,-1.9109364
5.091282,-0.02557635,4.2582755,16.336449,52.736423,1.028841
5.020886,0.004968022,3.9641035,18.375357,62.81763,3.205736
4.9063826,0.045407955,3.6305478,20.656961,72.64279,5.0742254
4.7559133,0.11581392,3.260526,22.043798,81.924614,6.8620963
4.5838785,0.20718813,2.8777332,22.454453,90.44606,8.498384
4.397838,0.2959894,2.4748037,23.39119,97.46068,9.600756
4.200371,0.38857517,2.0882993,24.610477,103.25987,10.701743
4.036054,0.50421804,1.7547063,26.45639,108.80973,11.945458
3.88328,0.67335564,1.4213471,27.44539,113.80543,12.973539
3.740166,0.8431968,1.0917999,27.598122,118.27486,13.355634
3.6119397,0.9780397,0.7643451,27.169632,122.607666,12.90499
3.4920442,1.09609,0.4163569,26.093195,126.565796,11.957343
3.3714147,1.2104999,0.054142587,24.629715,129.65025,10.641185
3.243703,1.3162143,-0.32744774,23.580856,131.36856,8.961714
3.102983,1.4099551,-0.7118599,22.263107,131.90648,6.883075
2.944338,1.4829282,-1.100862,20.90877,131.038,4.155751
2.733605,1.5348654,-1.5233828,20.083296,128.70251,0.7961423
2.4917243,1.5825992,-1.940349,19.062477,124.801834,-3.120392
2.235163,1.6175133,-2.3324575,17.437338,119.4139,-7.363007
1.9737879,1.6146953,-2.6874325,15.028226,112.846985,-11.647276
1.7131734,1.5700079,-3.0076895,11.863345,105.349976,-15.745968
1.469559,1.466956,-3.276708,8.259325,96.67978,-19.664839
1.2387837,1.3175594,-3.4937437,4.7035193,87.408844,-23.21716
1.051411,1.1095287,-3.6426787,2.4246979,77.97905,-26.179255
0.93739414,0.8527929,-3.694093,1.3562342,69.172356,-28.243176
0.8928061,0.5631632,-3.6694076,0.9227753,60.83813,-28.781635
0.90762126,0.24512689,-3.5583863,0.4496118,52.7706,-27.788202
0.9940123,-0.093249224,-3.3795912,0.5670317,45.638447,-25.744873
1.1688244,-0.42327192,-3.145906,1.3955054,39.6921,-23.093067
1.4021797,-0.72210866,-2.8562334,3.0878334,35.3192,-19.942852
1.6184092,-0.9381656,-2.5344965,4.921643,32.542744,-15.482828
1.7572209,-0.984551,-2.196328,6.60223,30.737425,-10.660451
1.82804,-0.9140504,-1.8760777,8.2788,29.545885,-6.16128
1.8595583,-0.75583273,-1.56688,9.845395,28.846521,-2.3221416
1.8775752,-0.5399869,-1.2623872,11.2889385,28.749506,0.828525
1.8971525,-0.27346388,-0.9744568,12.360968,29.299894,3.542361
1.9167767,0.059979737,-0.73710245,12.059345,30.427874,5.3929315
1.9224561,0.38254267,-0.5650949,10.878262,31.846367,6.2832603
1.9026638,0.66678613,-0.4667744,9.179297,33.30882,6.4730043
1.8546437,0.9239471,-0.43771031,7.0102606,34.72442,5.9633203
1.7730621,1.1572669,-0.46965498,4.659017,35.792175,4.6819983
1.6684456,1.367939,-0.55649304,2.2211049,36.48424,2.8375506
1.5626125,1.559289,-0.67100936,-0.24633077,36.759697,0.3358031
1.4601116,1.7258639,-0.8060005,-2.852647,36.521122,-2.867672
1.3667712,1.8556644,-0.94739413,-5.5769696,35.782623,-6.742026
1.2832946,1.9460974,-1.0840894,-8.470869,34.609135,-11.325638
1.2028913,1.9560988,-1.2361685,-11.589854,32.949677,-16.136211
1.1208318,1.8869916,-1.3965633,-14.763782,30.69378,-20.869322
1.0317037,1.7537763,-1.5521572,-17.787899,27.965971,-25.2801
0.9345625,1.584761,-1.693735,-20.534372,24.840378,-29.286592
0.8430729,1.3819742,-1.8243067,-23.068727,21.268312,-32.841347
0.7860448,1.1169788,-1.9347521,-24.977654,17.371351,-35.498684
0.77050006,0.78396857,-2.0235012,-25.505335,13.827727,-37.01931
0.7795375,0.41476402,-2.100071,-24.847563,10.440904,-37.289684
0.7990978,0.056277055,-2.1653483,-23.504301,6.877488,-36.311237
0.8173977,-0.2708274,-2.2140923,-22.168995,2.6878867,-34.102425
0.84072363,-0.55990624,-2.2156494,-20.711052,-1.7274582,-31.104347
0.8722737,-0.8073109,-2.16377,-18.579569,-5.800303,-27.427555
0.904432,-0.98239374,-2.0748656,-15.960367,-9.337332,-23.428474
0.9350871,-1.0955735,-1.9579034,-13.2183695,-12.457799,-19.175901
0.97991014,-1.166833,-1.8014438,-10.073329,-14.830025,-14.059427
1.0482342,-1.1303518,-1.5887762,-7.1219897,-16.545208,-8.418903
1.135194,-1.0009807,-1.3476402,-4.9191093,-17.669956,-3.2363842
1.2299048,-0.82730716,-1.0972625,-3.456787,-18.133564,0.82910234
1.3298732,-0.66349685,-0.85911065,-2.640883,-18.050556,3.8555765
1.4345828,-0.5307784,-0.6369585,-1.7263128,-17.17547,6.152902
1.5241606,-0.39437488,-0.45364046,-0.53745234,-15.346074,8.160691
1.5905162,-0.23371883,-0.30934584,0.4171092,-13.175973,9.992354
1.6319938,-0.062876195,-0.19919851,1.004972,-10.897084,11.705608
1.6447579,0.10487378,-0.12493541,1.3513896,-8.664439,13.20654
1.6341144,0.26498878,-0.084941104,1.4163204,-6.7104177,14.295064
1.6107485,0.4132331,-0.074015416,1.333506,-4.9108777,14.984628
1.5601966,0.40026417,-0.071692504,1.2916552,-4.7567544,14.514348
1.511256,0.38770857,-0.069443636,1.2511381,-4.6075435,14.059058
1.4638729,0.3755526,-0.067266345,1.2119107,-4.463081,13.618259
1.4179959,0.36378297,-0.06515825,1.17393,-4.3232107,13.19147
1.3735752,0.35238695,-0.06311708,1.137155,-4.18778,12.778229
1.330563,0.34135228,-0.061140623,1.101546,-4.0566435,12.37809
1.2889129,0.33066705,-0.059226763,1.0670648,-3.9296598,11.990623
1.2485805,0.3203199,-0.05737345,1.0336745,-3.8066936,11.615416
1.2095228,0.31029975,-0.055578712,1.0013394,-3.687614,11.252066
1.1716985,0.30059603,-0.05384065,0.97002536,-3.5722945,10.900189
1.1350673,0.29119843,-0.052157417,0.93969923,-3.460613,10.559415
1.099591,0.28209707,-0.050527245,0.9103291,-3.352452,10.2293825
1.0652322,0.27328238,-0.048948422,0.8818841,-3.2476983,9.909745
1.0319548,0.26474518,-0.047419295,0.8543344,-3.1462414,9.600169
0.9997241,0.25647646,-0.045938265,0.82765126,-3.047976,9.30033
0.9685065,0.2484677,-0.04450379,0.8018069,-2.9527996,9.009916
0.93826973,0.24071053,-0.04311438,0.77677447,-2.8606129,8.728626
0.9089823,0.2331969,-0.04176859,0.75252795,-2.7713208,8.456168
0.88061386,0.22591908,-0.04046504,0.72904235,-2.684831,8.19226
0.8531353,0.21886952,-0.03920237,0.7062934,-2.6010537,7.93663
0.8265182,0.21204098,-0.03797929,0.6842576,-2.519903,7.6890135
0.8007352,0.20542641,-0.036794536,0.6629124,-2.4412951,7.4491568
0.7757598,0.19901904,-0.035646893,0.6422358,-2.36515,7.2168136
0.75156647,0.19281231,-0.03453519,0.6222066,-2.2913888,6.9917455
0.7281304,0.18679985,-0.033458278,0.60280436,-2.2199366,6.773722
0.70542765,0.18097553,-0.032415066,0.58400923,-2.15072,6.5625205
0.683435,0.17533338,-0.031404484,0.565802,-2.0836685,6.357926
0.6621302,0.16986768,-0.030425506,0.5481641,-2.018714,6.1597285
0.6414913,0.16457283,-0.02947713,0.5310776,-1.9557898,5.9677277
0.6214975,0.15944348,-0.028558396,0.5145252,-1.8948323,5.7817273
0.6021284,0.15447439,-0.027668368,0.4984899,-1.8357794,5.6015387
0.58336437,0.14966053,-0.026806142,0.48295552,-1.7785714,5.4269786
0.5651864,0.14499702,-0.025970846,0.46790633,-1.72315,5.2578707
0.547576,0.14047912,-0.025161633,0.45332706,-1.6694591,5.0940433
0.5305154,0.13610227,-0.024377683,0.43920293,-1.6174445,4.93533
0.5139873,0.13186203,-0.0236182,0.42551968,-1.5670533,4.781571
0.49797505,0.12775414,-0.022882422,0.41226342,-1.5182348,4.6326103
0.4824624,0.12377441,-0.022169603,0.39942083,-1.4709398,4.488298
0.46743375,0.119918846,-0.021479022,0.38697892,-1.42512,4.348488
0.4528739,0.11618355,-0.020809982,0.3749251,-1.3807297,4.213039
0.43876815,0.112564765,-0.02016181,0.36324725,-1.3377239,4.081815
0.42510232,0.109058835,-0.019533852,0.35193357,-1.2960593,3.954683
0.4118626,0.10566223,-0.018925475,0.3409727,-1.2556939,3.8315156
0.39903572,0.10237152,-0.018336067,0.3303536,-1.216587,3.7121882
0.38660872,0.0991834,-0.017765036,0.3200655,-1.1786994,3.596581
0.3745691,0.096094675,-0.017211802,0.31009814,-1.1419927,3.4845777
0.36290476,0.09310222,-0.016675815,0.30044147,-1.1064303,3.3760655
0.35160396,0.090203024,-0.016156534,0.29108578,-1.0719762,3.2709353
0.34065533,0.08739419,-0.015653433,0.28202164,-1.0385959,3.1690814
0.3300479,0.08467288,-0.015166013,0.27323997,-1.0062557,3.0704017
0.31977102,0.082036376,-0.01469378,0.26473194,-0.9749234,2.9747968
0.30981433,0.07948202,-0.014236261,0.256489,-0.94456726,2.882171
0.30016786,0.07700724,-0.013792996,0.24850288,-0.91515696,2.7924306
0.29082194,0.07460957,-0.013363542,0.24076557,-0.8866629,2.7054863
0.28176713,0.07228658,-0.012947465,0.2332693,-0.85905653,2.6212506
0.27299443,0.07003597,-0.012544351,0.22600654,-0.8323101,2.539639
0.264495,0.06785546,-0.012153793,0.21897002,-0.80639684,2.4605694
0.25626028,0.065742865,-0.0117754005,0.21215267,-0.7812907,2.3839629
0.24828205,0.06369608,-0.011408794,0.20554766,-0.7569666,2.3097422
0.2405523,0.061713036,-0.011053605,0.19914837,-0.73340005,2.2378333
0.23306331,0.059791755,-0.010709479,0.19294839,-0.7105675,2.168164
0.22580756,0.05793031,-0.01037607,0.18694149,-0.688446,2.1006644
0.21877776,0.056126833,-0.010053044,0.18112166,-0.6670134,2.0352669
0.21196687,0.054379523,-0.009740078,0.17548308,-0.6462483,1.9719061
0.20536809,0.05268662,-0.009436858,0.17002007,-0.6261298,1.9105182
0.19897479,0.05104644,-0.00914308,0.1647272,-0.6066378,1.851042
0.19278057,0.049457327,-0.008858449,0.15959913,-0.58775276,1.7934178
0.18677923,0.047917698,-0.008582681,0.15463074,-0.56945574,1.7375879
0.18096475,0.046426013,-0.008315501,0.14981705,-0.5517285,1.6834965
0.17533132,0.04498077,-0.00805664,0.14515324,-0.5345532,1.6310892
0.1698733,0.04358053,-0.0078058382,0.14063466,-0.5179126,1.5803138
0.1645852,0.042223882,-0.0075628455,0.13625675,-0.5017902,1.5311192
0.15946177,0.040909477,-0.0073274183,0.13201515,-0.4861698,1.4834564
0.15449783,0.039635997,-0.007099321,0.12790562,-0.47103566,1.4372774
0.14968845,0.038402162,-0.0068783257,0.12392404,-0.45637274,1.3925363
0.14502881,0.037206743,-0.0066642105,0.12006641,-0.44216633,1.3491881
0.14051424,0.036048543,-0.0064567616,0.11632888,-0.42840222,1.3071895
0.13614021,0.034926396,-0.006255771,0.11270772,-0.41506663,1.2664983
0.13190235,0.03383919,-0.0060610375,0.109199286,-0.4021462,1.227074
0.12779644,0.032785825,-0.005872367,0.10580008,-0.389628,1.1888771
0.123818345,0.031765256,-0.0056895697,0.1025067,-0.37749952,1.1518693
0.1199641,0.03077646,-0.0055124634,0.099315844,-0.3657486,1.1160136
0.11622984,0.029818445,-0.0053408705,0.09622432,-0.35436353,1.0812742
0.11261182,0.028890254,-0.0051746196,0.09322905,-0.3433329,1.0476162
0.109106444,0.02799096,-0.005013544,0.09032701,-0.33264562,1.0150061
0.105710186,0.027119659,-0.004857483,0.08751532,-0.32229105,0.983411
0.10241966,0.026275482,-0.00470628,0.08479115,-0.3122588,0.95279956
0.09923156,0.025457585,-0.0045597837,0.0821518,-0.3025389,0.923141
0.09614271,0.024665149,-0.0044178483,0.0795946,-0.29312155,0.8944057
0.09315001,0.023897381,-0.004280331,0.077117,-0.28399736,0.866565
0.09025048,0.023153512,-0.0041470947,0.07471654,-0.2751572,0.8395909
0.087441206,0.0224328,-0.004018006,0.072390795,-0.26659223,0.81345654
0.084719375,0.021734525,-0.0038929353,0.070137456,-0.2582939,0.78813565
0.08208228,0.021057984,-0.0037717582,0.06795426,-0.2502539,0.763603
