ax,ay,az,gx,gy,gz
-1.3181938,0.613642,-3.5973055,-55.653233,113.24921,37.842163
-1.9394144,0.8320344,-4.2270494,-59.991356,103.813156,29.408619
-2.1166985,0.7951824,-4.3485436,-63.188644,93.775894,21.423635
-2.1162827,0.7128824,-4.413285,-67.87606,80.85987,17.628227
-2.024479,0.63161474,-4.4015875,-68.730194,69.07233,16.618755
-2.0275438,0.566641,-4.358959,-67.60831,59.247635,14.757365
-2.1268044,0.4823404,-4.345977,-64.16997,50.11186,12.232896
-2.2587779,0.42587373,-4.3566613,-61.344627,41.321815,9.015868
-2.2937672,0.44252688,-4.301499,-59.91687,33.608902,5.4633574
-2.2701569,0.5261089,-4.210885,-59.11679,25.963322,1.5741066
-2.3039079,0.5217148,-4.1868305,-57.05832,17.666363,-2.6204927
-2.3008144,0.45574608,-4.16703,-54.3511,9.124416,-6.5330963
-2.2218654,0.38433817,-4.125662,-51.476566,0.80888194,-10.256497
-2.1470277,0.29227328,-4.131017,-47.19053,-7.7882442,-14.38022
-2.0598588,0.13290738,-4.184037,-41.839375,-16.044346,-17.786362
-1.8890758,-0.03988582,-4.2002244,-36.647606,-22.561594,-19.136219
-1.7793291,-0.24761418,-4.323813,-31.670845,-28.90789,-19.277739
-1.7445488,-0.47500566,-4.5787945,-26.083958,-35.944237,-19.241295
-1.7707701,-0.7442747,-4.9618006,-18.439522,-45.537495,-19.091541
-1.7899734,-1.0649747,-5.442299,-9.068792,-56.52491,-18.183144
-1.705611,-1.3520278,-5.8746877,1.7627517,-67.409935,-15.536694
-1.5743902,-1.5806214,-6.296398,13.510941,-78.30118,-11.271661
-1.462844,-1.7572241,-6.764739,26.762102,-89.45955,-6.1397996
-1.3766308,-1.9078194,-7.2932873,40.977474,-102.927574,0.18648113
-1.1903381,-2.0334878,-7.808185,55.21677,-117.53418,8.02371
-0.7010384,-2.063509,-8.163579,70.34384,-131.91193,17.486816
0.068702064,-1.7514482,-8.131449,83.6549,-143.42636,27.689657
0.9131547,-1.0597633,-7.6723576,91.46854,-151.9778,35.535378
1.6762403,-0.399001,-7.013895,96.21118,-155.82053,39.18305
2.3472772,0.22148542,-6.287734,99.96866,-156.8716,39.899208
3.0524788,0.90713066,-5.4183216,101.19492,-154.78067,38.71697
3.7845783,1.5730838,-4.4591446,99.575745,-148.73363,36.746723
4.4173217,2.1577823,-3.6301508,95.83983,-139.76453,35.32496
4.8602133,2.7496827,-2.9849784,89.263855,-129.20421,33.451996
5.0845556,3.2343967,-2.56521,81.77011,-118.16833,29.972212
5.235702,3.5816154,-2.2630963,74.683685,-106.442085,24.61992
5.3659735,3.798541,-2.0329058,68.02227,-94.07791,17.882893
5.500736,3.895313,-1.8526665,61.11668,-81.01392,10.793633
5.6435347,3.9069788,-1.7150638,52.994007,-66.73608,4.397506
5.735149,3.8514364,-1.7251537,44.668827,-53.02973,-1.0370227
5.7442307,3.7417898,-1.8224326,36.101673,-40.774456,-6.216856
5.7637367,3.6130562,-1.9124177,27.152538,-28.868408,-11.305312
5.7987013,3.3983078,-2.0235987,18.564552,-16.02401,-15.821446
5.7948675,3.1554248,-2.1983073,11.324535,-2.725399,-19.385895
5.674119,2.9553795,-2.4956994,6.640622,9.147351,-22.593279
5.453835,2.7391176,-2.8301775,4.33769,18.789534,-25.536829
5.203324,2.5494485,-3.1358104,3.2947316,26.175896,-28.139856
4.966109,2.3970134,-3.408519,2.5055819,31.598011,-30.249899
4.7504582,2.2589989,-3.6559584,2.0185237,35.539967,-31.859295
4.568477,2.1113448,-3.9035306,2.434311,38.82966,-32.792606
4.343399,1.9852606,-4.1945453,3.6470325,40.402,-33.687508
4.051163,1.8661075,-4.523835,5.88238,39.61347,-34.763077
3.6910617,1.7836217,-4.889215,8.626132,35.76989,-36.246353
3.301986,1.7680672,-5.2615504,11.372329,27.939323,-38.347878
2.8983922,1.802849,-5.669963,14.200392,17.005102,-41.414577
2.6168776,1.8335123,-6.029877,18.439045,4.8116455,-44.70275
2.3452983,1.8459255,-6.436911,23.554766,-10.134433,-48.30256
2.1136498,1.8982005,-6.8461814,29.659832,-26.858835,-52.78446
1.9442372,2.091173,-7.2479777,35.35678,-46.234314,-58.948235
2.0169647,2.2492104,-7.558658,40.483486,-65.99489,-65.36217
2.3541644,2.2418952,-7.6735916,45.55035,-84.210144,-70.66376
2.8586211,2.1703324,-7.546671,50.722607,-98.918564,-72.54869
3.3328705,2.2020903,-7.330764,54.681435,-110.866905,-72.05824
3.7591066,2.2910805,-7.062438,57.462425,-119.194664,-71.752014
4.197478,2.354397,-6.6986613,60.23043,-124.34191,-72.2418
4.669755,2.387585,-6.269374,62.47866,-126.35811,-72.017204
5.1462526,2.4247098,-5.8192472,63.748833,-126.59821,-70.68134
5.609855,2.477408,-5.346064,63.84948,-125.17638,-68.076546
6.064613,2.537341,-4.8163524,61.52182,-120.16303,-63.880974
6.456706,2.5624888,-4.3290777,58.281418,-112.6044,-59.057034
6.742191,2.5264626,-3.952347,54.98379,-103.056915,-53.981804
6.955661,2.4257512,-3.6585445,51.59763,-91.72452,-48.968246
7.1236196,2.2704809,-3.4467902,48.152847,-78.84604,-43.639786
7.173742,2.0957139,-3.3918023,45.708103,-66.23495,-38.21776
7.1600647,1.8848674,-3.371819,42.941444,-53.90057,-32.84802
7.205283,1.6671232,-3.2999592,39.42901,-41.06007,-26.50866
7.264169,1.4873368,-3.272489,36.297436,-27.251179,-18.728329
7.184354,1.3336754,-3.4012685,35.96454,-13.569597,-11.060374
7.0151777,1.1858833,-3.5743377,37.61846,-0.77681553,-4.8738046
6.860084,1.0437888,-3.738495,39.49596,10.895695,1.2337642
6.711038,0.925594,-3.8822618,41.018654,21.610607,8.024777
6.5820303,0.8398228,-4.0069475,42.017693,31.857347,15.507759
6.4711695,0.80270725,-4.1357403,43.34365,42.05114,23.333841
6.3118043,0.83148235,-4.339373,47.083164,50.574642,30.434872
6.06071,0.9262268,-4.574972,50.94455,56.673546,36.681374
5.7821927,1.145524,-4.73785,53.82193,60.768215,42.17427
5.505661,1.4761704,-4.8174133,55.92746,64.04832,46.04941
5.2107787,1.819679,-4.903914,57.49106,66.2417,48.32683
4.887783,2.1488059,-5.0179806,58.62216,65.94451,49.28023
4.558255,2.528051,-5.114005,58.921574,63.74396,49.48603
4.2321396,3.0597208,-5.1513777,57.56525,60.15631,47.36987
3.9268537,3.6379135,-5.1571274,56.051235,56.290604,41.92256
3.6373718,4.151185,-5.2175374,53.694862,51.238564,34.450645
3.3312953,4.6214323,-5.345817,49.75141,42.971565,24.720783
3.0431194,5.093584,-5.5489035,44.903492,31.475697,12.627365
2.9389794,5.50789,-5.6903815,39.040546,19.539255,-0.46228865
2.9608018,5.8621373,-5.8091383,31.673855,7.656915,-13.986181
3.0175354,6.0454736,-6.016291,23.803017,-4.8523583,-28.260786
3.1651607,5.982184,-6.2273865,17.171818,-17.339508,-41.38202
3.5634604,5.6573176,-6.2729216,11.004849,-28.674742,-51.02046
4.1690784,5.1485276,-6.108984,4.62774,-36.410828,-55.020004
4.7924433,4.576386,-5.8925247,-2.4141862,-40.482662,-54.079536
5.2583265,4.031209,-5.792979,-7.8610177,-42.26952,-51.232624
5.577233,3.4593875,-5.766291,-9.665611,-42.478046,-48.029266
5.851334,2.8950553,-5.6374207,-9.501121,-41.142834,-43.183506
6.0474086,2.419194,-5.4438806,-8.336182,-38.42298,-36.867073
6.164923,1.9397192,-5.239686,-5.9680967,-34.09363,-28.852036
6.207257,1.5641123,-5.046382,-3.240115,-28.668068,-18.519718
6.1551294,1.5385948,-4.837487,-4.494502,-23.736092,-7.9361176
5.9631715,1.4906113,-4.686622,-4.3543334,-22.995842,-7.6886168
5.777222,1.4441296,-4.540479,-4.2185526,-22.278765,-7.448863
5.597091,1.3991023,-4.3989096,-4.08702,-21.584124,-7.216611
5.422595,1.3554835,-4.261768,-3.9596019,-20.911211,-6.991624
5.253555,1.3132287,-4.128915,-3.8361683,-20.25934,-6.773672
5.0898,1.2722949,-4.0002146,-3.7165935,-19.62785,-6.5625343
4.9311624,1.2326404,-3.8755374,-3.600756,-19.016094,-6.357995
4.7774816,1.194225,-3.7547555,-3.4885375,-18.423454,-6.1598473
4.628602,1.1570095,-3.6377466,-3.3798249,-17.849327,-5.967889
4.4843717,1.1209563,-3.5243921,-3.2745073,-17.29313,-5.7819257
4.344645,1.0860289,-3.4145772,-3.1724784,-16.754301,-5.6017694
4.209281,1.052192,-3.3081906,-3.0736349,-16.232294,-5.427237
4.0781417,1.0194112,-3.2051246,-2.9778764,-15.726582,-5.258153
3.951095,0.98765343,-3.1052754,-2.8851066,-15.23665,-5.0943456
3.828013,0.95688665,-3.0085416,-2.7952313,-14.762007,-4.9356494
3.7087708,0.9270797,-2.9148257,-2.7081602,-14.302172,-4.781904
3.5932481,0.89820254,-2.8240333,-2.623805,-13.856681,-4.632955
3.4813285,0.8702261,-2.7360728,-2.5420809,-13.425084,-4.4886518
3.3728995,0.8431221,-2.6508553,-2.4629056,-13.006948,-4.348849
3.2678514,0.8168633,-2.568295,-2.386199,-12.6018505,-4.2134047
3.1660786,0.7914232,-2.488309,-2.3118842,-12.209383,-4.0821843
3.0674787,0.76677626,-2.4108167,-2.239886,-11.829151,-3.9550543
2.9719524,0.74289757,-2.3357399,-2.1701324,-11.460772,-3.8318875
2.8794038,0.7197632,-2.2630033,-2.102553,-11.103875,-3.71256
2.7897396,0.6973499,-2.1925337,-2.0370798,-10.758102,-3.5969512
2.7028697,0.6756351,-2.1242604,-1.973647,-10.423105,-3.4849458
2.618707,0.654597,-2.0581145,-1.912191,-10.098548,-3.3764305
2.5371668,0.6342144,-1.9940298,-1.85265,-9.784103,-3.2712965
2.4581673,0.6144669,-1.9319419,-1.7949642,-9.479457,-3.1694384
2.381629,0.5953347,-1.8717883,-1.7390757,-9.184301,-3.0707538
2.3074753,0.57679856,-1.8135089,-1.6849283,-8.898342,-2.9751437
2.2356317,0.55883986,-1.757045,-1.6324679,-8.62129,-2.8825123
2.166026,0.54144055,-1.70234,-1.5816416,-8.35287,-2.7927663
2.0985887,0.5245833,-1.6493391,-1.5323985,-8.09281,-2.7058158
2.033252,0.5082511,-1.5979891,-1.4846892,-7.840851,-2.6215737
1.9699501,0.49242753,-1.5482384,-1.438466,-7.59674,-2.5399556
1.9086199,0.47709686,-1.5000373,-1.3936824,-7.3602314,-2.4608796
1.8491998,0.46224362,-1.4533374,-1.3502936,-7.1310887,-2.3842661
1.7916303,0.447853,-1.4080919,-1.308256,-6.909083,-2.3100388
1.7358536,0.43391052,-1.3642554,-1.2675277,-6.6939907,-2.2381232
1.6818138,0.42040223,-1.3217841,-1.2280676,-6.4855967,-2.168447
1.629457,0.4073146,-1.2806355,-1.1898364,-6.2836924,-2.1009407
1.5787305,0.39463452,-1.2407681,-1.1527957,-6.088075,-2.0355365
1.5295835,0.38234928,-1.2021421,-1.1169084,-5.898549,-1.9721688
1.4819669,0.3704466,-1.1647189,-1.0821385,-5.714925,-1.9107744
1.435833,0.3589145,-1.128461,-1.0484514,-5.537018,-1.8512915
1.3911355,0.3477415,-1.0933319,-1.0158131,-5.3646507,-1.7936609
1.3478297,0.3369164,-1.0592967,-0.98419106,-5.19765,-1.7378246
1.3058723,0.3264283,-1.0263213,-0.95355356,-5.0358496,-1.6837268
1.2652212,0.31626678,-0.9943725,-0.92386997,-4.8790865,-1.6313133
1.2258359,0.30642164,-0.9634184,-0.8951106,-4.727204,-1.5805317
1.1876767,0.296883,-0.93342805,-0.86724657,-4.5800505,-1.5313312
1.1507056,0.28764135,-0.9043714,-0.84025013,-4.437478,-1.4836625
1.1148854,0.2786874,-0.8762194,-0.8140941,-4.2993445,-1.4374778
1.0801805,0.27001223,-0.8489438,-0.78875244,-4.1655116,-1.392731
1.046556,0.26160714,-0.8225174,-0.7641997,-4.0358453,-1.3493773
1.0139784,0.2534637,-0.7969137,-0.74041134,-3.9102154,-1.3073732
0.98241484,0.24557379,-0.77210706,-0.71736354,-3.788497,-1.2666768
0.951834,0.23792951,-0.74807274,-0.69503325,-3.6705675,-1.2272474
0.92220515,0.2305232,-0.72478664,-0.67339814,-3.5563095,-1.1890454
0.89349866,0.22334746,-0.7022254,-0.65243655,-3.4456086,-1.1520327
0.8656859,0.2163951,-0.6803665,-0.6321275,-3.3383536,-1.1161722
0.83873886,0.20965917,-0.65918815,-0.6124507,-3.2344377,-1.0814282
0.8126307,0.20313293,-0.638669,-0.5933864,-3.1337566,-1.0477656
0.78733534,0.19680986,-0.6187887,-0.57491565,-3.0362096,-1.015151
0.7628274,0.19068362,-0.59952724,-0.5570198,-2.9416995,-0.9835517
0.7390824,0.18474808,-0.5808653,-0.53968114,-2.8501313,-0.952936
0.7160765,0.17899732,-0.5627844,-0.52288216,-2.7614136,-0.9232734
0.6937868,0.17342557,-0.54526633,-0.5066061,-2.6754575,-0.8945342
0.67219096,0.16802727,-0.52829355,-0.4908367,-2.5921772,-0.86668956
0.6512674,0.162797,-0.5118491,-0.47555822,-2.5114894,-0.8397117
