ax,ay,az,gx,gy,gz
-2.8536623,0.97455436,-3.5582142,-29.907543,21.307467,15.425595
-3.578053,0.52831715,-4.4257584,-31.535849,11.155162,15.578733
-4.180094,0.046697415,-5.2964454,-31.995762,-9.432498,12.260229
-5.0087447,-0.63477296,-6.7468214,-29.273071,-37.88857,5.1049356
-5.273385,-1.6065589,-8.01673,-20.366186,-67.76935,-1.1408318
-5.0643077,-2.8396971,-9.099741,-6.6829524,-96.16918,1.1993331
-4.820914,-4.099451,-10.1162815,8.261298,-121.53122,10.959119
-4.67088,-5.342605,-11.376673,37.22054,-150.93683,22.367914
-4.410966,-6.1987677,-12.925817,72.944725,-183.95659,32.863384
-3.5989592,-6.357506,-14.080539,105.02715,-219.22983,45.88678
-2.142936,-6.214374,-14.410589,133.22063,-244.91776,62.790615
-0.4209982,-5.5041814,-13.980806,152.24706,-263.5864,80.89642
1.067772,-4.393141,-12.99694,163.50378,-272.6746,91.89875
2.2977102,-3.3096766,-11.727385,173.88753,-274.1294,96.207436
3.4200847,-2.065255,-10.289774,180.06659,-268.8336,95.23542
4.512401,-0.7781735,-8.688435,179.66556,-257.45148,91.992004
5.491469,0.38608038,-7.147189,174.74232,-240.65929,88.23471
6.2152815,1.4715335,-5.888039,164.80455,-221.35022,85.6183
6.705305,2.5545044,-4.8415103,152.44234,-201.43193,81.86843
7.043967,3.4578793,-3.986836,139.17807,-180.7325,76.330894
7.232685,4.1519794,-3.3326764,126.0976,-158.85968,68.29034
7.3396044,4.567032,-2.8997378,113.22858,-136.42905,57.79721
7.431709,4.7246246,-2.608878,99.91153,-113.32422,46.68534
7.4484897,4.7394595,-2.498293,86.59923,-91.989494,36.54143
7.3803296,4.635053,-2.5209281,73.14883,-73.37016,27.874908
7.260555,4.4264517,-2.603771,59.89737,-57.590256,20.495779
7.1835785,4.11705,-2.6571836,48.774254,-42.65479,14.068211
7.142279,3.8150191,-2.6861727,39.505737,-27.314697,8.330316
7.0244875,3.558616,-2.810146,30.991627,-12.741414,3.2903616
6.7969017,3.3260446,-3.0780947,24.449356,-0.34918383,-0.6170887
6.44227,3.0858364,-3.4282124,19.425215,8.578182,-3.7183583
6.0755687,2.8555427,-3.7526991,16.384796,15.3418,-6.760789
5.71484,2.6558578,-4.0671134,15.653346,19.881832,-10.095599
5.402173,2.4950151,-4.3573217,16.068298,23.021019,-13.721439
5.1039124,2.33047,-4.6673694,17.212526,24.224714,-17.007149
4.7708945,2.1702433,-5.017998,18.790804,23.193789,-19.827845
4.410716,2.0496185,-5.401555,21.12498,19.3178,-22.596067
4.013243,1.9596049,-5.848647,24.744637,10.67404,-25.980541
3.564138,1.9137232,-6.448231,28.95691,-2.919397,-29.650932
3.1610322,1.9286156,-7.0875015,34.66713,-21.019644,-34.416256
2.8768167,1.985074,-7.6761875,41.230305,-41.901558,-39.883625
2.7396524,2.0695477,-8.177371,47.49083,-63.450638,-45.476543
2.759116,2.1419637,-8.569441,53.537373,-84.6499,-50.294643
3.0302358,2.2061572,-8.652523,58.466793,-103.51239,-54.421368
3.4435534,2.2969441,-8.4691,62.423374,-119.10099,-56.962177
3.9439676,2.417007,-8.089488,65.310555,-130.39651,-58.236313
4.423223,2.5362248,-7.673692,67.172775,-138.42001,-58.983883
4.8794107,2.617949,-7.24227,67.60912,-143.30412,-58.95796
5.35307,2.6073132,-6.7352777,67.14359,-145.3957,-57.705296
5.805591,2.6204915,-6.1712666,65.910095,-144.54071,-55.587406
6.1870947,2.6659055,-5.6272697,64.47968,-141.02644,-52.86034
6.4928727,2.6801724,-5.141454,62.821606,-135.57434,-49.7568
6.7392216,2.6779284,-4.696489,60.20704,-128.06009,-45.825153
6.878585,2.6486928,-4.3432226,57.21163,-119.70557,-41.925564
6.9398513,2.5841043,-4.0608025,54.198223,-110.806435,-38.486397
6.97959,2.4543064,-3.8135624,51.404484,-101.21368,-35.373264
7.0262322,2.277943,-3.586978,48.822994,-90.605896,-31.871874
7.0406117,2.088026,-3.4198697,46.768856,-78.9052,-27.71687
7.0149136,1.9108585,-3.308471,45.119312,-66.670525,-23.383718
6.98078,1.7551,-3.2183266,43.14666,-54.10913,-19.01565
6.9650984,1.5983047,-3.1472123,41.13849,-40.89829,-14.331748
6.9487343,1.4350437,-3.1320758,40.112183,-26.579863,-9.082156
6.8726335,1.2864432,-3.2224674,40.877148,-12.031379,-3.360183
6.656418,1.1571631,-3.4123366,42.64691,1.3454276,2.1700358
6.3989778,1.0671343,-3.6166325,44.22632,12.79605,7.6969333
6.124992,1.0111959,-3.7975147,45.23248,22.329107,13.2252865
5.8704348,0.98000693,-3.9420347,46.38052,30.761961,18.577679
5.623388,0.9931869,-4.0953016,48.94639,37.884903,23.97383
5.319238,1.0618777,-4.2950587,52.145294,43.109566,29.026802
4.995834,1.180756,-4.5036926,55.527145,46.176205,33.96325
4.668399,1.3823731,-4.6886277,58.26775,46.77173,38.768246
4.3624806,1.7244185,-4.804757,60.077087,45.892017,42.447372
4.06061,2.2144046,-4.8604937,59.940826,43.632355,42.688755
3.7642734,2.757613,-4.8992343,58.955402,40.785095,40.053402
3.4779816,3.261765,-4.9886885,56.596634,36.476746,35.549744
3.1896973,3.802267,-5.095373,52.327595,30.026419,28.726988
2.9251702,4.3392034,-5.230032,46.573174,21.507776,19.794073
2.687093,4.8405437,-5.430898,39.407932,10.351637,8.940709
2.6003463,5.2220235,-5.643801,31.327303,-2.0795913,-4.543787
2.6830971,5.416899,-5.871852,23.082916,-15.061018,-19.514267
3.0114875,5.226495,-6.0234833,17.181385,-26.779182,-33.534138
3.6522546,4.621332,-5.9215345,12.811144,-35.729576,-42.40256
4.397374,3.9293592,-5.588466,7.951609,-38.8835,-41.92692
4.8932047,3.3367705,-5.336789,2.5073543,-39.59911,-38.505764
5.1909556,2.7496202,-5.1682014,-0.20436446,-38.278255,-34.64573
5.369786,2.2738132,-4.9749537,-0.50269365,-35.510437,-31.788847
5.5130296,1.8411266,-4.7134004,0.17968115,-31.011232,-28.097958
5.570213,1.4627587,-4.4693427,0.7599099,-25.154394,-22.056807
5.395568,1.4168961,-4.329213,0.73608416,-24.365717,-21.36525
5.2264733,1.3724914,-4.193538,0.7130157,-23.602108,-20.695675
5.062747,1.3294961,-4.0621696,0.6906795,-22.86274,-20.047354
4.9042115,1.2878642,-3.9349666,0.66905147,-22.146814,-19.419588
4.7506967,1.2475507,-3.8117917,0.6481084,-21.45356,-18.811705
4.602039,1.2085125,-3.692514,0.62782794,-20.78224,-18.223053
4.45808,1.1707083,-3.577006,0.60818845,-20.132137,-17.653006
4.318666,1.1340977,-3.4651453,0.5891691,-19.502562,-17.100958
4.1836505,1.0986422,-3.356814,0.57074976,-18.892849,-16.566328
4.0528913,1.0643044,-3.251897,0.5529111,-18.302357,-16.04855
3.9262507,1.031048,-3.1502852,0.5356343,-17.730463,-15.547082
3.8035963,0.99883854,-3.0518718,0.5189013,-17.17657,-15.061398
3.6848,0.9676422,-2.9565537,0.5026946,-16.640102,-14.59099
3.569738,0.93742645,-2.8642318,0.4869974,-16.120495,-14.135369
3.4582903,0.9081599,-2.7748103,0.47179332,-15.617212,-13.694062
3.3503423,0.87981236,-2.6881967,0.45706663,-15.129732,-13.266612
3.2457817,0.85235435,-2.6043007,0.44280204,-14.657549,-12.852574
3.1445005,0.82575756,-2.5230365,0.4289849,-14.200176,-12.451524
3.0463948,0.7999946,-2.4443197,0.41560093,-13.757142,-12.063047
2.9513633,0.77503896,-2.36807,0.40263638,-13.327992,-11.686744
2.8593087,0.7508651,-2.2942085,0.39007792,-12.912285,-11.3222275
2.7701364,0.7274481,-2.2226598,0.3779127,-12.509594,-10.969126
2.6837554,0.7047641,-2.1533508,0.36612827,-12.119508,-10.627075
2.6000772,0.6827899,-2.0862103,0.35471258,-11.741628,-10.295729
2.5190165,0.6615031,-2.0211701,0.34365395,-11.375567,-9.974746
2.4404905,0.6408819,-1.9581636,0.33294114,-11.020954,-9.663801
2.3644195,0.62090534,-1.8971269,0.32256323,-10.677426,-9.3625765
2.290726,0.60155314,-1.8379978,0.3125097,-10.344636,-9.070766
2.219335,0.58280563,-1.7807163,0.30277026,-10.0222435,-8.7880745
2.1501744,0.5646438,-1.7252241,0.29333508,-9.709922,-8.514213
2.0831735,0.5470491,-1.671465,0.28419456,-9.407354,-8.248905
2.0182648,0.53000385,-1.6193846,0.27533948,-9.114235,-7.991881
1.9553826,0.51349074,-1.5689301,0.26676086,-8.830266,-7.7428813
1.8944632,0.49749306,-1.5200504,0.25844997,-8.555161,-7.5016537
1.8354448,0.48199466,-1.4726963,0.25039846,-8.288642,-7.2679543
1.7782681,0.46697983,-1.4268197,0.24259819,-8.030439,-7.041547
1.7228752,0.45243344,-1.3823744,0.23504129,-7.7802916,-6.8222036
1.6692102,0.4383408,-1.3393154,0.2277201,-7.537947,-6.609702
1.6172191,0.42468774,-1.2975996,0.22062726,-7.3031616,-6.4038286
1.5668494,0.41146046,-1.2571846,0.21375564,-7.075698,-6.2043757
1.5180502,0.39864564,-1.21803,0.20709828,-6.8553276,-6.011142
1.4707726,0.38623038,-1.1800961,0.20064847,-6.6418276,-5.823933
1.424969,0.37420216,-1.1433449,0.19439976,-6.4349837,-5.642561
1.3805931,0.3625489,-1.1077392,0.18834583,-6.234588,-5.466842
1.3376005,0.35125887,-1.0732435,0.18248062,-6.0404387,-5.296601
1.2959478,0.3403207,-1.0398228,0.1767982,-5.85234,-5.1316657
1.2555932,0.32972345,-1.0074438,0.17129287,-5.670104,-4.9718704
1.2164962,0.31945643,-0.9760737,0.1659591,-5.4935465,-4.8170547
1.1786175,0.30950934,-0.9456811,0.16079155,-5.3224907,-4.667063
1.1419189,0.29987216,-0.9162355,0.15578498,-5.156765,-4.5217457
1.1063638,0.29053524,-0.88770735,0.15093441,-4.9962025,-4.380955
1.0719163,0.28148922,-0.8600679,0.14623497,-4.840642,-4.244551
1.0385422,0.27272502,-0.83328956,0.14168192,-4.689928,-4.1123962
1.0062075,0.26423383,-0.8073454,0.1372707,-4.5439086,-3.9843583
0.97488004,0.25600713,-0.7822094,0.1329969,-4.4024377,-3.8603086
0.9445284,0.24803668,-0.7578563,0.12885621,-4.2653737,-3.740123
0.91512215,0.24031448,-0.73426175,0.1248445,-4.132579,-3.6236806
0.8866318,0.2328328,-0.7114021,0.12095773,-4.0039196,-3.510865
0.8590287,0.22558413,-0.68925434,0.117192015,-3.8792677,-3.4015632
0.83228534,0.21856122,-0.66779643,0.11354358,-3.7584977,-3.295665
0.8063748,0.21175702,-0.6470067,0.11000876,-3.6414888,-3.1930652
0.7812711,0.2051647,-0.62686443,0.10658402,-3.5281239,-3.09366
0.7569492,0.19877768,-0.60734934,0.10326593,-3.4182892,-2.997351
0.73338467,0.19258954,-0.588442,0.100051165,-3.3118746,-2.9040406
0.7105539,0.1865941,-0.57012343,0.09693651,-3.2087736,-2.8136358
0.68843406,0.18078534,-0.5523752,0.09391883,-3.1088831,-2.726046
0.667003,0.17515746,-0.5351797,0.09099512,-3.012103,-2.6411836
0.64623916,0.16970481,-0.5185195,0.088162445,-2.9183364,-2.5589638
0.6261219,0.16442193,-0.5023781,0.08541796,-2.8274891,-2.4793036
0.6066309,0.15930355,-0.4867393,0.08275893,-2.7394705,-2.402124
0.58774686,0.15434451,-0.4715874,0.080182694,-2.6541922,-2.3273473
0.56945074,0.14953989,-0.4569072,0.07768667,-2.5715692,-2.2548985
0.55172426,0.14488484,-0.44268408,0.07526835,-2.4915185,-2.1847055
0.53454965,0.14037472,-0.4289038,0.07292533,-2.4139602,-2.116698
0.51790977,0.13600503,-0.41555253,0.07065525,-2.3388164,-2.0508077
0.5017879,0.13177137,-0.40261692,0.06845584,-2.2660122,-1.9869686
0.48616794,0.12766951,-0.39008403,0.066324905,-2.1954744,-1.9251171
0.4710343,0.12369536,-0.3779413,0.06426032,-2.1271327,-1.8651912
0.45637175,0.11984492,-0.36617664,0.06226,-2.0609186,-1.8071309
0.4421657,0.11611436,-0.35477817,0.060321953,-1.9967657,-1.7508781
0.4284019,0.11249993,-0.3437346,0.05844424,-1.9346101,-1.6963764
0.41506657,0.10899803,-0.33303478,0.056624983,-1.8743894,-1.6435715
0.4021464,0.10560514,-0.32266808,0.05486236,-1.8160434,-1.5924104
0.3896284,0.10231787,-0.3126241,0.05315461,-1.7595137,-1.542842
0.37750012,0.09913293,-0.30289277,0.051500022,-1.7047439,-1.4948167
0.3657494,0.09604715,-0.29346442,0.04989694,-1.651679,-1.4482863
0.35436442,0.09305742,-0.28432953,0.048343763,-1.600266,-1.4032046
0.3433339,0.09016076,-0.27547902,0.046838935,-1.5504535,-1.359526
0.33264676,0.08735427,-0.26690403,0.045380954,-1.5021917,-1.3172073
0.32229227,0.084635146,-0.25859597,0.043968353,-1.455432,-1.2762059
0.31226012,0.08200067,-0.25054651,0.04259973,-1.4101281,-1.2364807
0.30254027,0.0794482,-0.24274765,0.04127371,-1.3662344,-1.1979923
