ax,ay,az,gx,gy,gz
-2.4318402,-1.8009254,-9.1219015,-44.611313,-64.14331,-15.591959
-2.753055,-1.8047727,-10.072023,-44.962795,-92.84887,-16.625435
-2.8377068,-2.052068,-10.7664995,-46.133045,-118.21001,-14.980703
-3.0742626,-2.506659,-11.865318,-39.755306,-149.17328,-9.430742
-3.210748,-3.1385062,-12.985373,-23.782385,-185.16829,-3.9450428
-2.5685234,-4.1854773,-14.059505,4.3848886,-214.36133,-1.7266436
-1.5469496,-5.269565,-14.947911,53.85817,-230.48532,-1.2885218
-0.66880417,-5.4882784,-15.564438,105.658295,-240.36223,0.5991679
0.20899017,-4.9777236,-15.726506,147.96805,-250.0917,9.424869
1.2035534,-4.2761693,-15.556636,181.21207,-264.48248,27.783077
2.4490066,-3.6375911,-15.262946,207.38324,-282.02127,50.65669
4.051972,-2.4254513,-14.52927,220.27277,-300.8481,74.7087
5.8315883,-0.48178047,-12.569261,213.53535,-314.2152,90.86025
7.3128095,1.2183814,-10.083424,198.72801,-316.80365,95.411835
8.4101515,2.258773,-7.877709,187.62167,-304.1977,91.92446
9.067153,3.0923462,-6.217503,177.64241,-286.36658,85.652336
9.540318,3.877557,-4.8004913,164.53148,-264.87585,78.91025
9.844346,4.5047874,-3.7168233,149.91098,-241.22447,72.1831
9.937954,4.9451795,-3.0206597,134.96805,-217.83339,64.69717
9.918766,5.122291,-2.5894506,120.88758,-194.07729,56.64792
9.8278055,5.0756335,-2.3361201,107.90112,-170.80846,48.772915
9.744162,4.912548,-2.143378,96.166435,-147.40616,41.50344
9.6705065,4.671282,-2.0135963,85.224304,-123.82346,35.315807
9.565544,4.459688,-1.9555669,74.40978,-101.28091,29.968174
9.419532,4.2812586,-1.9277735,62.077785,-79.5346,25.395891
9.237906,4.0852003,-2.015931,49.13724,-59.52109,22.105665
8.952303,3.8346605,-2.24188,38.28979,-42.03354,19.535578
8.574402,3.5482235,-2.5148728,30.057316,-26.884602,16.744999
8.183709,3.3086493,-2.7533662,24.305128,-13.788588,13.032762
7.8342705,3.109249,-2.9562685,20.43293,-3.0059342,9.471454
7.49358,2.9267647,-3.164409,17.574598,6.0087233,6.586803
7.1312203,2.7650352,-3.4203672,16.290792,12.919085,3.9272091
6.7250013,2.6177979,-3.7264307,16.378967,17.15547,1.0953385
6.320083,2.497662,-4.0383377,17.373808,19.072115,-2.1128528
5.9443884,2.4010534,-4.3326955,19.768663,19.009352,-5.7284904
5.5331635,2.3776443,-4.6658816,22.808582,16.796373,-10.547874
5.100205,2.3798516,-5.039949,26.53981,11.479482,-16.437273
4.6773014,2.3735414,-5.4270825,30.787388,3.197079,-22.832424
4.3012877,2.3590355,-5.823517,34.855293,-8.017955,-28.741539
3.9567914,2.3859832,-6.2789607,40.753777,-23.824963,-34.810005
3.6153433,2.4652379,-6.782402,48.594845,-42.435284,-42.260803
3.4049833,2.584142,-7.232067,55.123234,-61.83713,-50.3804
3.3422563,2.7119393,-7.5953093,60.718224,-81.58315,-58.698635
3.4113772,2.7244623,-7.8246264,66.53103,-100.07805,-66.28119
3.5813985,2.636489,-7.8986316,72.969696,-115.2891,-71.11572
3.806981,2.5777793,-7.8054104,78.63578,-127.656654,-73.319046
4.0007887,2.544617,-7.6810007,83.52673,-138.34909,-73.390114
4.1932755,2.5423665,-7.520624,87.940605,-147.0707,-71.92388
4.4209824,2.6208053,-7.3164115,92.08625,-154.31738,-69.50079
4.7688437,2.7827737,-7.0173936,94.61969,-158.73273,-66.5567
5.305214,2.985887,-6.5907636,95.907814,-160.2279,-63.865208
5.954258,3.1831,-6.0510983,95.54656,-158.26309,-60.746708
6.593963,3.3611567,-5.4737525,93.10702,-152.86179,-56.47237
7.1413355,3.505312,-4.9451833,89.28933,-144.66084,-51.73748
7.5974917,3.5817935,-4.4906325,84.53185,-133.00002,-46.592278
7.89396,3.5599203,-4.1752176,79.34523,-119.51047,-41.076546
8.061896,3.449139,-3.9992187,74.01655,-104.62816,-35.077526
8.135802,3.2358816,-3.9216383,69.14645,-89.26542,-28.867184
8.167989,2.9489818,-3.8963966,64.40893,-73.50187,-21.405754
8.182973,2.682732,-3.9136472,61.201584,-56.74975,-11.954959
8.048659,2.516789,-4.034753,59.54471,-40.59427,-3.263675
7.8513045,2.4039228,-4.1702147,58.529152,-25.22383,3.7194097
7.619379,2.3135636,-4.315801,57.85664,-11.052533,8.783043
7.371992,2.194372,-4.4539084,58.230713,2.1450992,12.4535885
7.132487,2.0484817,-4.576817,60.508564,14.449766,15.803685
6.8982353,1.9235619,-4.6973605,63.486694,25.671997,19.764544
6.664726,1.8263423,-4.8141317,66.43612,35.384563,24.289257
6.4293146,1.7754021,-4.9297104,69.62761,43.69127,28.825157
6.175979,1.7740159,-5.066921,73.15431,50.270443,33.157906
5.9012423,1.8147987,-5.206844,76.89192,54.30957,37.370964
5.6411357,1.9124259,-5.3157725,80.22517,56.760513,41.756542
5.3955736,2.0824234,-5.3911033,82.95682,57.930798,45.74042
5.146444,2.349971,-5.42368,85.23186,58.65928,48.158394
4.834953,2.7369633,-5.4389453,86.1563,58.36682,47.356934
4.4857883,3.1547472,-5.4571943,85.27349,55.91649,42.84426
4.13229,3.5897458,-5.507092,82.58853,51.004555,36.381702
3.816057,4.0078344,-5.5621905,78.18516,44.221107,28.389565
3.5141861,4.4416304,-5.6608176,72.47737,35.190926,18.60255
3.2373505,4.8473096,-5.807427,66.04186,24.210009,6.3385324
3.0446067,5.2225184,-6.0022583,59.433624,10.418945,-8.338082
2.9735785,5.4905033,-6.272803,52.786884,-4.7515693,-23.873344
3.074581,5.5837007,-6.576658,46.19289,-21.30096,-39.323105
3.440457,5.40081,-6.736478,40.16993,-36.55022,-53.258522
4.0829754,5.022207,-6.590873,35.483856,-47.175106,-63.379227
4.8286424,4.5538063,-6.2194734,31.471409,-49.45345,-65.71415
5.374057,4.082044,-5.9359703,28.068316,-48.663357,-64.382774
5.6620984,3.6528337,-5.794586,26.04193,-46.628494,-61.000237
5.7558866,3.242699,-5.72195,25.887474,-44.36554,-56.458073
5.7755485,2.896316,-5.592807,26.245045,-42.316235,-50.70751
5.7911386,2.529603,-5.399386,27.803993,-39.146114,-43.001213
5.751694,2.3580093,-5.127555,28.816338,-35.12446,-34.37511
5.672416,2.2859552,-4.8379755,27.870014,-30.433308,-26.154398
5.494855,2.2143989,-4.6865344,26.99761,-29.480665,-25.335697
5.3229113,2.1451063,-4.539884,26.152807,-28.558163,-24.542898
5.1564016,2.078004,-4.397869,25.334703,-27.664816,-23.775156
4.99515,2.0130203,-4.2603383,24.542433,-26.799679,-23.031656
4.8389854,1.9500868,-4.1271467,23.775158,-25.961834,-22.311613
4.6877437,1.8891371,-3.9981534,23.03207,-25.150402,-21.614267
4.541266,1.8301075,-3.8732233,22.312387,-24.364529,-20.938887
4.399399,1.7729356,-3.7522254,21.615358,-23.60339,-20.284765
4.261994,1.7175621,-3.6350334,20.940252,-22.866194,-19.651218
4.128908,1.6639292,-3.5215254,20.28637,-22.15217,-19.037586
4.000004,1.6119813,-3.4115832,19.653028,-21.460579,-18.443232
3.8751462,1.5616645,-3.3050928,19.039572,-20.7907,-17.867538
3.754207,1.5129266,-3.2019444,18.445368,-20.141846,-17.309912
3.637061,1.4657173,-3.1020312,17.869799,-19.513342,-16.769775
3.5235877,1.4199882,-3.0052505,17.312277,-18.904541,-16.246572
3.4136705,1.375692,-2.9115024,16.772224,-18.31482,-15.739764
3.3071961,1.3327835,-2.820691,16.24909,-17.74357,-15.248833
3.2040558,1.2912184,-2.7327232,15.742335,-17.190208,-14.7732725
3.1041439,1.2509544,-2.6475089,15.251443,-16.654165,-14.312598
3.0073583,1.2119502,-2.5649607,14.77591,-16.134897,-13.866339
2.9136,1.1741661,-2.484995,14.315252,-15.631871,-13.434037
2.8227737,1.1375636,-2.4075296,13.8689995,-15.144575,-13.015255
2.7347867,1.1021053,-2.332486,13.436698,-14.672513,-12.609565
2.6495497,1.0677552,-2.2597876,13.017906,-14.215204,-12.216554
2.5669758,1.0344784,-2.1893609,12.612201,-13.772184,-11.835822
2.4869816,1.0022411,-2.1211343,12.219169,-13.343004,-11.466985
2.4094858,0.9710106,-2.0550385,11.838412,-12.927228,-11.109666
2.3344097,0.94075537,-1.9910064,11.469544,-12.524435,-10.763505
2.2616775,0.91144466,-1.9289734,11.112192,-12.134216,-10.428151
2.1912155,0.8830488,-1.8688767,10.765995,-11.756177,-10.103264
2.1229525,0.85553914,-1.8106555,10.430601,-11.389936,-9.788517
2.0568194,0.8288879,-1.754251,10.105673,-11.035124,-9.48359
1.9927497,0.8030681,-1.6996062,9.790882,-10.6913805,-9.188177
1.9306785,0.7780537,-1.646666,9.485911,-10.35836,-8.901979
1.8705434,0.7538196,-1.5953771,9.190452,-10.035727,-8.624708
1.8122835,0.73034114,-1.5456876,8.904207,-9.723155,-8.356084
1.7558405,0.7075949,-1.4975476,8.626887,-9.42033,-8.095836
1.7011572,0.6855578,-1.4509085,8.358215,-9.126946,-7.8437023
1.6481788,0.66420776,-1.4057235,8.0979185,-8.84271,-7.5994287
1.5968518,0.6435233,-1.361947,7.8457365,-8.567333,-7.3627706
1.5471247,0.6234835,-1.319535,7.6014147,-8.300541,-7.1334887
1.4989475,0.6040683,-1.2784449,7.3647075,-8.042063,-6.9113526
1.4522717,0.5852582,-1.2386353,7.135378,-7.7916408,-6.69614
1.4070505,0.56703424,-1.2000663,6.913194,-7.5490227,-6.487633
1.3632383,0.54937816,-1.1626991,6.697934,-7.3139644,-6.285624
1.3207912,0.5322722,-1.1264963,6.489381,-7.08623,-6.089909
1.2796667,0.51569927,-1.0914214,6.287326,-6.865591,-5.900292
1.2398233,0.49964258,-1.0574392,6.0915656,-6.651826,-5.7165823
1.2012213,0.48408613,-1.0245156,5.9019036,-6.4447203,-5.5385957
1.1638217,0.4690143,-0.9926177,5.71815,-6.244066,-5.3661532
1.1275871,0.45441192,-0.96171343,5.54012,-6.0496626,-5.199083
1.0924811,0.4402644,-0.9317717,5.3676357,-5.8613143,-5.037216
1.0584686,0.42655754,-0.9027626,5.200524,-5.678832,-4.880391
1.0255154,0.41327757,-0.87465703,5.0386167,-5.5020337,-4.7284503
0.9935886,0.40041122,-0.8474268,4.8817515,-5.330742,-4.581242
0.9626561,0.38794556,-0.82104456,4.7297726,-5.1647844,-4.438618
0.93268687,0.3758681,-0.79548395,4.582526,-5.0039954,-4.300436
0.9036509,0.36416677,-0.77071935,4.439865,-4.8482137,-4.166557
0.87551916,0.3528298,-0.7467259,4.3016467,-4.697283,-4.036847
0.84826344,0.3418459,-0.7234796,4.1677322,-4.551052,-3.9111762
0.82185644,0.331204,-0.70095724,4.037988,-4.4093747,-3.7894187
0.7962717,0.32089347,-0.67913616,3.912284,-4.272109,-3.6714523
0.7714836,0.310904,-0.6579945,3.7904937,-4.1391172,-3.5571592
0.7474673,0.30122557,-0.63751113,3.6724956,-4.010267,-3.446425
0.7241988,0.29184848,-0.6176655,3.5581715,-3.8854277,-3.3391385
0.7016548,0.28276333,-0.59843785,3.447407,-3.764476,-3.2351923
0.67981267,0.27396107,-0.57980883,3.3400912,-3.64729,-3.1344826
0.6586506,0.26543286,-0.56175977,3.2361166,-3.5337524,-3.0369086
0.6381474,0.2571702,-0.5442727,3.1353793,-3.42375,-2.9423723
0.6182825,0.24916475,-0.5273301,3.0377781,-3.3171723,-2.8507793
0.5990361,0.24140854,-0.5109149,2.9432156,-3.2139125,-2.762038
0.5803889,0.23389381,-0.4950108,2.8515973,-3.1138675,-2.6760592
0.5623222,0.22661303,-0.4796018,2.762831,-3.0169373,-2.5927575
0.544818,0.21955891,-0.46467254,2.6768284,-2.9230247,-2.5120487
0.5278587,0.2127244,-0.45020804,2.5935032,-2.8320358,-2.433853
0.5114274,0.20610265,-0.43619385,2.5127718,-2.7438793,-2.3580914
0.4955076,0.19968706,-0.42261595,2.4345539,-2.6584675,-2.2846882
0.48008338,0.1934712,-0.40946072,2.3587708,-2.5757146,-2.2135704
0.46513936,0.18744881,-0.39671504,2.2853472,-2.4955378,-2.1446662
0.45066053,0.18161392,-0.38436612,2.214209,-2.417857,-2.0779073
0.43663245,0.17596067,-0.37240162,2.1452856,-2.3425941,-2.0132265
0.42304105,0.17048341,-0.3608096,2.0785074,-2.2696743,-1.9505593
0.40987274,0.16517666,-0.3495784,2.0138083,-2.1990247,-1.8898427
0.39711437,0.16003509,-0.33869687,1.9511232,-2.1305742,-1.8310164
0.38475317,0.15505359,-0.32815406,1.8903894,-2.0642545,-1.7740213
0.37277675,0.15022714,-0.31793943,1.8315463,-1.9999994,-1.7188004
0.36117312,0.14555095,-0.30804276,1.7745348,-1.9377444,-1.6652985
0.34993073,0.14102033,-0.29845417,1.7192981,-1.8774273,-1.613462
