ax,ay,az,gx,gy,gz
1.0918281,0.20454732,-1.300921,-84.39531,110.751915,38.563076
1.2029269,0.12757535,-1.3285936,-89.49241,128.32977,47.903698
0.6920252,0.3862453,-1.8380345,-90.04004,132.85547,50.490417
0.07167646,0.61728364,-2.350898,-93.592926,128.3624,48.70885
-0.3096558,0.7202224,-2.7074535,-98.75412,120.930916,46.540665
-0.39858082,0.7349142,-2.8437421,-102.22889,116.705475,47.111164
-0.537657,0.7467728,-3.0778515,-102.16868,113.30721,47.225605
-0.9180901,0.6348333,-3.5804074,-99.19321,108.08063,45.99275
-1.330231,0.4790306,-4.1704817,-95.04053,99.710495,44.259857
-1.7572488,0.2737583,-4.874562,-91.73182,86.94148,42.623627
-2.2574608,-0.028524337,-5.750458,-88.14559,69.03995,41.078835
-2.752285,-0.3921317,-6.7411795,-81.14051,44.38266,37.776424
-2.9923606,-0.7473385,-7.708373,-72.38502,17.289486,34.52781
-3.1086216,-1.0512086,-8.625512,-60.366352,-10.992428,30.038683
-3.123989,-1.3351051,-9.518424,-43.253326,-39.068924,24.290564
-3.0152125,-1.5499098,-10.409888,-21.021856,-67.77323,18.96619
-2.60567,-1.7005403,-11.139939,5.519959,-95.864204,18.629578
-1.8060799,-1.8098844,-11.628773,32.769672,-121.17673,24.04197
-0.77430195,-1.8092523,-11.884406,59.340237,-142.23312,34.234364
0.31957233,-1.4154986,-11.88667,81.914085,-160.6594,45.968094
1.4584523,-0.60251683,-11.316615,95.39348,-175.11227,56.010117
2.5526233,0.33560583,-10.264215,99.13437,-181.48811,60.1858
3.459021,1.0485916,-9.084837,101.35674,-181.56322,59.492584
4.1830025,1.6085353,-8.022802,103.645485,-176.77155,56.62563
4.7795076,2.1018622,-7.0724025,103.876495,-168.91034,54.179688
5.3067036,2.5459256,-6.1978846,100.378296,-158.9349,53.183456
5.7442904,2.9417174,-5.428421,93.484085,-146.59262,53.696384
5.988224,3.280544,-4.849514,85.65901,-133.44423,53.914574
6.110731,3.559661,-4.406795,78.0749,-119.276146,52.528538
6.141003,3.730349,-4.103271,72.03645,-104.471664,48.892284
6.111598,3.751622,-3.9053793,66.98787,-89.64464,43.41196
6.0917177,3.6873484,-3.7205946,60.951733,-74.841354,37.083424
6.1202235,3.570034,-3.530913,54.003235,-60.18729,31.231827
6.1502013,3.4012642,-3.3929226,46.673164,-45.91548,26.677368
6.1007175,3.2126703,-3.3557603,40.793163,-33.13411,23.427471
5.9951487,2.9999523,-3.3408673,35.554768,-21.644474,20.495733
5.888938,2.7842155,-3.3120518,31.28743,-10.890084,17.601349
5.799772,2.5966399,-3.2669425,27.394686,-0.01800019,14.733297
5.6919127,2.432764,-3.2655773,23.876535,10.687109,12.001053
5.543093,2.3299866,-3.3251584,21.043951,20.531334,9.540213
5.339288,2.275425,-3.4388382,19.256697,28.830563,6.9982424
5.093167,2.194664,-3.5956006,19.163658,35.3104,4.0038986
4.8344626,2.1230938,-3.7641687,20.331387,40.67666,0.71226317
4.597464,2.089231,-3.936212,21.842358,44.94672,-2.7163494
4.3650417,2.0807526,-4.138615,22.947115,47.966576,-6.154689
4.0888133,2.0609887,-4.4139867,24.211277,48.91912,-9.487077
3.7420378,2.0281644,-4.764393,25.315847,45.703297,-13.193915
3.35965,2.009981,-5.1695056,26.377645,39.291718,-17.784342
2.9884763,1.9673976,-5.6308193,27.94218,29.253693,-23.035887
2.5990329,1.8757063,-6.2127967,31.663298,14.959963,-28.665771
2.252821,1.7830673,-6.8455615,36.690746,-3.0361083,-34.887417
2.0260837,1.7548732,-7.452541,43.636734,-23.861155,-41.19131
1.9513491,1.8011129,-7.9558687,50.708138,-44.73465,-46.913013
1.9878267,1.842754,-8.355757,57.29651,-65.25395,-52.171978
2.2255564,1.8435241,-8.55102,63.59336,-83.41082,-56.614628
2.5192504,1.8586545,-8.607253,71.237595,-99.346306,-59.278316
2.9322238,1.9394602,-8.496363,76.02608,-111.51157,-59.41234
3.439573,2.093412,-8.24128,79.6594,-120.84294,-58.79341
3.990983,2.2985957,-7.8588734,81.60924,-126.97668,-58.073036
4.547262,2.4684434,-7.38794,82.213455,-129.82283,-57.674473
5.081587,2.550382,-6.90532,82.18771,-129.44017,-56.653572
5.5386,2.6047974,-6.4741635,81.870224,-126.7257,-54.149773
5.9860907,2.6959736,-6.016403,80.68007,-122.424995,-50.45875
6.4160924,2.8481977,-5.502423,77.97236,-116.01163,-46.30288
6.760998,2.9704216,-5.0208564,74.63101,-107.37551,-42.43106
6.988266,3.01992,-4.650836,71.419395,-97.293915,-38.779613
7.1291404,2.998739,-4.374363,67.92951,-86.0543,-35.08587
7.209529,2.9130762,-4.1754966,63.86827,-74.20631,-31.220108
7.2480917,2.7732847,-4.0380235,59.473774,-61.81312,-27.17239
7.2377577,2.580647,-3.967234,55.991158,-49.046406,-23.024628
7.214363,2.355583,-3.9227462,53.343613,-35.61482,-18.64387
7.1552434,2.1306741,-3.9413548,52.520817,-21.59846,-13.913608
6.9951944,1.9317442,-4.058548,51.994625,-8.3923435,-9.10327
6.7894187,1.7423797,-4.2016306,51.799335,3.780641,-4.1067853
6.5643263,1.574564,-4.3289604,51.587265,15.149932,1.2477208
6.351314,1.4540107,-4.436206,51.150368,26.110487,6.882829
6.148255,1.3744724,-4.576434,52.16519,36.501217,13.410769
5.8147316,1.3138183,-4.8632245,54.995644,44.337112,20.017408
5.4483895,1.28066,-5.1508074,58.870544,49.5922,26.627325
5.1056643,1.3270174,-5.388348,62.240936,52.485394,33.46206
4.8147078,1.495498,-5.5491943,64.33728,53.337364,40.21072
4.536903,1.8343683,-5.62515,65.11333,52.803444,44.32096
4.2382383,2.3202343,-5.635307,65.643616,51.798992,45.025322
3.9315517,2.8096242,-5.6770153,65.05164,49.393406,43.594467
3.63783,3.3173037,-5.738439,62.860123,45.089687,40.381897
3.3701735,3.8861542,-5.788447,58.843212,39.041492,35.069923
3.1619973,4.464935,-5.815831,53.12135,32.046623,26.922049
2.9862723,4.9599595,-5.9369183,46.10382,23.421396,17.320314
2.8207805,5.3618174,-6.148964,38.08679,12.64224,6.477952
2.7193415,5.6144195,-6.424909,30.012808,-0.059059907,-5.3855405
2.8180716,5.6418166,-6.6285334,22.214235,-12.961365,-17.453703
3.1525354,5.4176445,-6.654413,15.11397,-23.164902,-27.124765
3.6781833,4.9450493,-6.471562,8.567187,-29.566162,-33.13459
4.23586,4.330007,-6.298094,2.021251,-33.301147,-35.802948
4.811228,3.597891,-6.132361,-3.5177994,-35.092796,-35.58035
5.309167,2.8693163,-5.9226384,-7.784451,-34.87909,-32.387203
5.6452413,2.2228146,-5.667323,-9.79463,-31.674421,-26.991636
5.7453427,1.7596862,-5.409117,-10.348852,-26.893951,-21.470482
5.5658183,1.7047014,-5.2400985,-10.025482,-26.053596,-20.799595
5.3919444,1.6514473,-5.0764,-9.71229,-25.239693,-20.149824
5.22354,1.5998682,-4.9178505,-9.40895,-24.451391,-19.52049
5.0604286,1.5499104,-4.764285,-9.115145,-23.687868,-18.910942
4.902442,1.5015222,-4.615544,-8.830569,-22.948332,-18.320541
4.7494154,1.4546531,-4.4714727,-8.554929,-22.232016,-17.748678
4.601191,1.409255,-4.331923,-8.287938,-21.538177,-17.19476
4.4576163,1.3652807,-4.1967497,-8.029323,-20.866102,-16.658216
4.318542,1.3226851,-4.065815,-7.7788143,-20.215097,-16.138494
4.1838264,1.2814243,-3.938983,-7.536156,-19.584492,-15.635058
4.0533304,1.241456,-3.8161237,-7.3010993,-18.973642,-15.147392
3.926921,1.2027391,-3.6971118,-7.073403,-18.381918,-14.674996
3.804468,1.1652342,-3.5818248,-6.8528333,-17.808714,-14.217386
3.6858463,1.1289028,-3.4701452,-6.639165,-17.253448,-13.774095
3.5709355,1.0937078,-3.361959,-6.432181,-16.71555,-13.34467
3.4596179,1.0596133,-3.257156,-6.231669,-16.194471,-12.928674
3.3517802,1.0265847,-3.1556292,-6.037425,-15.689684,-12.5256815
3.2473128,0.9945885,-3.0572753,-5.8492527,-15.200672,-12.135284
3.1461098,0.96359193,-2.961995,-5.6669593,-14.72694,-11.757087
3.048068,0.9335637,-2.8696907,-5.4903607,-14.268007,-11.390702
2.9530883,0.90447325,-2.7802694,-5.319278,-13.823407,-11.035761
2.8610744,0.8762912,-2.6936402,-5.153537,-13.39269,-10.691902
2.771933,0.84898895,-2.6097155,-4.9929705,-12.975419,-10.358779
2.685574,0.8225389,-2.5284104,-4.837415,-12.571173,-10.036054
2.6019104,0.79691434,-2.4496427,-4.686715,-12.179543,-9.7234
2.520857,0.7720893,-2.373333,-4.540717,-11.800133,-9.420503
2.4423327,0.74803877,-2.2994037,-4.3992743,-11.43256,-9.127055
2.3662577,0.7247385,-2.2277808,-4.2622437,-11.076452,-8.842761
2.2925553,0.70216495,-2.1583917,-4.129487,-10.731453,-8.567334
2.2211518,0.6802954,-2.0911667,-4.00087,-10.397212,-8.300496
2.1519744,0.65910774,-2.026038,-3.876264,-10.073393,-8.04198
2.0849543,0.63858074,-1.9629397,-3.7555432,-9.759671,-7.7915235
2.0200233,0.6186937,-1.9018086,-3.6385858,-9.4557295,-7.548875
1.9571166,0.59942657,-1.8425833,-3.5252745,-9.161263,-7.313791
1.8961706,0.58076,-1.7852039,-3.415495,-8.875975,-7.0860343
1.8371241,0.56267524,-1.729613,-3.3091369,-8.599578,-6.865376
1.7799178,0.54515404,-1.6757544,-3.2060935,-8.331796,-6.651595
1.7244942,0.5281789,-1.6235743,-3.1062613,-8.072358,-6.4444757
1.6707976,0.5117327,-1.5730201,-3.0095398,-7.821004,-6.24381
1.6187742,0.49579892,-1.5240412,-2.915832,-7.577482,-6.049397
1.5683715,0.48036155,-1.4765881,-2.825044,-7.3415475,-5.8610415
1.5195391,0.46540517,-1.4306135,-2.7370842,-7.112963,-5.6785536
1.472228,0.4509147,-1.3860711,-2.6518645,-6.8915,-5.501751
1.4263908,0.43687564,-1.3429164,-2.5692997,-6.6769357,-5.3304563
1.3819814,0.4232739,-1.3011057,-2.4893067,-6.4690547,-5.164497
1.3389552,0.4100958,-1.2605975,-2.4118054,-6.267649,-5.003707
1.2972691,0.39732817,-1.221351,-2.336718,-6.072517,-4.847925
1.2568814,0.3849582,-1.1833268,-2.2639692,-5.883462,-4.6969953
1.2177515,0.3729735,-1.1464869,-2.1934862,-5.700295,-4.550766
1.1798403,0.36136204,-1.1107943,-2.1251984,-5.522833,-4.409091
1.1431097,0.35011217,-1.0762132,-2.059037,-5.350897,-4.271828
1.107523,0.33921266,-1.0427091,-1.9949361,-5.184315,-4.1388397
1.0730445,0.32865256,-1.0102483,-1.9328314,-5.0229216,-4.0099926
1.0396396,0.3184213,-0.9787984,-1.8726605,-4.8665533,-3.8851578
1.007275,0.30850863,-0.9483277,-1.8143634,-4.715054,-3.7642102
0.975918,0.29890463,-0.9188059,-1.7578814,-4.5682726,-3.6470287
0.9455375,0.28959966,-0.89020324,-1.7031583,-4.426061,-3.533496
0.91610295,0.28058442,-0.86249125,-1.6501389,-4.288278,-3.4234982
0.8875848,0.2718499,-0.83564204,-1.5987704,-4.1547847,-3.3169255
0.85995466,0.26338732,-0.80962884,-1.5490013,-4.025448,-3.213671
0.8331848,0.25518823,-0.78442556,-1.5007818,-3.9001381,-3.113631
0.80724835,0.2472444,-0.76000696,-1.4540635,-3.7787297,-3.016706
0.7821194,0.2395479,-0.7363486,-1.4087999,-3.661101,-2.9227986
0.75777286,0.23209102,-0.7134269,-1.3649454,-3.5471349,-2.831815
0.73418427,0.2248663,-0.69121873,-1.3224562,-3.4367168,-2.743664
0.71133006,0.21786651,-0.669702,-1.2812899,-3.3297362,-2.6582572
0.6891874,0.21108463,-0.64885515,-1.2414051,-3.2260861,-2.5755095
0.667734,0.20451389,-0.6286573,-1.2027621,-3.125663,-2.495338
0.6469486,0.19814771,-0.6090882,-1.1653222,-3.0283663,-2.4176621
0.6268102,0.19197972,-0.59012836,-1.1290476,-2.9340987,-2.3424044
0.60729873,0.18600374,-0.57175875,-1.0939025,-2.8427656,-2.2694898
0.5883947,0.18021381,-0.553961,-1.0598514,-2.7542758,-2.198845
0.57007915,0.1746041,-0.5367173,-1.0268604,-2.6685407,-2.1303992
0.5523338,0.16916905,-0.5200104,-0.99489635,-2.5854745,-2.0640843
0.5351408,0.16390318,-0.5038236,-0.9639274,-2.5049944,-1.9998338
0.5184831,0.15880124,-0.4881407,-0.93392247,-2.4270194,-1.9375834
0.5023439,0.15385813,-0.472946,-0.9048516,-2.351472,-1.8772709
0.4867071,0.14906888,-0.4582243,-0.8766857,-2.278276,-1.818836
0.47155708,0.14442872,-0.44396088,-0.8493966,-2.2073588,-1.7622199
0.45687866,0.139933,-0.43014145,-0.822957,-2.1386492,-1.7073663
0.44265717,0.13557725,-0.41675225,-0.7973404,-2.0720785,-1.6542203
0.4288784,0.13135707,-0.4037798,-0.7725212,-2.0075798,-1.6027287
