ax,ay,az,gx,gy,gz
0.2172747,-0.3090937,-0.18727443,-63.920578,40.89401,0.77637064
-0.15974157,-0.6382877,-1.1515129,-70.019554,37.229496,3.0236888
-0.6587933,-1.2392833,-1.996426,-72.855804,29.537664,7.4314494
-1.1183478,-1.8649423,-2.8455594,-74.53425,17.570082,13.859988
-1.4434425,-2.479765,-3.732348,-78.40992,-2.672143,24.336248
-1.7629303,-3.222357,-4.851333,-79.362656,-24.481705,34.197254
-2.0255585,-4.0880895,-6.0412025,-75.1788,-46.328865,44.265057
-2.2298207,-4.9062877,-7.295823,-65.90018,-70.38167,55.24672
-2.3142722,-5.5474167,-8.494072,-52.953827,-96.88821,66.677475
-2.33197,-6.0059953,-9.6527405,-33.295982,-128.06108,77.88523
-2.043006,-6.179115,-10.689519,-11.277888,-159.01915,87.711105
-1.5515877,-6.1430926,-11.623288,12.59394,-189.74712,96.176765
-0.78162235,-5.990128,-12.338349,38.290165,-218.22021,103.145485
0.45284972,-5.4905076,-12.521426,64.32862,-239.9654,108.61219
1.8413106,-4.445387,-12.076301,83.97875,-254.59888,109.92605
3.2649615,-2.9594069,-10.751753,95.35891,-262.15137,105.34054
4.625165,-1.5311474,-9.025464,101.10873,-260.89755,95.19288
5.8056126,-0.5261813,-7.367918,105.16473,-251.3798,86.25237
6.7349515,0.41098657,-5.890194,104.2855,-237.33209,81.22492
7.398197,1.3455749,-4.6379485,96.469086,-219.76114,78.964745
7.751977,2.1516209,-3.7394502,86.85113,-201.06488,75.76781
7.9255652,2.7538757,-3.101644,77.535965,-181.22995,70.61324
7.9661283,3.107853,-2.7092595,69.25914,-160.90611,63.944397
7.9260583,3.255396,-2.4850922,61.9656,-140.81908,56.960438
7.861804,3.339008,-2.339906,53.063198,-121.424576,49.13103
7.8063865,3.3103485,-2.2595167,43.476597,-102.84671,40.830093
7.7531023,3.1414812,-2.2633657,34.64288,-85.09572,33.091183
7.6467013,2.8665802,-2.3517935,27.073112,-68.91942,26.67201
7.4740276,2.5589068,-2.486894,20.584713,-54.64932,21.756912
7.2825885,2.2778308,-2.6087418,15.089568,-41.516197,17.744982
7.0729218,2.0368445,-2.747451,10.061276,-29.091713,14.237099
6.825047,1.7958492,-2.9357011,7.01943,-17.79037,11.156971
6.552104,1.5981531,-3.1458616,5.917764,-7.837776,8.2629175
6.263385,1.480683,-3.3418639,5.8890085,0.3932956,4.9238024
6.0117955,1.4233745,-3.5010545,7.12517,7.4059834,1.0017298
5.7793055,1.3516072,-3.6571238,8.659636,13.659871,-2.144128
5.5475183,1.2975739,-3.8344305,10.275874,19.246881,-4.713169
5.2867208,1.2605174,-4.053075,12.243526,23.64383,-7.123662
4.974289,1.247195,-4.3200984,14.599147,26.015736,-9.447424
4.6095715,1.2713944,-4.616899,16.808187,24.9975,-12.389416
4.2079215,1.3017566,-4.964622,18.537617,20.925795,-15.752797
3.8057024,1.3343722,-5.3365107,19.937246,14.042686,-19.577446
3.398303,1.3675718,-5.7627134,21.811068,3.980522,-24.192255
3.0225916,1.3843051,-6.2283287,24.94255,-9.235609,-29.457062
2.7183428,1.4385109,-6.684274,30.179337,-25.767647,-35.480057
2.5207777,1.5807593,-7.1478977,36.61761,-44.542057,-41.7914
2.3987715,1.7440625,-7.64821,43.321213,-65.50829,-48.057312
2.5370681,1.8222595,-8.098671,49.088936,-88.41547,-53.83635
3.096623,1.6937149,-8.13922,52.234756,-107.62143,-55.78609
3.646601,1.555021,-7.9891515,55.951717,-121.70084,-53.791214
4.0419993,1.6244311,-7.828975,58.735477,-133.95549,-51.861702
4.472765,1.7680947,-7.5576963,59.05641,-143.98729,-50.612743
4.951431,1.8858184,-7.150941,58.981834,-150.26523,-50.97111
5.406849,1.9613972,-6.6897554,59.638878,-152.49245,-52.365646
5.812204,2.004218,-6.2444615,60.374615,-151.36736,-54.037876
6.2620063,1.9999868,-5.7694573,59.232185,-148.74278,-53.7874
6.7347364,1.9455653,-5.28346,56.872997,-144.13863,-51.41857
7.165938,1.9083169,-4.814695,54.471043,-137.00645,-47.375103
7.445068,1.8886395,-4.4596524,52.649616,-128.08194,-43.31895
7.598158,1.8274468,-4.2040324,51.65834,-117.55405,-40.218052
7.7212934,1.6712575,-3.978734,50.83484,-105.9045,-37.17495
7.8573213,1.4816264,-3.7470355,49.21957,-92.83568,-33.172558
7.9827375,1.3032097,-3.547825,46.480873,-78.63329,-28.070564
8.059551,1.1400812,-3.4536462,43.40578,-63.337273,-21.82626
7.9534225,0.9645356,-3.565013,43.13446,-48.839367,-16.033947
7.689761,0.768075,-3.7687447,44.25014,-36.178806,-10.917526
7.454216,0.5853669,-3.8964,45.707424,-24.54077,-5.49364
7.291536,0.43851748,-3.952531,47.121338,-12.940441,1.0689365
7.135378,0.36370414,-4.0326123,48.789852,-0.97568643,8.383631
6.907853,0.3473875,-4.202008,51.54887,9.956211,14.976734
6.554277,0.4013754,-4.4658637,54.59492,17.950886,20.15112
6.1946597,0.503014,-4.661634,58.007576,23.811457,24.195137
5.8832254,0.7117658,-4.7424283,60.710476,28.334797,27.076319
5.6291146,0.949163,-4.7538004,62.73784,32.52717,29.223822
5.372416,1.1733185,-4.7902694,64.841705,35.893597,31.213808
5.0437074,1.4779537,-4.884436,66.20074,37.380665,32.94748
4.6733713,1.9054563,-4.954824,65.55312,36.63695,33.283573
4.3178315,2.4171476,-4.977285,63.451912,34.33096,30.584229
4.004151,2.8758543,-5.010629,60.97976,30.847918,25.624733
3.7196345,3.2797368,-5.066572,58.245094,25.641804,19.230478
3.4705472,3.681888,-5.1139355,54.22391,19.700047,12.113963
3.2615635,4.088083,-5.183415,49.14868,12.487518,4.3448024
3.073455,4.5026097,-5.2734046,43.11532,3.9266498,-5.1215467
3.018204,4.83464,-5.3299494,35.79613,-5.5242386,-15.886354
3.0704157,5.0176983,-5.315404,27.19833,-13.897697,-25.989958
3.1646686,4.913331,-5.366983,19.448498,-21.474447,-34.917664
3.327123,4.6125665,-5.459692,13.076192,-28.956842,-42.14289
3.6224825,4.1864424,-5.497532,7.345423,-35.603405,-47.497047
4.0704765,3.6187437,-5.4304814,2.887833,-40.346756,-50.503056
4.5765,3.008196,-5.238387,-0.6725135,-41.176823,-49.375553
4.881948,2.4458187,-5.101134,-2.7890651,-40.21194,-46.071667
5.004638,1.9830955,-4.9899335,-3.7318997,-38.813206,-42.425274
5.062465,1.5905893,-4.8341737,-3.6303573,-36.67163,-38.579144
5.0709934,1.2802813,-4.642162,-2.8578455,-33.78419,-34.30656
5.0424337,1.0586733,-4.4303484,-2.58326,-29.80807,-29.172346
4.9583607,0.929342,-4.2519927,-2.9548273,-25.491793,-23.578032
4.803346,0.90028775,-4.119062,-2.8624501,-24.694838,-22.840906
4.6532183,0.8721494,-3.9903212,-2.7729847,-23.923004,-22.127018
4.5078197,0.8448974,-3.8656356,-2.6863372,-23.175484,-21.435616
4.3669972,0.81850314,-3.744875,-2.6024172,-22.45149,-20.765976
4.230604,0.7929391,-3.6279125,-2.5211368,-21.75027,-20.1174
4.098499,0.7681787,-3.5146267,-2.4424114,-21.071095,-19.48921
3.9705434,0.7441961,-3.4049,-2.3661592,-20.413254,-18.880756
3.8466055,0.7209665,-3.2986183,-2.2923012,-19.776068,-18.291407
3.726557,0.69846594,-3.195672,-2.2207608,-19.158876,-17.72055
3.6102738,0.6766711,-3.0959544,-2.1514645,-18.561045,-17.1676
3.4976363,0.6555595,-2.9993632,-2.0843406,-17.981956,-16.631985
3.3885286,0.6351095,-2.905799,-2.0193202,-17.421015,-16.113155
3.2828386,0.61530006,-2.8151655,-1.9563364,-16.877644,-15.610577
3.1804578,0.59611094,-2.72737,-1.8953248,-16.351286,-15.123735
3.0812817,0.57752246,-2.6423225,-1.836223,-15.841405,-14.652133
2.985209,0.5595156,-2.559936,-1.7789705,-15.347477,-14.195287
2.892141,0.54207194,-2.4801269,-1.7235088,-14.869,-13.75273
2.8019838,0.52517384,-2.4028132,-1.6697814,-14.405485,-13.324013
2.714645,0.50880396,-2.3279166,-1.6177337,-13.956461,-12.908698
2.6300356,0.4929457,-2.2553608,-1.5673127,-13.52147,-12.506364
2.54807,0.47758296,-2.1850722,-1.5184671,-13.100071,-12.116601
2.468665,0.4627001,-2.1169791,-1.4711473,-12.691835,-11.739013
2.3917398,0.4482821,-2.0510128,-1.4253055,-12.29635,-11.373219
2.3172166,0.43431428,-1.9871061,-1.380895,-11.913214,-11.018846
2.2450202,0.4207825,-1.9251946,-1.3378711,-11.542038,-10.675535
2.175077,0.40767315,-1.8652157,-1.29619,-11.182449,-10.342941
2.1073167,0.3949729,-1.8071085,-1.2558098,-10.834082,-10.020727
2.0416708,0.3826689,-1.7508146,-1.2166895,-10.496584,-9.708568
1.978073,0.3707488,-1.6962768,-1.1787897,-10.169617,-9.406147
1.916459,0.35920054,-1.6434402,-1.1420722,-9.852848,-9.113159
1.8567667,0.34801245,-1.5922518,-1.1064999,-9.54596,-8.82931
1.798936,0.33717328,-1.5426596,-1.0720369,-9.248643,-8.554314
1.7429086,0.32667214,-1.494614,-1.0386486,-8.960596,-8.287891
1.6886282,0.31649837,-1.4480662,-1.0063013,-8.681531,-8.029777
1.6360399,0.3066418,-1.4029697,-0.9749625,-8.411165,-7.7797084
1.585091,0.29709247,-1.3592789,-0.9446006,-8.149228,-7.5374355
1.5357301,0.28784078,-1.3169501,-0.91518503,-7.8954554,-7.302715
1.4879076,0.27887747,-1.2759404,-0.8866863,-7.649592,-7.0753093
1.4415756,0.2701935,-1.2362089,-0.8590758,-7.411391,-6.854991
1.3966875,0.26178014,-1.1977154,-0.83232564,-7.180613,-6.641538
1.353198,0.25362894,-1.1604215,-0.806409,-6.957026,-6.4347367
1.3110635,0.24573171,-1.1242895,-0.7812999,-6.7404056,-6.234379
1.270242,0.23808053,-1.0892833,-0.75697315,-6.5305343,-6.040263
1.230692,0.23066773,-1.0553677,-0.7334042,-6.3272014,-5.8521957
1.1923742,0.22348586,-1.0225086,-0.71056956,-6.1302032,-5.6699862
1.1552501,0.2165277,-0.99067324,-0.6884462,-5.9393415,-5.4934535
1.1192824,0.2097863,-0.95982945,-0.66701204,-5.754425,-5.3224196
1.084435,0.20325488,-0.9299464,-0.6462455,-5.5752687,-5.156713
1.050673,0.19692688,-0.9009941,-0.62612575,-5.4016924,-4.9961677
1.0179625,0.19079599,-0.8729436,-0.60663265,-5.233522,-4.8406224
0.9862708,0.18485603,-0.84576666,-0.5877467,-5.0705895,-4.689922
0.95556605,0.17910106,-0.8194362,-0.5694489,-4.912731,-4.5439143
0.92581755,0.17352532,-0.79392564,-0.5517209,-4.759789,-4.4024544
0.8969955,0.16812322,-0.76920956,-0.534545,-4.6116095,-4.265399
0.86907095,0.16288935,-0.7452631,-0.517904,-4.4680448,-4.132612
0.8420159,0.15781845,-0.7220624,-0.50178117,-4.3289504,-4.00396
0.8158034,0.15290545,-0.69958407,-0.48616034,-4.194187,-3.8793142
0.7904071,0.14814544,-0.6778057,-0.47102597,-4.06362,-3.7585495
0.76580155,0.14353365,-0.6567055,-0.45636284,-3.9371188,-3.641545
0.7419622,0.13906544,-0.63626224,-0.44215626,-3.8145564,-3.5281837
0.71886504,0.13473636,-0.61645555,-0.42839202,-3.69581,-3.4183521
0.69648707,0.13054207,-0.59726554,-0.41505635,-3.580761,-3.3119402
0.6748058,0.12647837,-0.578673,-0.40213588,-3.4692938,-3.2088413
0.6537996,0.12254119,-0.56065935,-0.38961768,-3.3612974,-3.1089525
0.6334474,0.118726596,-0.5432065,-0.37748924,-3.256663,-3.0121737
0.6137288,0.11503076,-0.52629703,-0.3657384,-3.1552866,-2.9184077
0.59462416,0.11144999,-0.50991404,-0.3543534,-3.0570662,-2.8275611
0.5761143,0.10798069,-0.4940411,-0.34332284,-2.9619038,-2.7395427
0.5581807,0.104619406,-0.47866228,-0.33263567,-2.869704,-2.6542647
0.5408054,0.101362765,-0.46376228,-0.32228124,-2.7803745,-2.5716417
0.523971,0.09820751,-0.44932613,-0.31224915,-2.693826,-2.4915905
0.5076607,0.09515048,-0.4353394,-0.3025294,-2.6099718,-2.4140317
0.49185815,0.09218862,-0.42178807,-0.2931122,-2.5287282,-2.3388875
0.47654757,0.08931897,-0.40865862,-0.28398818,-2.4500136,-2.2660823
0.46171358,0.08653865,-0.3959379,-0.2751482,-2.3737497,-2.1955438
0.4473414,0.08384488,-0.38361317,-0.2665834,-2.2998598,-2.127201
0.43341663,0.08123497,-0.37167212,-0.25828525,-2.2282703,-2.0609858
0.41992533,0.07870631,-0.3601028,-0.2502454,-2.158909,-1.9968319
0.40685403,0.07625636,-0.3488936,-0.24245583,-2.0917072,-1.9346751
0.39418963,0.07388268,-0.33803338,-0.23490874,-2.0265973,-1.8744532
0.38191944,0.07158289,-0.32751122,-0.22759661,-1.9635142,-1.816106
0.37003124,0.06935469,-0.3173166,-0.22051208,-1.9023948,-1.7595751
0.3585131,0.06719585,-0.30743933,-0.2136481,-1.843178,-1.704804
0.3473535,0.06510422,-0.29786953,-0.20699778,-1.7858046,-1.6517377
