ax,ay,az,gx,gy,gz
-1.6745607,-1.557287,-7.317339,4.8273168,-26.134783,-11.152828
-1.9211034,-2.0259936,-7.814132,3.4287353,-35.92962,-11.102405
-2.0564764,-2.5094519,-8.047738,2.5966685,-44.614826,-7.73133
-2.0379992,-2.8288152,-8.182692,2.81267,-50.90569,-1.2663695
-2.0362236,-3.0326707,-8.399791,3.3896632,-56.43274,4.089625
-2.0216236,-3.2624252,-8.577727,5.333729,-62.173958,7.049143
-1.9311881,-3.4941535,-8.626579,9.154576,-69.04157,10.328995
-1.6915201,-3.6185434,-8.503983,11.332918,-75.96631,14.837252
-1.3846531,-3.7137065,-8.338719,12.288879,-82.08277,20.099737
-1.085189,-3.905253,-8.186859,13.87848,-87.16358,24.68017
-0.80273384,-4.1136065,-7.9682345,16.84804,-91.552414,29.335056
-0.5307712,-4.1656766,-7.6646967,19.71892,-96.17458,35.116016
-0.2841175,-4.051145,-7.2888207,22.409712,-100.46216,40.344948
-0.06557115,-3.9355967,-6.917298,24.805387,-104.2471,44.551292
0.14443344,-3.8650715,-6.5010247,27.444334,-107.79832,48.689545
0.4030349,-3.6705253,-6.018081,29.074968,-111.309135,53.46387
0.6901672,-3.4298356,-5.5101223,30.206722,-114.11613,57.63197
0.95544004,-3.1593454,-4.944789,31.41043,-116.12415,60.84127
1.2281688,-2.7879474,-4.3046184,32.223557,-117.83438,63.759483
1.533645,-2.2891095,-3.5612874,32.0671,-119.22835,66.37232
1.8934729,-1.7482619,-2.7165596,30.727701,-119.27937,68.371506
2.2705133,-1.2443533,-1.8380615,28.528118,-116.52605,68.931526
2.6228008,-0.79265314,-0.9906577,26.31612,-111.92618,67.96453
2.9460046,-0.41259643,-0.21541782,24.399857,-105.84026,65.74372
3.23651,-0.07377933,0.48449707,22.619019,-98.583916,62.89464
3.4813592,0.22752494,1.0853493,20.89914,-90.47667,59.265316
3.6893685,0.46312827,1.5693302,19.183104,-81.06845,54.67024
3.8413787,0.59204805,1.8921132,17.431253,-71.17118,49.861
3.9345527,0.64548826,2.0937767,15.881546,-61.206703,44.930313
3.9825578,0.644286,2.1998875,14.47971,-51.426353,40.097496
4.002124,0.6150352,2.223126,13.119159,-41.857338,35.39092
3.9786818,0.56022555,2.1757178,12.041461,-32.475315,30.608164
3.89241,0.49510288,2.0451818,11.024597,-23.61801,25.992775
3.75771,0.43280068,1.8618265,9.885514,-15.558809,21.548573
3.5905747,0.36193424,1.6261815,8.878227,-8.398311,17.31035
3.39215,0.28060648,1.3327267,8.145288,-2.401772,13.1539135
3.1827595,0.18493082,0.9950968,7.5648174,2.1098216,9.249061
2.971358,0.057309702,0.6150997,7.254753,5.525434,5.7761993
2.763592,-0.07706483,0.22331455,7.2370243,7.955631,2.8516886
2.5615811,-0.20548135,-0.16718253,7.376339,9.439007,0.5848066
2.3676426,-0.3072018,-0.5443664,7.418651,10.0076885,-1.1312981
2.1929276,-0.36089352,-0.8973243,7.067163,9.552353,-2.6495652
2.0557399,-0.39926645,-1.2118758,6.7355614,8.674401,-4.300343
1.9498321,-0.4337868,-1.491998,6.3386784,7.705403,-5.8191814
1.8437501,-0.47891048,-1.75748,5.7942505,6.5213776,-7.006232
1.7384318,-0.53694594,-2.0003653,5.249294,4.962796,-7.715087
1.6374577,-0.57753855,-2.2112796,4.4866533,3.0513785,-7.8553915
1.5217211,-0.6013914,-2.4065619,3.8031435,0.79055476,-8.0046425
1.4032867,-0.64010924,-2.5873454,3.3301132,-1.877145,-8.197867
1.3036317,-0.68784314,-2.732445,2.9688907,-4.830631,-8.145489
1.2183478,-0.7256567,-2.8399189,2.6855514,-7.9243464,-7.7946076
1.1472522,-0.7399991,-2.9196644,2.2943032,-11.20426,-7.1171765
1.0635254,-0.7427719,-2.9765346,1.8017043,-14.7428055,-6.4817996
0.97579426,-0.77091974,-2.9975388,1.2768621,-18.536123,-5.9190345
0.90699494,-0.8041826,-2.974961,0.7816414,-22.542212,-5.286196
0.87297064,-0.81648606,-2.9124577,0.14954466,-26.640549,-4.5679145
0.8622188,-0.8130831,-2.8154368,-0.7043542,-30.607508,-4.1286945
0.86172,-0.8385121,-2.6607673,-1.4993794,-34.395115,-3.9833899
0.8834217,-0.86802864,-2.443,-2.2579532,-38.16867,-3.9310079
0.95829284,-0.9024246,-2.1469133,-3.0889847,-41.728626,-3.8328006
1.0939294,-0.93544525,-1.7854207,-4.2019906,-44.667408,-3.464458
1.2570857,-0.9956903,-1.3919389,-5.5113378,-46.528473,-2.9429076
1.4332817,-1.1183155,-0.97875285,-6.765305,-47.498325,-2.14756
1.6243821,-1.2539876,-0.557301,-7.7063327,-47.45266,-1.2852113
1.8192173,-1.3926914,-0.14369085,-8.173203,-46.238155,-0.5683293
1.9940443,-1.5335639,0.22844358,-8.165555,-44.002907,0.11624713
2.1273625,-1.6908374,0.53121895,-7.555695,-40.752056,0.9418921
2.2082558,-1.8651284,0.742607,-6.5095425,-36.997906,2.022768
2.2508197,-2.0254807,0.8915744,-5.0794435,-32.853394,3.3187847
2.2541099,-2.1632166,0.97972333,-3.3079536,-28.57314,4.7446456
2.2236357,-2.267103,1.0094705,-1.3292406,-24.404387,6.206548
2.1705804,-2.3514216,0.98894733,0.8380196,-20.490396,7.784897
2.104386,-2.4062161,0.9172798,3.032489,-16.775555,9.594033
2.0227702,-2.4258094,0.7995433,5.419882,-13.366987,11.494577
1.9218482,-2.39458,0.64762527,7.9667196,-10.391284,13.185774
1.8151464,-2.3192468,0.49055192,10.4418335,-7.8606014,14.647807
1.7143599,-2.2111228,0.3429971,12.604634,-5.742424,15.9560175
1.608988,-2.069817,0.19812655,14.477321,-3.9572518,17.046257
1.5047631,-1.9110395,0.057483114,16.102442,-2.503486,17.958591
1.4010423,-1.7312952,-0.07466737,17.47675,-1.3873359,18.656673
1.3018678,-1.5303876,-0.18566495,18.441364,-0.636028,19.1534
1.2181027,-1.3186071,-0.27035767,18.677425,-0.2048092,19.545727
1.1548048,-1.1034113,-0.32719204,18.460442,0.1491566,19.766071
1.1041956,-0.88895893,-0.37406024,17.916548,0.55703,19.62246
1.0573124,-0.6821292,-0.42065266,17.217491,1.0151175,19.00211
1.0063702,-0.48882076,-0.47250658,16.322264,1.4029785,18.025944
0.948957,-0.30874443,-0.5264713,15.080199,1.4815336,16.82425
0.89801633,-0.1276321,-0.567298,13.47373,1.3661444,15.607246
0.85365075,0.05204276,-0.599614,11.593067,1.1587371,14.117074
0.81398594,0.21340837,-0.62717354,9.680386,0.95601034,12.109967
0.7760501,0.3426796,-0.6510075,7.725168,0.7673625,9.814777
0.73496443,0.44702828,-0.6728645,5.5891957,0.48912516,7.408858
0.6888881,0.53818053,-0.68250996,3.2763343,0.12419552,4.9186463
0.6382928,0.6095202,-0.67776895,0.9468686,-0.3132386,2.2207413
0.58704424,0.65451825,-0.66210407,-1.4674455,-0.83422714,-0.5656327
0.53697616,0.6448389,-0.6485912,-3.9391189,-1.4342073,-3.4205403
0.48758104,0.53729856,-0.63744307,-6.0561347,-1.9389141,-6.425793
0.44602522,0.29437667,-0.6315845,-7.7325144,-2.3285081,-9.050174
0.43193206,0.0015496423,-0.63606584,-9.153954,-2.7172983,-10.747004
0.43965036,-0.30030435,-0.6507152,-10.044439,-3.2120614,-11.824143
0.48032618,-0.5804205,-0.6655283,-10.190126,-3.9295359,-12.375583
0.46532744,-0.5622962,-0.6447464,-9.871927,-3.8068316,-11.989141
0.4507999,-0.54474133,-0.6246174,-9.563725,-3.6879823,-11.61484
0.43672848,-0.52773756,-0.6051204,-9.265201,-3.5728643,-11.252291
0.42309865,-0.5112674,-0.5862352,-8.976043,-3.461359,-10.901118
0.4098963,-0.4953139,-0.5679424,-8.695955,-3.353351,-10.560961
0.3971079,-0.4798605,-0.55022305,-8.424649,-3.2487292,-10.231467
0.38472024,-0.4648914,-0.533059,-8.161844,-3.147386,-9.9123
0.3727206,-0.45039117,-0.51643264,-7.907272,-3.0492175,-9.603129
0.36109668,-0.436345,-0.5003268,-7.6606708,-2.9541225,-9.30364
0.34983662,-0.42273846,-0.48472515,-7.421788,-2.8620043,-9.013525
0.33892888,-0.4095577,-0.46961164,-7.1903806,-2.7727685,-8.732488
0.32836235,-0.3967892,-0.45497093,-6.9662113,-2.686324,-8.460241
0.31812623,-0.38442,-0.440788,-6.749052,-2.6025825,-8.196508
0.3082101,-0.37243748,-0.42704847,-6.5386815,-2.5214589,-7.94102
0.29860392,-0.36082947,-0.41373834,-6.3348856,-2.4428709,-7.6935167
0.28929785,-0.34958413,-0.4008441,-6.137458,-2.3667383,-7.453747
0.28028253,-0.3386901,-0.38835266,-5.946197,-2.292984,-7.221467
0.27154875,-0.32813632,-0.37625137,-5.76091,-2.221533,-6.9964414
0.2630877,-0.31791207,-0.3645279,-5.5814085,-2.1523135,-6.7784424
0.25489077,-0.308007,-0.35317045,-5.4075108,-2.0852547,-6.5672493
0.2469497,-0.29841113,-0.34216753,-5.239041,-2.020289,-6.362648
0.23925647,-0.2891147,-0.33150795,-5.075829,-1.9573509,-6.1644325
0.23180328,-0.28010836,-0.32118103,-4.91771,-1.8963766,-5.9724016
0.22458263,-0.27138302,-0.31117624,-4.7645235,-1.8373047,-5.7863617
0.21758722,-0.26292986,-0.30148357,-4.6161156,-1.7800754,-5.6061254
0.21081,-0.25474033,-0.29209322,-4.472337,-1.7246311,-5.4315104
0.20424414,-0.2468062,-0.28299573,-4.3330417,-1.6709158,-5.262341
0.197883,-0.2391195,-0.2741819,-4.1980906,-1.6188756,-5.098447
0.1917202,-0.23167245,-0.26564288,-4.0673466,-1.568458,-4.9396625
0.18574955,-0.22445756,-0.25737005,-3.9406788,-1.5196122,-4.7858286
0.179965,-0.21746759,-0.24935514,-3.8179598,-1.472289,-4.6367903
0.17436077,-0.2106955,-0.24159005,-3.6990657,-1.4264408,-4.4923973
0.1689312,-0.20413448,-0.23406696,-3.5838773,-1.3820217,-4.3525047
0.16367084,-0.19777793,-0.22677834,-3.4722788,-1.3389869,-4.216972
0.1585744,-0.19161946,-0.21971686,-3.3641582,-1.2972931,-4.085663
0.15363678,-0.18565288,-0.21287541,-3.2594063,-1.2568985,-3.958445
0.148853,-0.17987223,-0.20624712,-3.1579185,-1.2177626,-3.8351912
0.14421828,-0.17427167,-0.19982535,-3.0595925,-1.1798459,-3.7157776
0.13972794,-0.16884561,-0.19360365,-2.96433,-1.1431106,-3.6000843
0.1353775,-0.16358857,-0.18757577,-2.872035,-1.1075197,-3.4879951
0.13116255,-0.15849529,-0.18173566,-2.7826154,-1.0730375,-3.3793976
0.12707892,-0.15356068,-0.17607747,-2.695981,-1.0396293,-3.2741828
0.12312249,-0.14877976,-0.17059553,-2.612045,-1.0072619,-3.1722455
0.11928928,-0.14414777,-0.16528434,-2.5307236,-0.9759025,-3.073483
0.11557546,-0.13966003,-0.16013856,-2.4519348,-0.94551986,-2.9777968
0.11197731,-0.13531207,-0.15515305,-2.3756,-0.91608346,-2.8850906
0.10849122,-0.1310995,-0.1503228,-2.3016424,-0.8875638,-2.7952714
0.10511369,-0.12701815,-0.14564298,-2.2299883,-0.85993236,-2.7082496
0.101841345,-0.123063885,-0.1411089,-2.1605654,-0.83316135,-2.6239376
0.0986709,-0.11923276,-0.13671601,-2.0933044,-0.80722404,-2.5422513
0.09559918,-0.11552093,-0.13245991,-2.028138,-0.7820944,-2.4631088
0.092623115,-0.111924686,-0.12833634,-1.9650005,-0.7577473,-2.3864305
0.08973972,-0.10844042,-0.124341175,-1.9038292,-0.7341583,-2.3121397
0.0869461,-0.105064645,-0.12047041,-1.8445626,-0.7113038,-2.2401624
0.08423947,-0.10179399,-0.11672017,-1.7871414,-0.6891609,-2.1704261
0.08161711,-0.09862516,-0.11308669,-1.731508,-0.66770744,-2.1028614
0.0790764,-0.095555,-0.109566346,-1.6776069,-0.646922,-2.0374
0.076614805,-0.09258042,-0.10615561,-1.625384,-0.62678367,-1.973977
0.07422984,-0.08969846,-0.10285106,-1.5747869,-0.6072724,-1.9125285
0.07191913,-0.08690623,-0.0996494,-1.5257652,-0.58836854,-1.8529932
0.06968036,-0.08420093,-0.09654742,-1.4782697,-0.5700532,-1.7953115
0.0675113,-0.08157986,-0.09354201,-1.432253,-0.55230814,-1.7394255
0.06540976,-0.07904038,-0.09063017,-1.3876687,-0.5351155,-1.6852795
0.06337364,-0.076579966,-0.08780898,-1.3444726,-0.5184581,-1.6328192
0.06140092,-0.07419615,-0.085075624,-1.3026212,-0.50231934,-1.581992
0.059489608,-0.07188655,-0.08242736,-1.2620728,-0.48668295,-1.5327471
0.057637803,-0.06964884,-0.079861544,-1.2227867,-0.47153336,-1.4850354
0.055843644,-0.0674808,-0.0773756,-1.1847236,-0.4568554,-1.438809
0.054105338,-0.06538025,-0.07496704,-1.1478454,-0.44263434,-1.3940216
0.052421145,-0.0633451,-0.07263347,-1.1121153,-0.42885605,-1.3506285
0.050789386,-0.061373297,-0.070372544,-1.0774975,-0.41550663,-1.3085862
0.04920842,-0.05946288,-0.068182,-1.0439572,-0.4025728,-1.2678528
0.047676675,-0.05761193,-0.06605964,-1.0114613,-0.39004162,-1.2283874
0.04619261,-0.055818606,-0.064003356,-0.9799767,-0.3779005,-1.1901505
0.04475474,-0.0540811,-0.06201108,-0.94947237,-0.36613736,-1.153104
0.043361634,-0.052397687,-0.060080826,-0.9199176,-0.35474038,-1.1172105
0.04201189,-0.050766677,-0.05821066,-0.8912828,-0.34369817,-1.0824345
0.04070417,-0.04918644,-0.05639871,-0.8635394,-0.33299974,-1.0487411
0.03943715,-0.04765539,-0.054643158,-0.8366596,-0.3226343,-1.0160965
