ax,ay,az,gx,gy,gz
-3.610942,-1.1263739,-7.0300636,13.428304,-10.1537285,-17.58925
-3.8487265,-1.5426278,-7.5017357,12.555748,-16.192123,-17.904076
-4.0491776,-1.908572,-7.7946095,12.147347,-23.95776,-14.978107
-4.210707,-2.31163,-8.055915,9.502361,-33.766773,-10.3402
-4.155124,-2.778928,-8.333939,7.8683834,-42.904343,-4.2175007
-4.039261,-3.3389578,-8.706467,9.111646,-52.510643,-0.03482621
-3.7707536,-3.9967937,-9.030534,13.273195,-61.45427,2.2263768
-3.3377407,-4.6148434,-9.248119,17.978973,-69.39379,5.7969937
-2.8591754,-5.1170645,-9.365028,22.311846,-76.2766,12.80997
-2.500675,-5.437135,-9.461497,26.85977,-82.80074,20.4087
-2.187487,-5.6695647,-9.501093,32.968018,-89.503716,26.634762
-1.7796822,-5.7434354,-9.323178,40.4499,-95.82204,32.427464
-1.3032786,-5.524306,-8.903011,47.223087,-101.48836,39.15387
-0.7980914,-5.083679,-8.337035,51.65532,-105.984375,45.56196
-0.30293706,-4.609621,-7.6532707,55.735813,-109.02876,50.62118
0.16167033,-4.028832,-6.8906074,59.156822,-111.628395,55.180515
0.67409545,-3.269424,-5.9848485,60.320187,-114.050255,60.050518
1.2329249,-2.406637,-4.9660087,59.58972,-115.35506,64.20905
1.8113705,-1.5553464,-3.8852134,57.823166,-113.869774,65.9284
2.3662002,-0.7189791,-2.771261,56.027508,-110.02344,65.675835
2.8335216,0.0815083,-1.740397,53.912262,-104.252396,63.5898
3.2121685,0.80489045,-0.8318604,51.184208,-97.14138,60.17583
3.4991148,1.4123137,-0.0797164,48.082405,-89.18279,55.588985
3.711274,1.8815172,0.5079265,44.4924,-80.32023,49.836315
3.838816,2.1692026,0.8890319,40.99314,-71.2856,43.651672
3.9127572,2.3546245,1.1368568,37.498554,-62.384727,37.186604
3.9481592,2.4446507,1.2881994,34.064983,-53.70549,30.697268
3.9517164,2.4590106,1.3591217,30.761282,-45.44733,24.461313
3.9422545,2.4229658,1.3683752,27.226068,-37.62093,18.818722
3.9111817,2.3457334,1.3124387,23.650482,-30.056965,13.55781
3.832817,2.2303627,1.2008075,20.193808,-22.937618,8.484242
3.7142565,2.0726368,1.0390354,17.228924,-16.406588,3.609191
3.562728,1.8868355,0.8252836,14.38986,-10.76449,-0.680472
3.4027178,1.6688181,0.5636674,11.50437,-6.424917,-3.7826338
3.2432716,1.4289403,0.26468837,8.751291,-2.9944546,-5.9088736
3.0891438,1.1947206,-0.045526955,6.426223,-0.1604052,-7.4805865
2.9455268,0.9786899,-0.3630635,4.5625935,2.3711362,-9.051365
2.7980764,0.7742046,-0.6865863,3.1238432,4.663873,-10.695287
2.6280134,0.582556,-1.0180379,2.3114622,6.3545394,-12.126967
2.4096057,0.43053186,-1.3507117,1.6355275,7.2782435,-13.232388
2.185145,0.3042273,-1.6597373,1.0304757,7.5605664,-13.928934
1.958112,0.20234537,-1.9532795,0.5512574,7.276232,-14.3422785
1.7343295,0.11738045,-2.2318103,0.286398,6.431498,-14.69392
1.518745,0.041359246,-2.4882684,0.21386795,4.94529,-14.888227
1.2912478,-0.025225097,-2.7257752,0.2896846,2.911481,-14.88626
1.0666158,-0.08620335,-2.9458196,0.49385124,0.29907086,-14.827106
0.872891,-0.14911893,-3.1477096,0.7043347,-2.9070845,-14.479665
0.71855444,-0.20834723,-3.3327222,0.6759932,-6.6926713,-13.650184
0.6057854,-0.25214666,-3.4908955,0.16185014,-11.294401,-11.992406
0.55524105,-0.2656696,-3.580373,-0.5368831,-16.167654,-10.24692
0.5457218,-0.255259,-3.5934129,-1.0045834,-20.702873,-9.001744
0.54348254,-0.23014611,-3.5673888,-1.3641783,-24.86286,-8.398514
0.5390901,-0.2257983,-3.5178998,-1.6795026,-28.764822,-8.117943
0.53356546,-0.24120563,-3.4343138,-2.1108696,-32.82261,-7.5535436
0.54109985,-0.22324364,-3.2701228,-2.8719487,-37.05097,-6.6360555
0.58482337,-0.16706723,-3.0523095,-3.909184,-41.19017,-6.034339
0.66628116,-0.13750292,-2.7989993,-5.0350366,-44.801113,-5.9743814
0.7616082,-0.19526498,-2.5146947,-5.9922,-47.813526,-6.0466332
0.87446153,-0.31080842,-2.193988,-6.7834487,-50.430893,-5.769346
1.0476687,-0.43286496,-1.7936361,-7.532674,-52.53575,-5.2414603
1.268559,-0.54360145,-1.3475688,-8.096869,-53.793213,-4.912595
1.5224727,-0.67543995,-0.88967586,-8.168732,-53.857773,-4.945232
1.7749919,-0.8557289,-0.45946655,-7.859358,-52.772083,-4.9057317
2.001183,-1.058326,-0.0687846,-7.271379,-50.562763,-4.2102723
2.187273,-1.25075,0.26845935,-6.3560085,-47.580956,-3.244134
2.3366036,-1.4144822,0.5514541,-5.1622243,-43.866062,-2.209061
2.4368627,-1.5562471,0.7679559,-3.742939,-39.629826,-1.1093956
2.4841175,-1.6799155,0.9225048,-2.1255832,-35.19303,0.19136204
2.4862216,-1.7829156,1.0278493,-0.22536816,-30.766956,1.8206879
2.4621718,-1.8563856,1.0814241,1.7941993,-26.430597,3.631012
2.4349751,-1.9162639,1.0840214,4.00884,-22.170704,5.5286937
2.403212,-1.964585,1.0346421,6.5264854,-18.005583,7.59049
2.3586543,-1.9655507,0.94040704,9.042293,-14.0111065,9.977566
2.280804,-1.8995652,0.8073797,11.004864,-10.525676,12.48538
2.1670191,-1.760413,0.64295363,12.514373,-7.512347,14.572508
2.05104,-1.594929,0.47147146,14.111606,-4.7251177,15.85547
1.9303722,-1.3997532,0.29334956,15.701114,-2.088631,16.322851
1.7935435,-1.1918825,0.10453608,17.063501,0.20380077,16.389496
1.6390975,-0.97352743,-0.0888798,17.884792,1.7882018,16.35575
1.4834706,-0.73569256,-0.27420714,18.292711,2.822924,16.224945
1.3432648,-0.48821014,-0.44239822,18.410576,3.4512022,15.854181
1.2133056,-0.23409411,-0.5976468,18.163404,3.7249174,15.018845
1.0977486,0.008706083,-0.7317972,17.476809,3.776701,13.822512
0.9883204,0.22595282,-0.8496023,16.303764,3.5620193,12.213618
0.8792551,0.40768155,-0.9529517,14.863369,3.0857387,10.504784
0.7718558,0.57204425,-1.0424775,13.089548,2.2797153,8.743259
0.66760236,0.7201758,-1.1108171,11.075457,1.1622934,6.7774453
0.5804738,0.84244376,-1.1528249,8.725395,-0.20094919,4.592851
0.524305,0.90588915,-1.1648387,6.134368,-1.5169787,2.4318535
0.50367403,0.9085565,-1.1544391,3.440165,-2.6075616,0.35101134
0.47993886,0.8588241,-1.1409236,1.026524,-3.5315788,-1.8702807
0.44302142,0.76689136,-1.1269286,-0.96084297,-4.4970374,-4.2925444
0.41387802,0.6425295,-1.1042365,-2.6808321,-5.5656443,-6.7393265
0.41050234,0.47866908,-1.0756596,-4.153523,-6.7761474,-8.805044
0.45515683,0.26806006,-1.0270274,-5.5281167,-7.8911147,-10.215502
0.5226372,0.040615898,-0.96094847,-6.68562,-8.703687,-11.035535
0.59471023,-0.18521751,-0.88019717,-7.535647,-9.047904,-11.5129385
0.65672886,-0.39568073,-0.7966156,-8.120404,-8.9654255,-11.820769
0.70916975,-0.58173513,-0.7136982,-8.656246,-8.465961,-11.849993
0.7502445,-0.7288818,-0.6283298,-9.314394,-7.9002132,-11.361593
0.773755,-0.8347954,-0.54280454,-9.643012,-7.3846807,-10.59878
0.7860658,-0.89135236,-0.45053735,-9.8545685,-6.788146,-9.823753
0.7615248,-0.8635243,-0.43647158,-9.546908,-6.57622,-9.5170555
0.7377543,-0.83656996,-0.4228474,-9.248908,-6.370948,-9.219987
0.7147298,-0.8104615,-0.40965077,-8.960259,-6.172117,-8.9322405
0.6924274,-0.7851719,-0.39686808,-8.680664,-5.979523,-8.65352
0.6708242,-0.76067525,-0.38448614,-8.409835,-5.792967,-8.383537
0.64989805,-0.73694617,-0.3724922,-8.147492,-5.612257,-8.122015
0.6296274,-0.7139604,-0.36087394,-7.893368,-5.437207,-7.8686852
0.60999143,-0.6916944,-0.3496195,-7.6472,-5.267639,-7.623287
0.5909701,-0.6701253,-0.33871734,-7.4087377,-5.103379,-7.3855705
0.5725439,-0.64923114,-0.3281563,-7.1777368,-4.9442577,-7.155292
0.5546941,-0.62899053,-0.3179256,-6.953962,-4.7901144,-6.9322166
0.5374025,-0.60938287,-0.30801484,-6.737184,-4.640791,-6.716117
0.52065146,-0.5903882,-0.2984139,-6.5271835,-4.4961357,-6.506773
0.504424,-0.5719871,-0.28911301,-6.323746,-4.3560014,-6.303972
0.4887035,-0.554161,-0.28010276,-6.1266656,-4.220246,-6.107507
0.47347412,-0.5368918,-0.27137396,-5.9357414,-4.088731,-5.91718
0.45872036,-0.5201619,-0.2629178,-5.7507796,-3.9613235,-5.732797
0.4444273,-0.5039544,-0.25472564,-5.5715938,-3.8378944,-5.5541716
0.43058047,-0.4882529,-0.24678926,-5.398002,-3.7183187,-5.3811226
0.41716585,-0.4730415,-0.23910059,-5.2298284,-3.6024754,-5.2134748
0.40416986,-0.45830482,-0.23165189,-5.0669036,-3.4902472,-5.0510592
0.3915794,-0.444028,-0.2244356,-4.9090624,-3.3815212,-4.8937116
0.37938172,-0.43019655,-0.21744445,-4.7561455,-3.276187,-4.741273
0.36756456,-0.41679657,-0.21067138,-4.6079984,-3.1741388,-4.5935893
0.35611597,-0.40381455,-0.20410956,-4.4644723,-3.0752733,-4.450512
0.3450244,-0.39123738,-0.19775239,-4.3254223,-2.9794912,-4.311897
0.3342787,-0.3790524,-0.19159344,-4.190708,-2.8866956,-4.177604
0.32386807,-0.3672473,-0.18562652,-4.0601945,-2.7967935,-4.047498
0.31378198,-0.35581028,-0.17984563,-3.9337494,-2.7096941,-3.9214487
0.30401027,-0.34472978,-0.17424496,-3.8112462,-2.62531,-3.7993283
0.29454318,-0.33399466,-0.16881883,-3.6925611,-2.5435557,-3.6810145
0.28537115,-0.3235941,-0.16356185,-3.5775754,-2.46435,-3.5663884
0.27648497,-0.3135177,-0.15846868,-3.4661732,-2.3876123,-3.4553344
0.2678757,-0.30375528,-0.15353425,-3.3582425,-2.3132663,-3.3477411
0.25953472,-0.2942971,-0.14875355,-3.2536747,-2.2412367,-3.2435007
0.25145358,-0.28513357,-0.14412183,-3.1523654,-2.1714516,-3.142508
0.24362426,-0.27625558,-0.13963442,-3.0542126,-2.1038406,-3.044662
0.23603885,-0.26765418,-0.1352868,-2.9591174,-2.038336,-2.9498644
0.22868975,-0.2593207,-0.13107462,-2.8669848,-1.9748721,-2.8580198
0.22156957,-0.25124687,-0.12699366,-2.7777224,-1.9133852,-2.7690363
0.21467118,-0.24342449,-0.12303982,-2.6912403,-1.8538135,-2.6828249
0.20798768,-0.23584579,-0.11920913,-2.607452,-1.7960974,-2.5992985
0.20151234,-0.22850314,-0.11549776,-2.5262735,-1.7401791,-2.5183737
0.19523868,-0.22138917,-0.11190198,-2.4476233,-1.6860023,-2.4399695
0.18916042,-0.21449678,-0.1084182,-2.3714228,-1.6335129,-2.3640072
0.18327145,-0.20781904,-0.105042905,-2.2975953,-1.582658,-2.2904108
0.17756587,-0.20134926,-0.10177273,-2.2260668,-1.5333871,-2.219106
0.17203799,-0.19508095,-0.098604396,-2.1567662,-1.4856504,-2.150022
0.16668223,-0.18900785,-0.09553472,-2.0896235,-1.4394003,-2.083089
0.16149326,-0.18312386,-0.092560634,-2.0245714,-1.3945905,-2.0182407
0.15646586,-0.17742309,-0.08967916,-1.9615452,-1.3511759,-1.9554114
0.15159501,-0.17189983,-0.08688741,-1.9004815,-1.3091133,-1.8945386
0.14687583,-0.16654855,-0.08418258,-1.8413191,-1.2683603,-1.8355613
0.14230359,-0.1613639,-0.08156198,-1.7839988,-1.2288762,-1.7784203
0.13787371,-0.15634067,-0.079022974,-1.7284633,-1.1906216,-1.7230585
0.13358176,-0.15147385,-0.07656302,-1.674657,-1.153558,-1.6694202
0.12942342,-0.14675856,-0.07417966,-1.6225258,-1.1176484,-1.6174521
0.12539457,-0.14219007,-0.0718705,-1.5720178,-1.0828568,-1.5671021
0.12149115,-0.13776381,-0.06963324,-1.5230823,-1.0491484,-1.5183196
0.11770926,-0.13347538,-0.067465626,-1.4756703,-1.0164895,-1.4710559
0.114045106,-0.12932044,-0.0653655,-1.4297345,-0.9848474,-1.4252636
0.11049503,-0.12529486,-0.063330755,-1.3852286,-0.9541904,-1.380897
0.10705548,-0.12139461,-0.06135936,-1.3421085,-0.9244878,-1.3379117
0.103723004,-0.11761579,-0.059449337,-1.3003306,-0.89570993,-1.2962645
0.10049428,-0.1139546,-0.057598777,-1.2598535,-0.86782795,-1.255914
0.097366065,-0.1104074,-0.05580583,-1.2206365,-0.840814,-1.2168195
0.09433524,-0.106970616,-0.054068696,-1.1826403,-0.814641,-1.1789422
0.09139877,-0.103640825,-0.05238564,-1.145827,-0.7892828,-1.142244
0.088553704,-0.10041469,-0.05075498,-1.1101598,-0.764714,-1.1066883
0.08579721,-0.097288996,-0.049175084,-1.0756028,-0.74091005,-1.0722394
0.08312653,-0.094260596,-0.04764437,-1.0421215,-0.7178471,-1.0388628
0.08053899,-0.091326475,-0.046161305,-1.0096827,-0.6955021,-1.0065254
0.078031994,-0.08848369,-0.044724412,-0.97825354,-0.67385274,-0.9751945
0.07560304,-0.0857294,-0.043332245,-0.9478028,-0.6528773,-0.944839
0.0732497,-0.08306085,-0.041983414,-0.9183,-0.63255477,-0.91542846
0.07096962,-0.08047537,-0.040676575,-0.88971555,-0.6128649,-0.8869334
0.068760514,-0.07797038,-0.039410416,-0.8620209,-0.59378797,-0.8593254
0.06662017,-0.07554336,-0.03818367,-0.83518845,-0.57530487,-0.8325768
