ax,ay,az,gx,gy,gz
-3.6063964,-1.7881981,-6.5300593,-0.77637064,-13.094665,-14.26013
-3.8144238,-2.698632,-7.330972,8.143268,-25.147533,-12.409471
-3.6950386,-3.3851554,-7.609227,11.724829,-34.96999,-7.3537107
-3.3983223,-3.862492,-7.7261896,12.380711,-41.888744,1.8127954
-3.1725385,-4.1522403,-7.937074,13.117121,-47.82204,10.884656
-3.0782857,-4.331426,-8.260429,16.208784,-55.644905,16.204386
-2.9974613,-4.514342,-8.535546,19.627417,-63.627228,18.125298
-2.7537374,-4.79491,-8.663782,23.73412,-70.42697,19.276106
-2.4209883,-5.0773325,-8.702256,26.98758,-75.93108,22.070086
-2.1173134,-5.350821,-8.73656,31.0654,-80.77431,26.997047
-1.8903453,-5.552872,-8.778202,36.257626,-86.53907,33.303104
-1.6429698,-5.546508,-8.6600685,42.041634,-92.92878,39.720215
-1.3386606,-5.2821584,-8.360161,46.53427,-99.47784,45.524406
-0.9730805,-4.89492,-7.8995757,49.629887,-104.93123,50.551563
-0.61910486,-4.552903,-7.4026904,52.34338,-108.598015,54.55477
-0.3241414,-4.257284,-6.9263253,55.774925,-111.953255,58.695816
0.028681898,-3.6367097,-6.275992,56.90878,-116.2017,63.435455
0.49053502,-2.8459742,-5.438953,56.159412,-120.14553,67.67007
1.0512882,-2.0408974,-4.464335,54.62753,-121.923515,69.98958
1.6239741,-1.3160161,-3.443037,53.35741,-120.515274,70.276566
2.1442904,-0.5916691,-2.4493697,51.32003,-116.18106,68.94692
2.58927,0.11942327,-1.5249028,48.485764,-110.68404,66.547226
2.9830155,0.7408359,-0.6973005,45.268085,-104.35394,63.182625
3.339742,1.2467638,0.023771992,41.761734,-97.06042,58.89831
3.6592107,1.6237073,0.6262109,38.117134,-88.57741,53.811253
3.9136732,1.879162,1.088672,34.425716,-78.63346,47.913895
4.0576396,2.0121648,1.3650184,31.004072,-68.68393,41.864956
4.1355386,2.0628037,1.5262403,27.88073,-59.157047,35.946003
4.177546,2.0531228,1.6090848,24.777126,-50.04636,30.476458
4.185415,1.9906975,1.6260052,21.678402,-41.20068,25.442236
4.1506095,1.9058924,1.5859982,18.89489,-32.550564,20.493267
4.061353,1.8067374,1.4786197,16.539158,-24.289803,15.509535
3.936915,1.710098,1.3259962,14.213791,-16.700531,10.85599
3.7821777,1.6042542,1.1208183,11.71285,-9.967304,6.7990055
3.591257,1.4666902,0.84536743,9.432842,-4.5053983,3.2425966
3.4032643,1.2856531,0.54259634,7.5422935,-0.3695302,0.27744815
3.2452326,1.0572948,0.24952619,6.125873,3.146418,-1.9884305
3.0982044,0.84591067,-0.032162517,5.169317,6.3978357,-3.647672
2.928543,0.6735257,-0.33000207,4.511421,9.179224,-5.1322927
2.7296057,0.52011317,-0.65002537,4.158985,11.075369,-6.680951
2.526832,0.3730779,-0.9655567,3.900115,11.920721,-7.9903665
2.3266776,0.2506831,-1.2694004,3.5149994,12.097397,-8.940757
2.1365857,0.1702934,-1.5586305,2.8473976,11.619457,-9.757932
1.9653624,0.08750336,-1.8231364,2.2389333,10.688654,-10.606364
1.8191859,-0.003166676,-2.0673332,1.8273247,9.50917,-11.384458
1.6828208,-0.089861885,-2.299138,1.5008382,7.95494,-11.888142
1.5297832,-0.1701853,-2.5142715,1.2510172,6.104576,-12.255179
1.3606337,-0.24673171,-2.7078733,1.1348499,3.9399853,-12.559155
1.1842078,-0.3162934,-2.8814864,1.1086364,1.3563818,-12.75942
1.0269177,-0.37548074,-3.0311923,0.9862195,-1.6984627,-12.641351
0.8969017,-0.42753947,-3.1623175,0.8685713,-5.354789,-12.14295
0.80930877,-0.48128733,-3.274101,0.74927354,-9.321127,-11.428153
0.7352682,-0.56145495,-3.3442528,0.8037515,-13.379326,-10.689549
0.6662392,-0.659598,-3.3598778,1.4063799,-17.421032,-9.891393
0.61167,-0.7304714,-3.3270524,2.3889666,-21.451937,-9.003625
0.5616508,-0.7532598,-3.267945,3.4683113,-25.674862,-8.293579
0.52667445,-0.7627874,-3.1990235,4.4460864,-30.095041,-7.9345403
0.52212965,-0.82073677,-3.082417,5.3685412,-34.585545,-7.560486
0.5583886,-0.90601283,-2.9071314,6.148279,-38.915184,-6.448106
0.6337168,-0.9335364,-2.65674,6.2998967,-43.11088,-4.4090447
0.75891274,-0.8856401,-2.3257864,5.7126203,-46.74624,-2.5390055
0.93988824,-0.85539246,-1.9303164,5.375277,-49.52863,-1.634142
1.1592678,-0.90476197,-1.5128522,5.2745323,-51.220142,-1.0250689
1.3963807,-1.0050482,-1.0848193,5.222538,-51.804268,0.2458583
1.628892,-1.0850962,-0.65993154,5.0388055,-51.539627,2.03086
1.8673054,-1.1261606,-0.23464884,5.137676,-50.01211,3.4688058
2.0850298,-1.163844,0.15533213,5.735894,-47.525185,4.2926383
2.271983,-1.2282463,0.4921844,6.475972,-44.218227,5.1706367
2.4208746,-1.3063887,0.7613448,7.3549156,-40.26025,6.3407617
2.5304418,-1.3652714,0.96333724,8.426317,-35.92675,7.6585584
2.6054423,-1.3874551,1.1112223,9.839006,-31.33925,8.640957
2.6494968,-1.3875996,1.2073333,11.389201,-26.5527,9.352067
2.6774883,-1.3838018,1.2528583,12.948232,-21.608484,10.0803795
2.685465,-1.3728346,1.2424284,14.444303,-16.57739,10.904714
2.673444,-1.342523,1.1827632,15.796512,-11.469771,11.86634
2.6142857,-1.2886785,1.0679631,17.23001,-6.7301345,12.680614
2.497467,-1.1971061,0.90759206,18.57814,-2.5348792,13.132596
2.3678045,-1.0970482,0.73307794,19.58942,1.2617264,13.379019
2.2251518,-0.9952511,0.5408441,20.294401,4.6212096,13.553894
2.0694602,-0.8872271,0.3345906,20.864958,7.4736347,13.632655
1.9007125,-0.7599455,0.12475817,21.320942,9.522513,13.451238
1.7288073,-0.6038991,-0.06987725,21.535513,10.959701,13.071986
1.5660467,-0.43421477,-0.24878599,21.524298,11.90331,12.445709
1.4169341,-0.25507355,-0.41305694,21.20645,12.398325,11.60544
1.295282,-0.07177302,-0.55387497,20.465387,12.603261,10.774803
1.1901428,0.11348559,-0.6807388,19.201801,12.523746,9.738829
1.0921258,0.28187743,-0.7972448,17.901909,12.163276,8.257033
0.99902076,0.4403851,-0.900721,16.452007,11.467738,6.4433823
0.9191003,0.5901169,-0.9796149,14.619589,10.530249,4.5669003
0.84786254,0.72487295,-1.0308044,12.455204,9.461878,2.685031
0.7806717,0.84188104,-1.0658333,9.898713,8.249613,0.71184313
0.71695775,0.91350013,-1.0940526,7.272282,6.8961353,-1.4243071
0.66080225,0.9479799,-1.109984,4.6793537,5.4536757,-3.8023248
0.6097402,0.93718493,-1.1051968,2.2104824,3.9632888,-6.3514695
0.5619187,0.8846572,-1.0775064,-0.24335977,2.393973,-8.842977
0.525927,0.77993757,-1.0328965,-2.5948884,0.7673223,-11.106923
0.5247413,0.5975812,-0.9777202,-4.7940083,-0.7736513,-13.034208
0.54572135,0.35305652,-0.91875106,-6.624291,-2.1305904,-14.584066
0.58831966,0.07364444,-0.8499843,-8.065079,-3.1682525,-15.5396595
0.64272904,-0.19772269,-0.77216697,-9.123036,-3.8033764,-15.956094
0.70229816,-0.43934715,-0.6915503,-9.737882,-3.9724271,-15.875229
0.756435,-0.6369042,-0.62199247,-9.885491,-3.9798768,-15.448111
0.800629,-0.800469,-0.55521303,-9.786477,-3.758437,-14.826703
0.7756379,-0.7754829,-0.53788245,-9.480999,-3.6411197,-14.363898
0.75143105,-0.7512809,-0.5210957,-9.185106,-3.5274842,-13.915616
0.7279835,-0.727838,-0.5048355,-8.898496,-3.417413,-13.481394
0.705271,-0.70513004,-0.48908502,-8.62087,-3.3107924,-13.060786
0.6832703,-0.6831337,-0.47382814,-8.351944,-3.2075133,-12.653358
0.6619587,-0.6618264,-0.4590492,-8.091442,-3.107469,-12.258693
0.64131445,-0.64118624,-0.444733,-7.8390975,-3.0105577,-11.876386
0.6213163,-0.62119216,-0.4308649,-7.594651,-2.9166796,-11.506044
0.601944,-0.6018237,-0.41743073,-7.357854,-2.825739,-11.147292
0.5831776,-0.5830611,-0.4044168,-7.1284633,-2.7376428,-10.799761
0.5649981,-0.5648852,-0.39180982,-6.906246,-2.6523018,-10.463098
0.5473869,-0.5472775,-0.37959695,-6.6909757,-2.5696285,-10.136959
0.53032607,-0.5302201,-0.36776578,-6.4824333,-2.489539,-9.8210125
0.51379836,-0.5136957,-0.3563043,-6.280407,-2.411952,-9.514939
0.49778697,-0.4976875,-0.34520084,-6.0846915,-2.3367887,-9.218427
0.4822756,-0.48217922,-0.33444417,-5.8950887,-2.263973,-8.931174
0.46724862,-0.46715522,-0.32402337,-5.7114067,-2.193431,-8.652892
0.45269072,-0.45260027,-0.31392792,-5.5334587,-2.125091,-8.383298
0.43858725,-0.4384996,-0.30414757,-5.361065,-2.0588844,-8.122118
0.42492393,-0.42483902,-0.29467243,-5.1940513,-1.9947438,-7.869089
0.41168693,-0.41160467,-0.285493,-5.0322495,-1.9326047,-7.6239557
0.39886293,-0.3987832,-0.27659988,-4.875495,-1.8724042,-7.3864703
0.38643894,-0.38636172,-0.2679842,-4.723631,-1.8140817,-7.156393
0.37440246,-0.37432766,-0.25963727,-4.5765033,-1.7575781,-6.9334917
0.36274138,-0.36266887,-0.25155064,-4.433964,-1.7028368,-6.7175417
0.3514439,-0.35137364,-0.24371615,-4.2958694,-1.6498024,-6.5083256
0.34049866,-0.3404306,-0.23612595,-4.1620803,-1.5984216,-6.3056326
0.32989463,-0.3298287,-0.22877237,-4.032462,-1.5486425,-6.109259
0.31962118,-0.3195573,-0.22164804,-3.906885,-1.5004153,-5.919007
0.30966794,-0.30960608,-0.21474576,-3.7852218,-1.4536914,-5.734685
0.30002493,-0.299965,-0.20805861,-3.6673505,-1.4084237,-5.5561075
0.29068244,-0.29062435,-0.20157985,-3.5531526,-1.3645667,-5.3830957
0.28163108,-0.28157482,-0.19530301,-3.4425135,-1.3220763,-5.215475
0.27286178,-0.27280724,-0.18922174,-3.335322,-1.2809101,-5.053078
0.2643657,-0.26431286,-0.18332997,-3.2314703,-1.2410265,-4.8957405
0.25613433,-0.25608316,-0.17762175,-3.1308544,-1.2023855,-4.7433057
0.24815942,-0.24810982,-0.17209136,-3.033373,-1.1649485,-4.595619
0.24043293,-0.24038488,-0.16673328,-2.9389284,-1.1286776,-4.452534
0.23294714,-0.23290059,-0.1615421,-2.847426,-1.0935366,-4.3139057
0.22569452,-0.22564942,-0.15651262,-2.7587738,-1.0594902,-4.179596
0.21866782,-0.21862411,-0.1516398,-2.672883,-1.0265044,-4.04947
0.21185997,-0.21181764,-0.14691876,-2.5896673,-0.994546,-3.9233966
0.20526417,-0.20522314,-0.14234476,-2.5090435,-0.9635829,-3.80125
0.19887379,-0.19883403,-0.13791321,-2.4309309,-0.93358415,-3.6829076
0.19268242,-0.19264391,-0.13361968,-2.3552506,-0.9045197,-3.5682507
0.18668386,-0.18664655,-0.12945986,-2.2819276,-0.87636036,-3.4571648
0.18087211,-0.18083596,-0.12542957,-2.2108877,-0.84907794,-3.3495378
0.17524135,-0.17520633,-0.1215248,-2.14206,-0.8226451,-3.2452629
0.16978592,-0.16975199,-0.11774162,-2.0753758,-0.7970354,-3.1442347
0.16450037,-0.1644675,-0.11407624,-2.010768,-0.7722232,-3.0463526
0.15937941,-0.15934755,-0.110525005,-1.9481719,-0.7481835,-2.9515183
0.15441789,-0.15438703,-0.107084334,-1.8875248,-0.72489244,-2.859637
0.14961086,-0.14958096,-0.1037508,-1.8287662,-0.70232654,-2.7706165
0.1449535,-0.14492454,-0.10052106,-1.7718371,-0.68046325,-2.6843677
0.14044116,-0.14041309,-0.09739188,-1.7166805,-0.65928066,-2.6008043
0.13606931,-0.13604212,-0.09436013,-1.6632413,-0.63875765,-2.5198429
0.13183357,-0.13180722,-0.09142277,-1.6114657,-0.6188736,-2.441402
0.12772971,-0.12770419,-0.08857685,-1.5613022,-0.5996086,-2.3654034
0.123753615,-0.123728886,-0.08581955,-1.5127006,-0.5809434,-2.291771
0.119901314,-0.11987735,-0.083148085,-1.4656119,-0.56285936,-2.2204306
0.11616894,-0.11614572,-0.0805598,-1.4199893,-0.5453383,-2.1513116
0.11255277,-0.112530276,-0.07805208,-1.3757871,-0.52836263,-2.0843444
0.10904917,-0.10902738,-0.07562244,-1.332961,-0.51191556,-2.0194619
0.10565465,-0.105633534,-0.07326844,-1.291468,-0.49598044,-1.9565994
0.10236581,-0.10234535,-0.070987724,-1.251267,-0.48054144,-1.8956938
0.09917934,-0.099159524,-0.068778,-1.2123172,-0.46558306,-1.8366843
0.09609208,-0.09607288,-0.06663708,-1.1745802,-0.45109037,-1.7795119
0.09310093,-0.09308232,-0.0645628,-1.1380179,-0.43704882,-1.7241193
0.09020289,-0.09018487,-0.06255309,-1.1025938,-0.42344442,-1.670451
0.08739507,-0.08737761,-0.06060595,-1.0682724,-0.4102635,-1.6184535
0.08467466,-0.084657736,-0.058719423,-1.0350194,-0.39749292,-1.5680746
0.08203893,-0.08202253,-0.05689162,-1.0028017,-0.38511986,-1.5192641
0.07948525,-0.07946937,-0.055120718,-0.97158676,-0.373132,-1.471973
0.07701106,-0.07699567,-0.053404942,-0.9413436,-0.36151728,-1.426154
0.0746139,-0.07459899,-0.05174258,-0.9120419,-0.35026413,-1.3817613
0.07229136,-0.07227691,-0.05013196,-0.8836523,-0.3393613,-1.3387505
0.07004111,-0.07002711,-0.048571482,-0.8561465,-0.32879785,-1.2970786
