ax,ay,az,gx,gy,gz
-1.265466,-1.3263757,-6.042782,-13.816489,-8.211893,-23.304758
-1.9051391,-1.6678236,-6.961991,-7.088066,-17.647419,-28.86429
-2.1801083,-2.0598807,-7.5760093,-2.706561,-29.144234,-31.449846
-2.2381012,-2.495178,-8.024494,-2.3876843,-38.072067,-29.383709
-2.3260806,-3.113111,-8.65519,-1.6395552,-47.456017,-25.525017
-2.4582937,-3.8602796,-9.349885,3.3993733,-58.026184,-22.149351
-2.4563963,-4.505224,-10.056829,7.749076,-70.233475,-18.116827
-2.2018735,-5.094819,-10.555492,11.170189,-83.57396,-13.30134
-1.768151,-5.6550546,-10.8186245,15.410736,-95.91657,-5.7057395
-1.3062546,-6.0480657,-10.938157,20.817034,-106.52705,3.3937194
-0.8443317,-6.317252,-10.927976,29.327839,-115.67958,11.474463
-0.30489814,-6.3073225,-10.569839,38.685036,-122.903046,18.431292
0.29954845,-6.009639,-9.945756,46.470634,-127.978775,25.095581
0.8816234,-5.621013,-9.202702,53.658226,-131.44829,31.349344
1.4048638,-5.138024,-8.36435,59.85378,-133.974,37.56009
1.9482243,-4.469035,-7.380314,62.742012,-136.19102,44.320267
2.5746162,-3.5897627,-6.183879,62.46276,-136.72905,50.466747
3.1607127,-2.7969615,-4.9904466,61.40237,-134.79933,54.821575
3.651118,-2.0441594,-3.842599,61.381035,-130.75603,57.029423
4.0846267,-1.2042881,-2.7203686,61.120007,-125.19475,57.491253
4.4670777,-0.30469704,-1.6438781,59.54445,-117.886925,56.156628
4.787055,0.5559046,-0.68793684,57.091064,-109.45704,53.59716
5.0605435,1.2813845,0.110579886,54.035934,-99.705345,49.641327
5.2808213,1.8448963,0.7330574,50.5544,-88.33973,44.178543
5.3999505,2.2551436,1.1470405,47.366543,-76.04753,37.44643
5.3863845,2.5589435,1.3599755,44.710163,-64.42842,29.800203
5.281094,2.7404056,1.4144593,41.53448,-54.035686,22.33258
5.167257,2.8133428,1.4023386,37.875267,-44.586655,15.433415
5.057433,2.8030357,1.333508,33.849728,-35.81692,9.280686
4.9465866,2.736858,1.2026956,29.827171,-27.442976,3.5516465
4.8174305,2.638379,1.0066501,26.147532,-19.5295,-2.025106
4.6625094,2.4955857,0.7250551,23.248331,-12.446728,-7.545391
4.499085,2.3061044,0.39844424,20.859644,-6.5087924,-12.285103
4.346705,2.0811808,0.04370943,18.52251,-1.7524678,-15.728441
4.2003856,1.8671143,-0.33484453,15.729156,1.7857063,-18.165836
4.0557923,1.6636119,-0.7225771,12.694838,4.055495,-20.350573
3.9042082,1.4253079,-1.1127685,10.439459,5.8227634,-22.618834
3.7384577,1.181223,-1.5089525,9.134652,7.014811,-24.766169
3.5605094,0.9547265,-1.9035811,8.228712,7.587857,-26.408674
3.3730915,0.7691654,-2.2930946,7.2895317,7.3037095,-27.371279
3.1837325,0.612751,-2.664344,6.612358,6.022764,-27.721632
3.0197396,0.5015238,-3.0004792,5.9460406,4.363916,-27.662098
2.856209,0.4181883,-3.3241286,5.47199,2.2901003,-27.559612
2.681895,0.35398948,-3.6342216,5.3242073,-0.14790128,-27.511093
2.500104,0.30491853,-3.9315817,5.287379,-3.052352,-27.312984
2.3244395,0.26023299,-4.2138352,4.670972,-6.927336,-26.554743
2.1672387,0.20831296,-4.450586,3.7745245,-11.398799,-25.414862
2.0356297,0.18902683,-4.630115,2.560706,-16.157528,-23.996822
1.8986852,0.20982349,-4.756465,1.3559227,-21.225231,-22.8457
1.7692484,0.23661405,-4.8176126,0.5236032,-26.711618,-22.342228
1.6942306,0.22910587,-4.76002,-0.86297977,-32.7501,-21.448717
1.6856982,0.17355758,-4.559789,-2.4850547,-38.87173,-20.204456
1.7599723,0.08176947,-4.2778063,-4.249386,-44.978836,-19.256247
1.9354007,-0.072328925,-3.8698792,-5.8479114,-50.67162,-18.35382
2.209088,-0.24319045,-3.3293724,-7.3323975,-55.354057,-17.02395
2.542498,-0.40413195,-2.706591,-8.218406,-57.634354,-15.793396
2.8607595,-0.6048473,-2.0910945,-8.465971,-58.181717,-14.888698
3.1250477,-0.851632,-1.5171076,-8.102488,-57.597126,-13.722649
3.3545167,-1.0787951,-0.9633885,-7.389133,-56.251823,-12.020122
3.5702295,-1.2456723,-0.41579443,-6.3134446,-53.994076,-10.121612
3.7671623,-1.3562851,0.09540507,-4.7721133,-50.612537,-8.353483
3.9191988,-1.4321833,0.4950804,-2.6836343,-45.684433,-6.793591
4.0119777,-1.4961674,0.774307,-0.38372195,-40.040016,-5.287932
4.044932,-1.5512991,0.9451252,1.8190422,-34.116264,-3.7398086
4.026241,-1.6033152,1.0321848,3.8970814,-28.21916,-1.9620568
3.9820828,-1.6460103,1.0434492,5.89831,-22.588024,0.101885356
3.9267013,-1.6843393,0.9666157,7.952866,-17.185242,2.2561562
3.8627613,-1.7155834,0.8291636,10.21529,-11.959092,4.429413
3.777912,-1.7294255,0.64037794,12.748663,-6.951504,6.521826
3.650431,-1.6872575,0.39687762,15.201159,-2.6058164,8.332082
3.4904861,-1.627295,0.13146517,17.624414,0.96351194,9.852715
3.3128603,-1.5160645,-0.1360779,19.614044,3.909836,11.390837
3.127579,-1.3580536,-0.394777,21.099886,6.1637554,12.771515
2.9423425,-1.1752126,-0.6367726,22.451632,7.8924108,13.678907
2.7559009,-0.9735056,-0.8661041,23.836332,9.113813,14.136926
2.5731547,-0.7376719,-1.0749254,25.01348,9.789216,14.272875
2.4166343,-0.43100566,-1.2391251,25.451809,9.850223,14.120726
2.2812185,-0.08627837,-1.3712324,25.205057,9.600805,13.651634
2.1610827,0.26401952,-1.4846958,24.37504,9.1226,12.691214
2.0558386,0.59982723,-1.5834837,22.963799,8.496302,11.211519
1.9582142,0.9056379,-1.6688117,21.10204,7.8728995,9.08164
1.8415726,1.1814172,-1.7599847,19.081219,7.035179,6.4785414
1.7195269,1.4284482,-1.8489815,16.65497,5.821187,3.5597353
1.6018374,1.6329706,-1.9276088,13.775049,4.2259164,0.4314296
1.5015846,1.7780014,-1.9924384,10.749559,2.3672361,-2.9457135
1.4227184,1.8609942,-2.039275,7.7288313,0.27667752,-6.661431
1.3585467,1.8470285,-2.0554605,4.77961,-1.9463735,-10.407957
1.3123242,1.7599807,-2.0361545,1.7042152,-4.3187437,-13.927854
1.3046324,1.5802635,-1.9817516,-1.2771246,-6.6442966,-16.98933
1.360773,1.3139011,-1.8993992,-3.9494686,-8.687432,-19.406439
1.4746515,0.9853843,-1.7937227,-6.4662476,-10.166682,-20.993484
1.6147305,0.62623066,-1.6725144,-9.054195,-10.637688,-21.544003
1.7442378,0.2854946,-1.5496044,-11.478044,-10.394508,-21.396942
1.83385,-0.021868903,-1.44166,-13.07843,-9.918356,-20.851528
1.8814029,-0.28179228,-1.3462616,-13.616304,-9.466794,-20.02552
1.9003724,-0.49219775,-1.2487782,-13.379439,-8.76421,-18.738874
1.8725365,-0.6243099,-1.1690327,-12.80659,-8.072317,-17.219955
1.8140107,-0.6047972,-1.1324948,-12.4063225,-7.8200183,-16.681747
1.7573284,-0.5858991,-1.0971078,-12.018662,-7.5756664,-16.160494
1.7024301,-0.56759584,-1.0628346,-11.643205,-7.3390055,-15.655647
1.6492587,-0.54986835,-1.0296395,-11.279556,-7.109789,-15.166679
1.5977588,-0.5326981,-0.9974877,-10.92734,-6.887778,-14.693083
1.5478766,-0.5160672,-0.96634614,-10.586187,-6.672741,-14.234364
1.4995607,-0.49995852,-0.9361823,-10.255747,-6.4644556,-13.790048
1.452761,-0.48435533,-0.906965,-9.935676,-6.2627068,-13.359674
1.4074292,-0.46924156,-0.8786642,-9.625644,-6.067286,-12.9428005
1.3635186,-0.45460162,-0.8512506,-9.325332,-5.8779917,-12.538997
1.320984,-0.44042045,-0.82469606,-9.0344305,-5.6946297,-12.147845
1.2797818,-0.4266835,-0.7989733,-8.752642,-5.5170107,-11.768948
1.2398697,-0.41337666,-0.774056,-8.479676,-5.344954,-11.401914
1.2012069,-0.40048635,-0.7499187,-8.215255,-5.1782823,-11.046369
1.1637539,-0.3879994,-0.7265366,-7.959107,-5.016826,-10.701948
1.1274723,-0.375903,-0.70388585,-7.710972,-4.86042,-10.368301
1.0923253,-0.3641849,-0.6819435,-7.470596,-4.708905,-10.045088
1.0582771,-0.35283312,-0.660687,-7.2377343,-4.5621266,-9.731978
1.0252931,-0.34183612,-0.64009494,-7.012151,-4.4199357,-9.428655
0.9933396,-0.33118272,-0.6201463,-6.793616,-4.2821875,-9.134809
0.96238434,-0.32086214,-0.6008207,-6.5819073,-4.148742,-8.8501425
0.9323959,-0.31086388,-0.5820988,-6.376811,-4.019465,-8.574367
0.90334374,-0.3011778,-0.56396145,-6.178119,-3.8942242,-8.307201
0.87519866,-0.29179412,-0.5463903,-5.98563,-3.7728934,-8.048378
0.84793204,-0.28270334,-0.5293677,-5.799149,-3.65535,-7.797632
0.8215164,-0.27389628,-0.5128763,-5.618488,-3.5414746,-7.5547123
0.79592496,-0.26536402,-0.49689943,-5.443464,-3.4311526,-7.319372
0.77113193,-0.25709796,-0.48142105,-5.2739005,-3.3242726,-7.0913744
0.74711233,-0.24908975,-0.4664255,-5.1096263,-3.2207265,-6.8704886
0.7238419,-0.24133131,-0.45189768,-4.950476,-3.12041,-6.6564927
0.7012972,-0.23381482,-0.4378229,-4.796289,-3.023222,-6.44917
0.6794555,-0.22653273,-0.42418703,-4.6469097,-2.9290645,-6.2483125
0.6582948,-0.21947767,-0.41097632,-4.502188,-2.837843,-6.053717
0.6377938,-0.21264257,-0.39817744,-4.3619785,-2.749465,-5.8651886
0.61793184,-0.20602053,-0.38577756,-4.2261395,-2.6638422,-5.6825376
0.598689,-0.19960491,-0.37376416,-4.0945344,-2.5808883,-5.505579
0.58004594,-0.19338924,-0.36212522,-3.9670312,-2.5005198,-5.334136
0.5619839,-0.18736729,-0.35084897,-3.8435016,-2.422656,-5.1680365
0.5444846,-0.18153298,-0.33992413,-3.7238214,-2.3472188,-5.0071125
0.5275307,-0.17588049,-0.3293397,-3.6078708,-2.274132,-4.851203
0.511105,-0.1704041,-0.3190851,-3.4955328,-2.2033224,-4.7001514
0.4951911,-0.16509835,-0.30914998,-3.386695,-2.1347191,-4.5538063
0.47977298,-0.1599579,-0.29952437,-3.2812476,-2.0682533,-4.41202
0.46483517,-0.15497759,-0.29019862,-3.1790855,-2.0038579,-4.2746515
0.4503627,-0.15015242,-0.2811634,-3.0801058,-1.9414685,-4.1415615
0.43634105,-0.14547755,-0.27240962,-2.9842093,-1.8810225,-4.0126176
0.42275614,-0.1409483,-0.2639285,-2.8913,-1.8224592,-3.88769
0.40959436,-0.13656011,-0.25571153,-2.8012843,-1.7657201,-3.7666535
0.3968425,-0.1323086,-0.2477505,-2.7140722,-1.7107482,-3.6493866
0.3844878,-0.1281895,-0.24003741,-2.6295764,-1.6574883,-3.5357723
0.37251788,-0.1241987,-0.23256454,-2.547712,-1.6058872,-3.4256961
0.36092073,-0.12033217,-0.22532438,-2.4683971,-1.5558931,-3.319048
0.34968472,-0.116586044,-0.21830969,-2.3915522,-1.5074557,-3.215721
0.3387986,-0.11295658,-0.21151344,-2.3171003,-1.4605268,-3.1156118
0.32825148,-0.10944013,-0.20492883,-2.2449667,-1.4150592,-3.0186198
0.3180328,-0.10603319,-0.19854927,-2.1750796,-1.3710074,-2.924648
0.3081323,-0.10273233,-0.19236834,-2.1073682,-1.3283274,-2.8336027
0.2985401,-0.09953425,-0.18637988,-2.0417655,-1.2869763,-2.7453918
0.28924653,-0.096435755,-0.18057787,-1.9782054,-1.2469127,-2.6599278
0.28024235,-0.09343373,-0.17495652,-1.9166243,-1.2080966,-2.5771248
0.2715185,-0.09052517,-0.16951019,-1.8569605,-1.1704891,-2.4969
0.2630663,-0.08770718,-0.16423343,-1.7991544,-1.1340524,-2.419173
0.25487724,-0.08497692,-0.15912096,-1.7431481,-1.0987502,-2.3438659
0.24694313,-0.08233166,-0.15416768,-1.6888855,-1.0645471,-2.2709033
0.23925605,-0.07976876,-0.1493686,-1.6363121,-1.0314088,-2.2002125
0.23180829,-0.077285655,-0.14471893,-1.5853757,-0.99930227,-2.1317225
0.2245924,-0.074879855,-0.14021401,-1.536025,-0.9681953,-2.0653648
0.21760117,-0.07254895,-0.13584936,-1.4882107,-0.93805677,-2.001073
0.21082757,-0.07029061,-0.13162057,-1.441885,-0.9088565,-1.9387826
0.20426485,-0.06810258,-0.12752344,-1.3970015,-0.8805653,-1.8784314
0.19790645,-0.06598266,-0.12355386,-1.3535153,-0.85315484,-1.8199592
0.19174598,-0.063928746,-0.11970785,-1.3113829,-0.8265977,-1.7633072
0.18577729,-0.061938766,-0.11598158,-1.270562,-0.8008673,-1.7084188
0.17999442,-0.06001074,-0.1123713,-1.231012,-0.7759379,-1.6552392
0.17439157,-0.05814273,-0.10887342,-1.1926931,-0.75178456,-1.6037151
0.16896313,-0.05633287,-0.105484426,-1.1555672,-0.7283831,-1.5537949
0.1637037,-0.054579355,-0.102200925,-1.119597,-0.7057102,-1.5054287
0.15860797,-0.052880425,-0.09901965,-1.0847465,-0.68374306,-1.4585681
0.15367088,-0.05123438,-0.0959374,-1.0509808,-0.66245973,-1.4131663
0.14888747,-0.04963958,-0.0929511,-1.0182663,-0.64183897,-1.3691778
0.14425297,-0.048094418,-0.09005776,-0.9865702,-0.6218601,-1.3265587
0.13976274,-0.04659736,-0.08725449,-0.95586073,-0.6025031,-1.2852663
0.13541228,-0.045146905,-0.084538475,-0.9261072,-0.58374876,-1.2452593
