ax,ay,az,gx,gy,gz
-4.1764016,3.3845763,-5.1855016,8.267347,1.6091055,-10.598278
-5.4469476,3.4772127,-6.223484,6.4513664,-30.594393,-19.594795
-5.996993,3.3863344,-6.5271034,2.5125017,-51.12241,-27.681118
-5.863085,3.2180696,-6.6196156,-8.711316,-62.185413,-29.645672
-5.3595386,2.9173589,-6.695655,-20.275663,-67.76303,-26.096563
-5.1520905,2.5058916,-6.7556195,-29.020868,-70.24554,-21.535402
-5.1720595,2.0403306,-6.895118,-31.804354,-72.0845,-19.559286
-5.125304,1.6239587,-7.040624,-30.01659,-73.963394,-20.867304
-4.9456143,1.2536346,-7.163098,-24.79617,-77.23773,-22.617844
-4.7333555,0.842726,-7.1733766,-19.173712,-81.4442,-23.111729
-4.4159064,0.4677849,-7.1113133,-13.041449,-85.88828,-22.168554
-3.984718,0.17643341,-7.014795,-6.6752944,-90.162315,-20.684605
-3.6162157,-0.1246262,-6.864419,0.17174236,-94.359406,-18.811066
-3.2890313,-0.3976197,-6.648703,8.851102,-98.616234,-17.123945
-2.8657074,-0.5264529,-6.2980766,17.679276,-102.17289,-15.66742
-2.4313536,-0.5667625,-5.866508,25.120201,-105.41494,-13.88434
-1.9959242,-0.5684307,-5.356869,29.794264,-108.13096,-10.987477
-1.557572,-0.54614097,-4.811873,31.918999,-110.324326,-7.299572
-1.1399853,-0.53358704,-4.258647,33.028717,-111.28661,-3.5148988
-0.76861686,-0.51743203,-3.70019,34.826057,-111.51703,-0.28844893
-0.4246805,-0.4307345,-3.1359637,37.165833,-111.21826,2.4131498
-0.07757515,-0.24128164,-2.5505962,39.066525,-110.2199,4.590633
0.26361442,0.017001832,-1.9484235,39.789967,-108.31321,6.3653297
0.59009296,0.27717525,-1.3683496,39.457024,-104.86953,7.2896657
0.8791252,0.47854492,-0.85233146,39.29663,-100.79703,7.288402
1.1737882,0.6274002,-0.37770784,39.57032,-96.33393,6.43659
1.4857007,0.73702323,0.06980367,39.9597,-91.339485,5.2536106
1.7961909,0.8195697,0.47498137,39.96319,-85.86743,4.2919235
2.0804906,0.8866818,0.8328862,38.710064,-79.60696,4.375212
2.2976527,0.9696265,1.1085267,36.360214,-72.921684,4.7495546
2.4448557,1.0269603,1.2950791,33.802795,-66.20101,4.7045135
2.5398707,1.0346113,1.4133184,31.483686,-59.476692,4.264725
2.6013875,1.0102544,1.4762582,29.737598,-53.212547,3.5590916
2.652913,0.97517455,1.5184106,28.272406,-47.181072,2.694913
2.7056158,0.9242937,1.542123,26.987179,-41.136765,1.9502907
2.7535553,0.87513185,1.5486691,25.665737,-34.870396,1.5248568
2.77358,0.8371532,1.5201257,24.161741,-28.509758,1.3887017
2.7375324,0.8121086,1.4375674,22.186703,-22.355465,1.4736583
2.6547737,0.79484725,1.3105371,19.810564,-16.621477,1.6830866
2.5330179,0.7864427,1.1452037,17.606508,-11.309079,1.9496112
2.403184,0.7993883,0.96825933,15.56583,-6.338547,2.2591112
2.2620606,0.8424555,0.7819717,13.625966,-1.5813096,2.6006353
2.0955312,0.9052381,0.5732716,11.906467,2.8178895,2.731722
1.8896391,0.9548199,0.33652684,10.7136755,6.32649,2.4609962
1.673276,0.9909122,0.09293691,9.926375,9.080906,2.0928566
1.4934009,1.0534303,-0.12695828,9.269659,11.304139,1.8652844
1.3297124,1.1639011,-0.32639295,8.401974,13.189189,1.8746284
1.1551119,1.3329242,-0.5231462,7.0022116,14.8741665,1.8061484
0.9561674,1.5305719,-0.74693674,5.011297,15.998526,1.0578399
0.7063532,1.6926839,-1.0329574,2.8320398,16.159689,-0.39140362
0.46077287,1.7895594,-1.3239579,0.7232735,15.340869,-2.4470346
0.250818,1.8303517,-1.5878892,-0.95613354,13.871438,-4.7923307
0.08465684,1.8403287,-1.8062755,-2.1904237,12.147914,-7.1565447
-0.048981246,1.8466045,-1.9811283,-3.126555,10.458737,-9.314112
-0.16592248,1.8596036,-2.1247325,-3.9409466,8.6544485,-11.373256
-0.28710613,1.8656559,-2.2490244,-4.8462095,6.6225057,-13.41501
-0.410152,1.8678705,-2.3576045,-5.573976,4.160877,-15.544895
-0.51636386,1.8773788,-2.4500368,-6.1994143,1.2701184,-17.853878
-0.59361535,1.8907609,-2.526319,-7.1394334,-1.9557716,-20.26757
-0.667503,1.88015,-2.5894673,-8.04009,-5.595855,-22.820152
-0.70893407,1.8330783,-2.6180365,-8.349903,-9.399048,-25.697071
-0.6904696,1.749976,-2.6060805,-7.6819334,-13.181816,-28.868755
-0.61835253,1.652893,-2.551848,-6.569705,-16.880413,-31.967657
-0.52418905,1.5619365,-2.4501235,-6.1669884,-20.463049,-34.28842
-0.43280798,1.4782853,-2.31695,-6.842456,-23.99141,-35.751858
-0.3305788,1.3904257,-2.1658785,-8.280736,-27.334658,-36.751835
-0.2121749,1.2733407,-1.9920219,-9.443286,-30.051924,-37.74132
-0.06683522,1.130363,-1.7986369,-9.785546,-32.165813,-39.00981
0.11149655,0.97184736,-1.5703299,-9.36581,-33.18334,-40.30193
0.30171788,0.80460554,-1.318987,-8.77913,-33.590714,-41.20634
0.4929247,0.64567393,-1.0553223,-8.540423,-33.459827,-41.58312
0.6823335,0.49535465,-0.7891191,-8.950032,-32.832603,-41.378765
0.86214703,0.3392397,-0.5414642,-9.888782,-31.81521,-40.702473
1.0191971,0.1667003,-0.32502362,-10.955345,-30.413223,-39.69613
1.1459385,-0.04262509,-0.14708188,-11.584733,-28.796225,-38.548805
1.2562546,-0.2644676,-0.00040524406,-11.598634,-27.069895,-37.263268
1.3537407,-0.48074818,0.11910427,-11.118129,-25.176064,-35.770752
1.4343168,-0.68288654,0.20980701,-10.273504,-23.108679,-33.937405
1.4915786,-0.86745375,0.2749105,-9.105774,-20.854136,-31.612724
1.513504,-1.0315444,0.3036672,-7.7699256,-18.61483,-29.097717
1.5179932,-1.182965,0.30887574,-6.3272214,-16.440144,-26.42742
1.5108789,-1.3266424,0.29342282,-4.6504765,-14.397001,-23.622192
1.4948074,-1.4625232,0.2631149,-2.7530692,-12.419547,-20.636423
1.467808,-1.5857757,0.21708587,-0.4694639,-10.499792,-17.418339
1.42499,-1.686449,0.1481814,2.0689197,-8.664522,-14.128827
1.3793334,-1.7673867,0.07155733,4.8155656,-6.9914308,-10.777752
1.3362012,-1.8253096,-0.00036113258,7.604778,-5.49245,-7.3401656
1.2963885,-1.860652,-0.06848167,10.322311,-3.9952915,-3.8091917
1.2453957,-1.8789732,-0.14929566,13.079678,-2.5304513,-0.29685143
1.1814821,-1.883957,-0.251077,16.168287,-1.1351411,2.9317048
1.1070042,-1.8833945,-0.36284715,20.109138,0.09160477,5.591262
1.0410252,-1.8681635,-0.46355814,24.899786,1.2182992,7.7803926
0.9943522,-1.8158205,-0.5374148,29.960922,2.257724,9.819963
0.96204805,-1.7187276,-0.5851218,34.20685,3.208878,12.581873
0.92835623,-1.5606387,-0.6211545,37.054638,4.0631523,16.056486
0.8839074,-1.3856823,-0.6674324,38.66157,4.6938443,19.74968
0.8308566,-1.221623,-0.7243492,39.807537,5.0470295,23.080221
0.7858854,-1.0647042,-0.777534,41.09481,5.2345576,25.926155
0.75386083,-0.887137,-0.816326,42.515087,5.358966,28.474558
0.7282175,-0.6552101,-0.8337163,43.463547,5.6186614,30.996138
0.6894822,-0.39159992,-0.85789925,43.726418,5.8492002,33.23823
0.63791275,-0.11594795,-0.8905649,43.464508,5.921951,34.95816
0.5800647,0.16300157,-0.9242962,42.976463,5.7027564,36.161003
0.52131736,0.46381396,-0.95041335,42.11128,5.0560656,37.02317
0.4648817,0.8134224,-0.9610739,40.835136,4.2944403,37.220158
0.41826674,1.1741575,-0.96138364,39.20476,3.50528,36.24347
0.39520222,1.5100117,-0.954383,37.33987,2.7865672,33.745464
0.39868975,1.7799704,-0.94641644,35.133595,2.1170173,30.20619
0.42237303,1.9725106,-0.93944794,32.528107,1.5465103,26.358953
0.4629352,2.0867937,-0.9338828,29.674898,1.0300125,22.714048
0.51086545,2.165849,-0.9207272,26.663563,0.7181201,19.405909
0.55193305,2.235727,-0.90349346,23.379189,0.6348359,16.507683
0.5635327,2.3089373,-0.89562166,19.811277,0.7843936,13.795231
0.5492388,2.3746524,-0.9134957,16.016237,0.8988494,10.659601
0.5178116,2.401158,-0.957524,12.438774,0.718627,7.0018005
0.49020287,2.3934236,-0.9992724,9.334572,0.22254221,2.9808295
0.4832779,2.3605936,-1.0240402,6.5784287,-0.44063884,-1.1675019
0.50639206,2.3094056,-1.0191152,3.9369287,-1.086905,-5.113979
0.54308707,2.2498138,-0.9964579,0.9918471,-1.463858,-8.608176
0.5647707,2.169711,-0.9844787,-2.0191228,-1.6692908,-11.998968
0.5749037,2.0657194,-0.9846819,-4.905684,-1.8587761,-15.47215
0.58160496,1.9362178,-0.9876827,-7.496773,-2.0746856,-18.956713
0.58987284,1.7830315,-0.9874745,-9.780734,-2.306661,-22.300222
0.60414416,1.6100154,-0.9784881,-11.742441,-2.367884,-25.164839
0.6100581,1.4386904,-0.9582878,-13.456608,-2.3036253,-27.751842
0.61342037,1.2834249,-0.9317091,-15.434798,-2.2109702,-29.957785
0.6096696,1.1301675,-0.9095414,-17.716303,-2.111674,-31.613949
0.58516806,0.9651513,-0.9031085,-20.050213,-2.1770594,-32.733707
0.5387884,0.7848809,-0.9088046,-21.583305,-2.4704409,-33.611343
0.4992114,0.5865308,-0.91762435,-22.27783,-2.9295466,-34.476814
0.4744153,0.3931499,-0.9119992,-22.31966,-3.4864838,-35.013096
0.45995265,0.23398043,-0.8835981,-22.059855,-3.9044204,-35.11069
0.4427956,0.113279656,-0.8434079,-21.747332,-4.159169,-35.02469
0.42452288,0.013187468,-0.7979311,-21.39893,-4.2216306,-34.863426
0.4040171,-0.081387654,-0.7534044,-21.046188,-4.257421,-34.55134
0.38206407,-0.17899412,-0.7125072,-20.645525,-4.332015,-33.948708
0.35587537,-0.2772645,-0.67587364,-19.985579,-4.4213796,-33.106384
0.3282608,-0.37231728,-0.64664,-18.888172,-4.5934925,-32.11547
0.30969545,-0.45606405,-0.61012834,-17.233927,-4.786834,-30.896967
0.3059998,-0.49846888,-0.55196285,-15.387986,-4.9228396,-29.82095
0.29647243,-0.48294896,-0.5347774,-14.908878,-4.769566,-28.89247
0.28724188,-0.46791252,-0.51812726,-14.444696,-4.6210675,-27.992912
0.27829885,-0.45334446,-0.5019958,-13.994972,-4.4771943,-27.121376
0.26963437,-0.43923017,-0.48636684,-13.5592575,-4.337803,-26.276989
0.26123977,-0.4255555,-0.47122464,-13.137114,-4.2027526,-25.4589
0.25310662,-0.41230673,-0.45655406,-12.728117,-4.071909,-24.66629
0.24522679,-0.3994706,-0.4423404,-12.33186,-3.9451404,-23.898367
0.23759235,-0.38703424,-0.4285694,-11.947942,-3.8223197,-23.15436
0.23019567,-0.37498516,-0.41522726,-11.575981,-3.7033238,-22.433523
0.22302933,-0.3633113,-0.4023006,-11.215603,-3.588034,-21.735134
0.21608616,-0.35200098,-0.3897765,-10.866448,-3.476334,-21.058493
0.2093592,-0.34104288,-0.3776424,-10.528166,-3.3681126,-20.402922
0.2028417,-0.33042598,-0.36588612,-10.200417,-3.263261,-19.767765
0.19652715,-0.32013968,-0.35449594,-9.882874,-3.1616743,-19.152388
0.19040923,-0.31017366,-0.3434604,-9.575217,-3.0632508,-18.55617
0.18448178,-0.30051795,-0.3327685,-9.277141,-2.9678917,-17.978516
0.1787389,-0.29116288,-0.32240948,-8.988345,-2.8755019,-17.418848
0.17317483,-0.2820991,-0.31237298,-8.708542,-2.7859886,-16.876606
0.167784,-0.27331752,-0.302649,-8.437449,-2.6992624,-16.351248
0.16256101,-0.26480934,-0.29322776,-8.174798,-2.6152363,-15.842245
0.15750062,-0.25656608,-0.28409985,-7.920324,-2.5338264,-15.34909
0.1525978,-0.24857943,-0.2752561,-7.6737723,-2.454951,-14.871288
0.14784761,-0.24084145,-0.26668772,-7.434897,-2.3785312,-14.408363
0.14324531,-0.23334436,-0.25838608,-7.2034583,-2.3044906,-13.959849
0.13878629,-0.22608069,-0.25034288,-6.979225,-2.2327552,-13.525299
0.13446608,-0.21904314,-0.24255009,-6.7619724,-2.1632528,-13.104278
0.13028038,-0.21222469,-0.23499991,-6.551483,-2.0959144,-12.6963625
0.12622496,-0.2056185,-0.22768477,-6.347547,-2.0306723,-12.301147
0.12229582,-0.19921798,-0.22059736,-6.1499596,-1.9674611,-11.918235
0.11848898,-0.19301671,-0.21373059,-5.9585233,-1.9062178,-11.547243
0.11480066,-0.18700849,-0.20707758,-5.7730465,-1.8468812,-11.1878
0.111227155,-0.1811873,-0.2006317,-5.5933433,-1.7893915,-10.839548
0.10776489,-0.17554733,-0.19438645,-5.4192348,-1.7336917,-10.502136
0.10441041,-0.17008293,-0.18833564,-5.250546,-1.6797258,-10.175228
0.101160355,-0.16478863,-0.18247318,-5.0871086,-1.6274397,-9.858497
0.09801147,-0.15965916,-0.17679322,-4.9287586,-1.5767813,-9.551624
0.09496061,-0.15468936,-0.17129007,-4.775338,-1.5277,-9.254306
0.09200472,-0.14987426,-0.16595824,-4.6266937,-1.4801464,-8.966242
0.08914084,-0.14520904,-0.16079237,-4.4826765,-1.4340731,-8.687145
0.08636612,-0.14068906,-0.15578732,-4.343142,-1.3894341,-8.416737
