ax,ay,az,gx,gy,gz
-3.6718516,1.5618324,-7.369158,-52.490475,-34.18031,-73.57612
-4.2227182,1.0363692,-8.458763,-59.207954,-47.55745,-81.646935
-4.511073,0.22833508,-9.185963,-63.703854,-60.138153,-86.11053
-4.615588,-0.8829287,-9.862375,-65.03785,-72.63995,-87.42795
-4.583903,-2.1569595,-10.459947,-63.92289,-85.58434,-85.74887
-4.3027515,-3.5065365,-10.892381,-58.14218,-99.6827,-79.0631
-3.7979608,-4.9354453,-11.126399,-49.355865,-113.27937,-69.70389
-3.1775541,-6.2070003,-11.179757,-38.91206,-126.686844,-59.34151
-2.3420599,-7.303259,-10.972472,-27.339222,-139.37012,-48.209778
-1.2820905,-8.210288,-10.427926,-15.706396,-149.19135,-35.47058
-0.17033406,-8.862069,-9.591813,-2.6730976,-153.29971,-19.364033
0.82588375,-8.927626,-8.44513,8.326344,-154.20064,-3.4613612
1.7251998,-8.623183,-7.170875,16.471064,-152.77475,11.519525
2.5289915,-8.074986,-5.8505006,22.213093,-149.26001,25.138704
3.2327611,-7.407697,-4.5640984,26.19166,-143.43283,36.836914
3.8526604,-6.657649,-3.349278,27.910177,-134.11906,46.79767
4.3126316,-5.876571,-2.3230531,28.242825,-122.61117,55.316864
4.5616183,-5.1182995,-1.5655407,28.543728,-110.13382,62.12111
4.6254725,-4.364084,-1.0229628,28.50239,-97.78484,66.85806
4.5967164,-3.6155388,-0.6161713,27.56951,-85.70043,70.19692
4.5145173,-2.8725176,-0.32233977,24.671238,-73.92914,72.35137
4.361921,-2.167453,-0.16430357,20.765182,-62.931194,73.845085
4.1516824,-1.4979695,-0.09837714,16.306223,-53.011753,74.16434
3.9124823,-0.8691778,-0.10615714,12.741863,-44.552666,72.8789
3.671327,-0.3012835,-0.1407867,9.786873,-37.43262,69.63971
3.470328,0.1962284,-0.17711674,7.2845707,-31.324986,64.22026
3.3250558,0.637484,-0.19134004,4.6397867,-25.91583,58.00047
3.2299213,1.0366476,-0.17808053,1.430389,-21.106876,51.27481
3.1703672,1.3542589,-0.1593012,-2.1033218,-16.55757,44.459095
3.1179342,1.5624835,-0.16511267,-5.821795,-12.394141,37.48493
3.0781786,1.6392882,-0.17629004,-9.063929,-8.349554,29.52714
3.0940807,1.4935281,-0.18254435,-11.059365,-3.802811,20.847988
3.1339781,1.1968739,-0.18060158,-11.957775,1.1418949,12.351001
3.1732256,0.7880594,-0.18101132,-12.948841,5.7170115,5.286523
3.2263434,0.28191838,-0.2011275,-14.358796,9.602742,0.09408506
3.3108017,-0.32960698,-0.23778445,-15.6184845,13.214498,-2.8556437
3.40945,-1.040909,-0.31657657,-15.969609,17.197777,-4.077319
3.4755435,-1.7421887,-0.44870067,-15.190316,21.568645,-3.9979303
3.4914134,-2.3851366,-0.6322969,-13.104277,26.099014,-2.9186676
3.461195,-2.9047308,-0.8443308,-9.949191,30.594736,-0.9595604
3.3845768,-3.2827637,-1.0882001,-6.1770263,34.578453,1.8440806
3.251654,-3.514822,-1.3806137,-2.0824172,37.95114,5.1102085
3.0970516,-3.6445508,-1.6965061,1.980851,40.54306,8.676789
2.936675,-3.6959205,-2.018613,5.9323087,42.232407,12.467416
2.7821224,-3.6806278,-2.329155,9.753699,43.057156,16.491598
2.6302264,-3.593627,-2.6203537,13.293995,42.837738,20.82218
2.4679246,-3.4174013,-2.904822,16.412306,41.706764,25.018383
2.308099,-3.2017229,-3.1797254,19.14645,39.72576,28.780397
2.1537163,-2.9622192,-3.451126,21.910603,37.156044,31.663473
2.0011895,-2.6969428,-3.7064567,24.768429,33.9759,33.39601
1.8604392,-2.4061818,-3.935045,27.381132,29.99743,33.935005
1.7490329,-2.0858285,-4.1214457,29.485685,25.387438,34.1788
1.6666163,-1.7121083,-4.258233,30.684446,20.161573,34.023865
1.6049601,-1.3064328,-4.35788,30.83724,14.508859,33.216984
1.5536798,-0.9077603,-4.4368606,29.882393,8.728684,31.465523
1.4921428,-0.5409578,-4.505211,28.253696,2.8208854,28.459211
1.4079896,-0.2136716,-4.55374,26.501749,-3.1705492,24.510807
1.3209125,0.075308725,-4.5802946,24.807074,-9.243571,19.962955
1.2491405,0.35125804,-4.5740123,23.057455,-15.394144,15.137343
1.2093971,0.6044706,-4.5280514,20.60461,-21.684013,10.157178
1.2176671,0.8063327,-4.424951,16.983303,-28.154549,5.3030524
1.3188231,0.9034498,-4.2434616,12.899486,-34.31554,0.33608696
1.5141922,0.85941786,-4.011208,8.7545,-40.167637,-4.8645267
1.8236306,0.6589119,-3.694083,4.670022,-45.201595,-9.421054
2.1995668,0.35628343,-3.2916443,0.7100748,-48.678265,-12.727346
2.5459416,-0.0063978583,-2.8638985,-2.69728,-50.043182,-14.8899145
2.8152108,-0.39801177,-2.4353557,-5.2534523,-50.088364,-16.486134
3.0351405,-0.7832763,-2.0220554,-7.3386607,-49.063942,-17.19079
3.1874764,-1.1467441,-1.6432791,-9.186139,-47.237717,-16.91077
3.2667956,-1.472732,-1.3082985,-10.650668,-44.620163,-15.97646
3.1627817,-1.4258405,-1.2666426,-10.311553,-43.199467,-15.467774
3.0622191,-1.380505,-1.2263689,-9.983691,-41.825912,-14.975966
2.9649808,-1.3366681,-1.1874264,-9.666667,-40.497765,-14.500417
2.8709452,-1.2942752,-1.1497668,-9.360085,-39.21336,-14.04053
2.7799964,-1.2532738,-1.1133434,-9.063566,-37.97112,-13.59574
2.6920238,-1.2136141,-1.0781116,-8.776751,-36.769527,-13.165504
2.6069212,-1.1752483,-1.0440295,-8.499292,-35.607136,-12.749305
2.5245872,-1.1381305,-1.0110561,-8.23086,-34.482563,-12.346645
2.4449244,-1.1022172,-0.97915244,-7.9711375,-33.394474,-11.95705
2.36784,-1.0674661,-0.94828135,-7.719821,-32.341602,-11.580064
2.2932446,-1.0338371,-0.91840714,-7.476619,-31.322725,-11.215251
2.2210524,-1.0012915,-0.8894953,-7.2412524,-30.336676,-10.86219
2.1511812,-0.9697923,-0.8615131,-7.013453,-29.382326,-10.520482
2.0835521,-0.9393039,-0.8344287,-6.792963,-28.458601,-10.189737
2.018089,-0.90979195,-0.80821186,-6.579535,-27.56446,-9.869586
1.9547192,-0.88122356,-0.7828332,-6.3729315,-26.69891,-9.559671
1.893372,-0.8535672,-0.7582647,-6.1729226,-25.860989,-9.25965
1.8339803,-0.82679224,-0.73447925,-5.9792886,-25.049774,-8.969191
1.7764788,-0.80086946,-0.7114508,-5.7918177,-24.26438,-8.687976
1.7208048,-0.77577066,-0.6891543,-5.6103053,-23.503946,-8.4157
1.6668983,-0.75146854,-0.6675656,-5.4345546,-22.767653,-8.152066
1.6147008,-0.727937,-0.6466614,-5.264376,-22.054703,-7.8967915
1.5641564,-0.70515066,-0.6264192,-5.0995874,-21.364334,-7.6496015
1.5152112,-0.68308526,-0.6068174,-4.9400125,-20.695805,-7.4102316
1.4678129,-0.6617172,-0.58783513,-4.7854805,-20.048407,-7.178427
1.4219112,-0.6410239,-0.5694523,-4.6358285,-19.42145,-6.9539423
1.3774577,-0.6209834,-0.5516494,-4.4908977,-18.814274,-6.73654
1.3344055,-0.6015747,-0.5344077,-4.3505354,-18.226236,-6.5259905
1.2927094,-0.5827773,-0.5177091,-4.2145944,-17.656721,-6.322073
1.2523257,-0.5645716,-0.5015361,-4.082932,-17.105133,-6.124574
1.2132123,-0.54693854,-0.48587176,-3.9554112,-16.570894,-5.9332876
1.1753283,-0.5298597,-0.47069985,-3.831899,-16.05345,-5.748014
1.1386344,-0.51331747,-0.45600456,-3.712267,-15.552259,-5.5685606
1.1030928,-0.49729463,-0.4417707,-3.596391,-15.066807,-5.3947415
1.0686665,-0.4817746,-0.4279835,-3.4841514,-14.596587,-5.2263775
1.0353198,-0.46674135,-0.41462874,-3.3754323,-14.141117,-5.063294
1.0030187,-0.4521794,-0.4016927,-3.2701216,-13.699925,-4.9053235
0.9717299,-0.43807378,-0.38916197,-3.168111,-13.27256,-4.752303
0.9414211,-0.42441005,-0.37702382,-3.069296,-12.858582,-4.6040764
0.91206133,-0.41117412,-0.3652657,-2.9735749,-12.457566,-4.4604907
0.88362056,-0.39835247,-0.35387564,-2.88085,-12.069102,-4.321399
0.8560697,-0.38593206,-0.34284195,-2.7910266,-11.692794,-4.1866603
0.82938063,-0.37390012,-0.33215344,-2.7040129,-11.328256,-4.0561357
0.8035261,-0.36224446,-0.32179913,-2.61972,-10.975118,-3.929693
0.77847993,-0.35095313,-0.31176853,-2.5380623,-10.6330185,-3.8072028
0.7542165,-0.34001476,-0.30205142,-2.4589567,-10.301612,-3.6885412
0.73071116,-0.32941812,-0.2926379,-2.3823228,-9.98056,-3.573587
0.70794016,-0.3191525,-0.2835185,-2.3080828,-9.669538,-3.4622238
0.6858803,-0.30920753,-0.2746839,-2.2361615,-9.368229,-3.354339
0.66450924,-0.29957306,-0.26612514,-2.166486,-9.076328,-3.2498224
0.6438054,-0.2902394,-0.25783357,-2.0989857,-8.793541,-3.148569
0.6237478,-0.28119704,-0.24980085,-2.0335922,-8.51958,-3.050476
0.6043162,-0.27243692,-0.24201879,-1.9702398,-8.254169,-2.9554446
0.5854908,-0.2639501,-0.23447955,-1.9088639,-7.9970403,-2.8633783
0.5672529,-0.2557281,-0.22717553,-1.849403,-7.747933,-2.7741842
0.5495838,-0.24776253,-0.22009936,-1.7917969,-7.5065966,-2.6877725
0.5324658,-0.24004544,-0.21324389,-1.7359875,-7.2727876,-2.6040561
0.51588166,-0.23256901,-0.20660222,-1.6819186,-7.04627,-2.5229504
0.4998147,-0.2253257,-0.20016764,-1.6295357,-6.8268156,-2.4443738
0.48424864,-0.21830824,-0.1939337,-1.578786,-6.614204,-2.368247
0.4691679,-0.21150956,-0.18789409,-1.5296185,-6.4082203,-2.2944937
0.45455724,-0.20492281,-0.18204278,-1.4819838,-6.208658,-2.2230396
0.440402,-0.19854137,-0.17637382,-1.4358337,-6.015316,-2.1538124
0.42668796,-0.19235882,-0.17088157,-1.3911221,-5.828,-2.086743
0.4134013,-0.18636896,-0.16556048,-1.3478038,-5.6465216,-2.0217638
0.40052867,-0.18056574,-0.16040522,-1.3058356,-5.4706984,-1.9588096
0.3880572,-0.17494336,-0.15541059,-1.265175,-5.3003545,-1.897817
0.3759743,-0.16949616,-0.15057158,-1.2257813,-5.135318,-1.8387249
0.36426783,-0.16421868,-0.14588334,-1.187615,-4.975423,-1.7814738
0.3529261,-0.15910561,-0.14134116,-1.1506379,-4.8205094,-1.7260064
0.3419377,-0.15415184,-0.13694048,-1.1148125,-4.670422,-1.6722668
0.3312916,-0.14935237,-0.13267688,-1.0801033,-4.52501,-1.6202015
0.3209771,-0.14470242,-0.1285461,-1.0464752,-4.384128,-1.5697578
0.3109839,-0.14019729,-0.12454399,-1.0138944,-4.247634,-1.5208855
0.30130196,-0.13583249,-0.120666526,-0.98232865,-4.1153913,-1.4735353
0.29192156,-0.13160364,-0.11690983,-0.9517459,-3.987267,-1.42766
0.2828333,-0.1275065,-0.113270134,-0.9221157,-3.8631334,-1.3832133
0.2740281,-0.12353694,-0.1097438,-0.89340824,-3.7428658,-1.340151
0.26549712,-0.11969101,-0.10632727,-0.86559486,-3.6263437,-1.2984296
0.2572318,-0.11596485,-0.103017144,-0.8386476,-3.5134501,-1.2580075
0.24922386,-0.112354726,-0.09981009,-0.81253946,-3.4040723,-1.2188443
0.24146529,-0.10885701,-0.09670291,-0.7872444,-3.2981002,-1.1809005
0.2339483,-0.10546822,-0.09369249,-0.7627369,-3.1954281,-1.1441382
0.22666539,-0.10218495,-0.0907758,-0.7389926,-3.0959532,-1.1085207
0.21960926,-0.09900391,-0.08794993,-0.7159876,-2.9995756,-1.0740123
0.21277282,-0.095921926,-0.08521205,-0.6936989,-2.9061987,-1.0405782
0.20614925,-0.09293589,-0.082559414,-0.6721042,-2.8157294,-1.0081853
0.1997319,-0.09004284,-0.07998937,-0.6511819,-2.728077,-0.97680086
0.19351436,-0.087239854,-0.07749935,-0.63091093,-2.6431534,-0.9463936
0.1874904,-0.08452414,-0.075086854,-0.61127114,-2.560874,-0.91693306
0.18165399,-0.08189298,-0.072749466,-0.59224284,-2.481156,-0.88838977
0.1759993,-0.079343736,-0.070484854,-0.57380694,-2.4039204,-0.8607351
0.17052065,-0.07687386,-0.06829074,-0.555945,-2.3290892,-0.83394146
0.16521256,-0.07448088,-0.06616494,-0.5386391,-2.2565877,-0.80798197
0.16006972,-0.07216239,-0.06410532,-0.5218721,-2.1863434,-0.7828306
0.155087,-0.06991609,-0.062109817,-0.505627,-2.118286,-0.7584623
0.15025939,-0.06773972,-0.060176443,-0.48988765,-2.052347,-0.7348526
0.14558208,-0.0656311,-0.058303256,-0.4746383,-1.988461,-0.71197796
0.14105038,-0.06358812,-0.05648838,-0.4598637,-1.926564,-0.68981534
0.13665976,-0.061608747,-0.054730006,-0.445549,-1.8665937,-0.66834277
0.1324058,-0.05969099,-0.05302637,-0.43167996,-1.8084904,-0.6475386
0.12828429,-0.057832934,-0.05137577,-0.41824266,-1.7521958,-0.62738204
0.12429108,-0.056032717,-0.049776554,-0.4052237,-1.6976538,-0.607853
0.12042218,-0.054288544,-0.04822712,-0.39260998,-1.6448096,-0.5889319
0.11667371,-0.052598666,-0.04672592,-0.38038892,-1.5936104,-0.5705998
0.11304193,-0.050961394,-0.045271453,-0.3685483,-1.544005,-0.5528384
0.10952321,-0.049375087,-0.04386226,-0.3570763,-1.4959439,-0.5356298
0.106114015,-0.047838163,-0.04249694,-0.3459614,-1.4493788,-0.518957
0.10281096,-0.046349082,-0.041174114,-0.33519247,-1.4042634,-0.50280315
0.099610716,-0.04490635,-0.03989247,-0.3247588,-1.3605522,-0.4871522
