ax,ay,az,gx,gy,gz
-1.4309222,1.7491069,-7.878254,12.706479,-44.77768,21.972927
-1.6791985,1.8138554,-8.315053,14.533502,-36.61643,13.393698
-2.2343335,1.8633466,-8.903198,12.913632,-36.401062,1.8658206
-2.7804177,1.7259246,-9.431934,7.436396,-42.058064,-6.5998282
-3.24026,1.4883809,-9.901145,2.6693602,-53.256847,-12.294364
-3.6124036,1.1937459,-10.270825,-4.63079,-70.55371,-15.976785
-3.833716,0.71878576,-10.523906,-11.6707,-88.46474,-18.583586
-3.8552406,0.043987997,-10.679492,-16.631516,-106.3098,-20.19065
-3.648351,-0.8189869,-10.664484,-20.216923,-123.75429,-19.114668
-3.251835,-1.7977606,-10.424835,-22.360594,-139.69272,-15.501149
-2.6235483,-2.9124224,-9.942524,-19.244492,-151.85472,-7.6676908
-1.6418718,-3.956821,-9.107827,-11.691917,-159.55305,2.5105898
-0.56845385,-4.544535,-8.030164,-2.245756,-162.68884,13.083611
0.46173203,-4.729625,-6.7602167,6.7891865,-161.62814,22.786825
1.375272,-4.6550684,-5.4128957,14.835398,-156.65694,32.178883
2.136695,-4.3362913,-4.106772,21.208946,-147.34865,41.19771
2.676586,-3.795257,-2.968803,26.508095,-136.34232,49.12222
3.073595,-3.1461384,-2.0217917,30.850103,-124.03172,55.509926
3.3628101,-2.449782,-1.284856,34.003616,-110.9925,60.166443
3.5499837,-1.7480028,-0.76175606,35.593323,-98.04526,63.252125
3.6397758,-1.0932968,-0.42716205,35.471436,-85.558174,64.75976
3.618251,-0.48378116,-0.2930065,34.818424,-73.91871,65.27913
3.538663,0.107599884,-0.2713037,33.618088,-63.45341,64.7869
3.431939,0.67865586,-0.32012627,31.937922,-54.357456,63.19394
3.3140054,1.2232931,-0.39313757,29.94163,-46.428688,60.422318
3.201491,1.7734818,-0.4675253,27.506348,-39.62423,55.704327
3.1176734,2.3335526,-0.5408508,24.794754,-33.77542,49.392544
3.0613654,2.8402095,-0.6042201,21.44508,-28.867699,41.743103
3.0228937,3.2530541,-0.6517531,17.209785,-24.63341,33.729298
2.9773176,3.5083451,-0.67856324,12.068308,-21.079672,25.600584
2.9364693,3.5766654,-0.65679705,7.5442953,-17.676373,17.118826
2.9793773,3.4332907,-0.554513,4.3043327,-14.160739,8.559638
3.1119506,3.1463308,-0.39541027,1.8139936,-10.171849,0.58373374
3.3032603,2.7227218,-0.22898984,-0.48217222,-5.4515777,-6.209474
3.4864357,2.1824968,-0.11695078,-2.8266447,-0.06546646,-11.659428
3.606403,1.524212,-0.10036481,-4.5117617,5.738115,-15.257864
3.6450045,0.79653966,-0.20171493,-5.5161433,11.181504,-16.931545
3.6420147,0.09580377,-0.3586859,-5.9372773,16.372538,-16.567938
3.5818906,-0.5427093,-0.5781276,-5.411123,21.401672,-14.437754
3.4645553,-1.0713874,-0.86073965,-3.7782018,26.02674,-10.82993
3.3082714,-1.4636254,-1.1960133,-0.54988134,29.568132,-5.9673696
3.1274717,-1.6848915,-1.5652336,3.318807,32.08936,-0.81186193
2.9532824,-1.7898682,-1.9382132,7.2811484,33.57447,4.519311
2.7887006,-1.7979498,-2.310344,10.901406,33.942394,9.855857
2.6254318,-1.7315198,-2.684037,14.241251,32.9381,15.016119
2.4650114,-1.6013286,-3.0385542,16.739065,30.050066,20.161533
2.340132,-1.3757899,-3.341965,18.668264,26.105616,24.972523
2.2450883,-1.082928,-3.6013606,20.159044,21.389847,28.878445
2.1807833,-0.7476121,-3.8239505,21.167725,16.244772,31.581295
2.1297305,-0.39600143,-4.0327363,21.594389,10.886847,32.90068
2.0569222,-0.07053306,-4.2463064,21.666855,4.7289577,32.688545
1.958656,0.24499913,-4.4408875,21.468174,-2.181445,31.738964
1.886842,0.5790708,-4.5996084,20.528727,-9.569325,30.048597
1.8616343,0.90424454,-4.7261195,18.42068,-17.02059,27.973085
1.863369,1.1891011,-4.841433,15.133367,-24.273605,25.720003
1.8546114,1.4159493,-4.9338555,10.86931,-31.676556,22.987885
1.8601815,1.5895091,-4.962337,6.3392625,-39.261173,19.53251
1.9213952,1.6882699,-4.917624,1.4688141,-46.937817,15.589886
2.069506,1.6864315,-4.7799344,-3.5880618,-54.23178,11.730672
2.314437,1.6156042,-4.5252495,-8.711795,-60.562767,8.223309
2.6287863,1.4830893,-4.161732,-13.746036,-64.82672,5.004174
2.938773,1.2243596,-3.731113,-18.463667,-67.45641,2.2674835
3.2027228,0.8849424,-3.2814338,-22.226292,-68.89992,-0.030840449
3.443368,0.522523,-2.8159795,-24.884758,-69.30168,-1.8325372
3.6751397,0.19146495,-2.3329475,-26.860878,-68.39357,-2.9694948
3.865799,-0.09968311,-1.865473,-28.130636,-65.58411,-3.4444366
3.9645774,-0.35014847,-1.4546665,-29.108881,-61.399082,-3.3457787
3.9860888,-0.567649,-1.118806,-29.456593,-56.219006,-2.8638446
3.8587844,-0.54951996,-1.0830745,-28.515833,-54.42353,-2.7723818
3.7357397,-0.53199744,-1.0485386,-27.606552,-52.688133,-2.683979
3.6167946,-0.51505876,-1.0151534,-26.727566,-51.010555,-2.5985217
3.5017965,-0.49868217,-0.98287594,-25.877747,-49.38864,-2.5159001
3.3905997,-0.48284692,-0.9516655,-25.056019,-47.820347,-2.43601
3.2830653,-0.46753323,-0.92148304,-24.261358,-46.303703,-2.3587508
3.1790612,-0.45272222,-0.89229137,-23.492783,-44.83685,-2.2840278
3.0784602,-0.4383959,-0.8640549,-22.749355,-43.41799,-2.21175
2.981141,-0.42453694,-0.83673966,-22.030182,-42.04542,-2.1418302
2.8869882,-0.41112882,-0.81031305,-21.334406,-40.717506,-2.0741851
2.79589,-0.39815578,-0.7847438,-20.661205,-39.43268,-2.0087347
2.7077403,-0.3856026,-0.76000214,-20.00979,-38.18943,-1.9454027
2.6224368,-0.37345472,-0.73605937,-19.379412,-36.98633,-1.8841156
2.5398815,-0.36169824,-0.71288794,-18.76934,-35.821983,-1.8248029
2.4599805,-0.3503197,-0.6904615,-18.178885,-34.695076,-1.7673973
2.3826432,-0.33930632,-0.6687547,-17.607374,-33.60433,-1.7118336
2.3077831,-0.32864568,-0.6477431,-17.054169,-32.548515,-1.6580496
2.2353165,-0.31832588,-0.6274034,-16.51865,-31.52646,-1.6059852
2.165163,-0.3083355,-0.60771286,-16.000227,-30.537031,-1.5555828
2.0972457,-0.29866356,-0.58865,-15.498328,-29.579136,-1.5067868
2.0314898,-0.28929943,-0.57019377,-15.0124035,-28.65173,-1.459544
1.967824,-0.28023294,-0.55232424,-14.541923,-27.7538,-1.4138026
1.9061792,-0.27145427,-0.5350219,-14.086376,-26.884373,-1.3695133
1.8464888,-0.2629539,-0.51826817,-13.645274,-26.042513,-1.3266282
1.788689,-0.25472277,-0.502045,-13.218142,-25.227314,-1.2851013
1.7327176,-0.24675204,-0.48633513,-12.804522,-24.437906,-1.2448882
1.6785154,-0.23903322,-0.47112176,-12.4039755,-23.673449,-1.205946
1.6260246,-0.23155814,-0.45638877,-12.016076,-22.933128,-1.1682335
1.57519,-0.22431889,-0.44212058,-11.640415,-22.216166,-1.1317108
1.5259576,-0.21730785,-0.42830217,-11.276596,-21.521803,-1.0963393
1.478276,-0.21051763,-0.41491905,-10.924237,-20.849312,-1.062082
1.4320953,-0.20394115,-0.40195715,-10.582969,-20.197989,-1.028903
1.3873672,-0.19757153,-0.38940296,-10.252434,-19.567152,-0.99676764
1.344045,-0.19140214,-0.3772434,-9.93229,-18.956144,-0.96564245
1.302084,-0.18542655,-0.36546585,-9.622204,-18.364334,-0.935495
1.2614403,-0.17963858,-0.3540581,-9.321853,-17.791103,-0.9062942
1.222072,-0.17403226,-0.3430083,-9.030928,-17.23586,-0.87800974
1.1839386,-0.16860177,-0.3323051,-8.749127,-16.698036,-0.8506124
1.1470007,-0.16334154,-0.32193744,-8.476162,-16.17707,-0.824074
1.1112204,-0.15824614,-0.3118947,-8.21175,-15.672431,-0.7983672
1.0765607,-0.15331036,-0.30216655,-7.9556212,-15.183599,-0.7734657
1.0429865,-0.14852913,-0.29274297,-7.7075124,-14.710074,-0.74934393
1.010463,-0.14389755,-0.2836144,-7.4671693,-14.25137,-0.7259772
0.9789573,-0.13941088,-0.27477142,-7.2343464,-13.807019,-0.70334154
0.94843704,-0.13506457,-0.26620507,-7.0088067,-13.376568,-0.68141395
0.9188712,-0.13085417,-0.25790662,-6.7903194,-12.959578,-0.6601721
0.89022964,-0.1267754,-0.24986756,-6.5786624,-12.555622,-0.63959426
0.8624832,-0.1228241,-0.24207975,-6.3736205,-12.164292,-0.6196596
0.8356038,-0.11899626,-0.23453529,-6.1749854,-11.78519,-0.60034776
0.809564,-0.115288004,-0.22722651,-5.9825554,-11.41793,-0.58163923
0.78433746,-0.11169556,-0.22014599,-5.7961354,-11.06214,-0.563515
0.75989866,-0.10821529,-0.21328656,-5.615536,-10.71746,-0.5459567
0.7362228,-0.10484367,-0.20664127,-5.440575,-10.38354,-0.5289465
0.7132859,-0.10157729,-0.20020342,-5.2710752,-10.060043,-0.5124673
0.6910649,-0.09841284,-0.19396648,-5.1068654,-9.746643,-0.49650243
0.66953725,-0.09534714,-0.18792415,-4.947779,-9.443021,-0.48103565
0.6486812,-0.09237709,-0.18207031,-4.7936563,-9.148871,-0.46605143
0.6284758,-0.08949968,-0.1763991,-4.644341,-8.863898,-0.45153463
0.60890055,-0.08671202,-0.17090477,-4.499683,-8.587812,-0.43747061
0.5899358,-0.084011294,-0.1655818,-4.359536,-8.320337,-0.4238452
0.5715624,-0.081394784,-0.16042478,-4.2237597,-8.061203,-0.41064465
0.5537619,-0.07885986,-0.15542857,-4.0922165,-7.810148,-0.39785567
0.5365163,-0.07640396,-0.15058812,-3.9647744,-7.5669193,-0.3854654
0.5198083,-0.07402462,-0.14589857,-3.8413048,-7.331273,-0.3734614
0.5036211,-0.07171944,-0.14135519,-3.721684,-7.102972,-0.36183155
0.48793843,-0.069486104,-0.1369534,-3.6057913,-6.881787,-0.35056418
0.4727445,-0.06732237,-0.1326888,-3.4935102,-6.6674943,-0.33964795
0.45802402,-0.06522607,-0.1285571,-3.3847284,-6.45988,-0.32907188
0.44376227,-0.06319509,-0.12455415,-3.2793362,-6.258735,-0.3188254
0.42994487,-0.061227385,-0.120675914,-3.1772277,-6.063857,-0.30889815
0.416558,-0.059320994,-0.11691851,-3.0783007,-5.8750515,-0.2992802
0.40358818,-0.05747399,-0.11327817,-2.9824555,-5.692127,-0.2899619
0.39102238,-0.05568453,-0.10975124,-2.8895962,-5.514902,-0.2809339
0.37884805,-0.053950813,-0.10633417,-2.7996297,-5.343198,-0.2721871
0.3670529,-0.052271098,-0.10302355,-2.7124658,-5.1768417,-0.2637128
0.3556252,-0.050643705,-0.09981605,-2.6280165,-5.0156674,-0.25550243
0.34455344,-0.049067,-0.09670845,-2.546198,-4.8595133,-0.24754782
0.33382648,-0.047539406,-0.09369764,-2.4669273,-4.708223,-0.23984094
0.32343364,-0.046059385,-0.09078059,-2.3901258,-4.561644,-0.2323741
0.31336448,-0.044625457,-0.0879544,-2.315716,-4.41963,-0.2251398
0.30360886,-0.043236185,-0.08521622,-2.2436235,-4.282039,-0.21813078
0.29415706,-0.041890178,-0.08256331,-2.1737761,-4.1487327,-0.21134004
0.2849996,-0.040586088,-0.07999302,-2.106104,-4.019578,-0.20476077
0.27612728,-0.039322603,-0.07750276,-2.040539,-3.8944447,-0.19838639
0.26753128,-0.038098466,-0.07509004,-1.9770156,-3.773208,-0.19221048
0.2592029,-0.036912445,-0.07275246,-1.9154702,-3.6557462,-0.18622689
0.25113386,-0.035763353,-0.07048766,-1.8558413,-3.5419421,-0.18042961
0.24331607,-0.03465004,-0.06829338,-1.798069,-3.4316816,-0.17481282
0.23574169,-0.03357139,-0.06616742,-1.7420955,-3.324854,-0.16937095
0.22840314,-0.032526325,-0.06410766,-1.6878647,-3.2213526,-0.16409849
0.22129308,-0.0315138,-0.062112022,-1.6353225,-3.1210737,-0.1589902
0.21440439,-0.0305328,-0.06017852,-1.584416,-3.023917,-0.15404095
0.20773017,-0.02958234,-0.058305215,-1.5350946,-2.9297853,-0.1492458
0.20126376,-0.028661473,-0.056490235,-1.4873087,-2.838584,-0.14459993
0.19499865,-0.027769275,-0.05473176,-1.4410105,-2.7502222,-0.1400987
0.18892859,-0.026904853,-0.053028032,-1.3961538,-2.6646113,-0.13573761
0.18304752,-0.026067343,-0.051377345,-1.3526934,-2.5816658,-0.1315123
0.17734952,-0.025255907,-0.049778048,-1.3105862,-2.5013025,-0.12741852
0.17182893,-0.024469731,-0.04822854,-1.2697898,-2.4234412,-0.12345219
0.1664802,-0.023708032,-0.046727266,-1.2302635,-2.3480036,-0.11960934
0.16129796,-0.022970045,-0.045272734,-1.1919676,-2.2749145,-0.11588612
0.15627708,-0.022255031,-0.04386348,-1.154864,-2.2041008,-0.112278804
0.15141249,-0.021562276,-0.042498097,-1.1189153,-2.1354916,-0.10878379
0.14669932,-0.020891089,-0.04117522,-1.0840858,-2.0690181,-0.10539758
0.1421329,-0.020240793,-0.039893527,-1.0503407,-2.004614,-0.10211678
0.13770862,-0.019610742,-0.038651727,-1.0176458,-1.942215,-0.098938115
0.13342206,-0.019000305,-0.03744859,-0.9859689,-1.8817582,-0.095858395
0.12926894,-0.01840887,-0.0362829,-0.955278,-1.8231835,-0.09287455
0.12524511,-0.017835846,-0.035153504,-0.9255425,-1.7664323,-0.08998359
0.12134654,-0.01728066,-0.03405926,-0.8967326,-1.7114476,-0.08718262
0.11756933,-0.016742757,-0.03299908,-0.8688196,-1.6581745,-0.08446884
0.11390969,-0.016221598,-0.031971905,-0.8417754,-1.6065598,-0.08183955
