ax,ay,az,gx,gy,gz
-2.3791127,0.3345485,-1.6445605,16.81288,-38.396713,-0.3327303
-2.4905522,-0.18506184,-1.7114753,8.511453,-37.434387,-5.437726
-2.5873234,-1.0546813,-2.3770435,6.155427,-37.32923,-8.374746
-2.5994847,-1.7921199,-3.047316,6.5609684,-37.992603,-10.418708
-2.561506,-2.4741895,-3.6470695,8.241052,-40.238834,-10.301959
-2.4987016,-3.09971,-4.1657033,11.917566,-43.114746,-8.970765
-2.4507878,-3.6161387,-4.620189,17.908749,-48.111664,-7.507416
-2.41035,-4.0264196,-4.9926386,24.954351,-54.069263,-5.720272
-2.3228438,-4.233797,-5.2264113,32.976868,-60.561455,-3.4096777
-2.161293,-4.103729,-5.2277956,40.883972,-67.49889,-1.3089359
-1.8806937,-3.614712,-4.9714007,47.41483,-73.44875,-0.105131045
-1.5108646,-2.8609827,-4.5163054,51.532963,-77.86903,0.6085731
-1.10355,-1.8866416,-3.8860927,52.524708,-80.409424,1.4111532
-0.71718293,-0.8562915,-3.2182362,50.982502,-81.47505,2.0841713
-0.36977467,0.17340207,-2.582742,47.520676,-81.39354,2.5495443
-0.071956664,1.1666873,-2.025493,42.320457,-80.59506,2.7056496
0.18268491,2.0834267,-1.564495,34.64295,-79.10306,2.6112533
0.36754674,2.867663,-1.2385182,25.847,-77.16278,2.1344202
0.4503984,3.4481568,-1.0356648,16.66007,-75.06329,0.84764117
0.45171502,3.8286662,-0.9156872,7.933362,-73.26607,-1.3958399
0.4271735,4.037444,-0.85052365,-0.16090333,-71.966,-4.7842093
0.45591402,4.084178,-0.82849324,-7.3773494,-71.158005,-9.331345
0.5916592,3.960234,-0.8178684,-13.602221,-70.41027,-14.305109
0.8307937,3.6851346,-0.76796514,-18.811577,-69.31078,-19.153017
1.1526291,3.268347,-0.66741997,-23.024662,-67.822586,-23.266054
1.5808737,2.7562025,-0.523089,-26.505552,-65.98827,-26.361158
2.1418724,2.1757486,-0.33257523,-29.060682,-63.407265,-28.337393
2.8163824,1.5279205,-0.062114518,-30.228594,-58.27532,-28.803926
3.4332132,0.8808027,0.21608318,-30.180595,-51.042507,-28.186436
3.9383886,0.31957936,0.46023104,-29.210802,-42.451015,-26.71864
4.326596,-0.11836595,0.6540019,-27.649675,-33.028706,-24.540314
4.615912,-0.44667137,0.77712697,-25.796991,-22.679773,-21.289282
4.775878,-0.66895926,0.7693979,-23.81925,-12.228625,-17.430359
4.8456283,-0.8215342,0.6698864,-21.764742,-1.6984776,-13.212905
4.8181863,-0.90745574,0.4883364,-19.722486,8.675967,-8.881195
4.7001486,-0.9337183,0.23939086,-17.748745,18.531143,-4.640827
4.498323,-0.9217393,-0.06740105,-15.687738,27.154257,-0.52008826
4.213989,-0.870849,-0.4191267,-13.817266,34.58819,3.3564613
3.891865,-0.8010124,-0.7876966,-12.099989,40.78917,6.917842
3.5420454,-0.7167645,-1.1644812,-10.490329,45.81454,10.046047
3.1650343,-0.6228918,-1.5433197,-8.976884,49.585304,12.716393
2.76812,-0.51216173,-1.9109147,-7.621465,52.051857,14.815266
2.3537006,-0.37535697,-2.2615385,-6.43453,52.846626,16.000895
1.944292,-0.21613367,-2.6015265,-5.4756494,52.444416,16.65499
1.540616,-0.04157935,-2.9360468,-4.978508,50.741257,16.99919
1.1443762,0.1286458,-3.2641885,-5.0069857,47.669353,17.203825
0.75919956,0.28442857,-3.5824192,-5.421937,42.920845,16.995527
0.39721334,0.42712718,-3.874451,-5.981234,37.22432,16.236773
0.07092281,0.55876124,-4.143031,-6.5327024,30.746548,15.142145
-0.21441506,0.69425184,-4.386736,-7.256913,23.58291,14.057602
-0.46735573,0.83481866,-4.602566,-8.405803,15.806986,13.151195
-0.7075119,0.9664205,-4.7991514,-10.108633,6.879889,12.187462
-0.9113453,1.0442785,-4.993376,-11.885372,-2.792618,10.707809
-1.0459146,1.0732079,-5.1921077,-13.309103,-12.990772,8.301127
-1.0512179,1.0723728,-5.373909,-14.142028,-23.489065,5.306615
-0.89683026,1.0630541,-5.5035415,-14.742884,-34.10647,2.655989
-0.5918102,1.0491755,-5.5522895,-15.833627,-44.792347,1.0071871
-0.09910927,0.9586511,-5.502203,-17.435019,-54.03995,0.07204025
0.46503153,0.77976424,-5.3974905,-17.706894,-60.663204,-1.8944045
1.0438818,0.61143565,-5.194253,-16.935312,-64.99942,-4.8227844
1.614307,0.48340884,-4.8887486,-16.202827,-67.999146,-6.74584
2.1324956,0.39316845,-4.515667,-16.245403,-69.85769,-6.394818
2.5284421,0.30978206,-4.127698,-16.365387,-70.73242,-5.768012
2.8650541,0.24610741,-3.7403295,-16.180134,-70.886154,-5.440317
3.187471,0.24404481,-3.3299358,-15.789147,-70.064514,-5.760152
3.4870656,0.26048324,-2.9466195,-15.280214,-67.90105,-6.133736
3.6950552,0.28187582,-2.6241326,-14.563614,-64.69215,-6.0369277
3.7812045,0.31281486,-2.3716571,-13.984465,-61.15818,-5.820384
3.8124964,0.31122392,-2.1849637,-13.592422,-57.362892,-5.314807
3.7908614,0.2661925,-2.0675254,-13.061683,-53.41629,-4.528387
3.7202768,0.2084927,-1.9995625,-12.3815,-49.424335,-3.9411218
3.6019886,0.20186354,-1.9359852,-11.987823,-47.85286,-3.8158114
3.48761,0.19545352,-1.8745096,-11.607159,-46.33333,-3.6946433
3.3769991,0.18925464,-1.8150587,-11.239033,-44.86385,-3.5774662
3.2700193,0.18325925,-1.7575594,-10.882992,-43.442608,-3.4641356
3.16654,0.17746003,-1.7019417,-10.538601,-42.06787,-3.3545134
3.0664363,0.17185,-1.6481384,-10.205445,-40.737984,-3.2484677
2.9695895,0.16642249,-1.5960854,-9.883127,-39.451363,-3.1458716
2.8758848,0.16117106,-1.5457214,-9.571268,-38.206486,-3.0466044
2.785213,0.1560896,-1.4969873,-9.269502,-37.001896,-2.95055
2.6974688,0.15117224,-1.449827,-8.97748,-35.836205,-2.8575974
2.6125515,0.14641328,-1.4041859,-8.694865,-34.70807,-2.7676392
2.5303645,0.14180732,-1.3600122,-8.421337,-33.616203,-2.680573
2.4508145,0.13734916,-1.317256,-8.156586,-32.559372,-2.5963008
2.3738124,0.1330338,-1.2758691,-7.900315,-31.53639,-2.5147278
2.2992725,0.1288564,-1.2358056,-7.652237,-30.546118,-2.435763
2.2271118,0.124812365,-1.197021,-7.4120784,-29.587454,-2.3593187
2.1572511,0.12089722,-1.1594725,-7.1795745,-28.659348,-2.285311
2.089614,0.117106676,-1.1231191,-6.9544706,-27.760778,-2.2136586
2.0241265,0.11343662,-1.0879211,-6.736521,-26.890772,-2.1442838
1.960718,0.109883055,-1.0538405,-6.5254903,-26.04838,-2.077111
1.8993199,0.10644217,-1.0208404,-6.3211503,-25.232698,-2.0120683
1.8398663,0.10311025,-0.9888854,-6.1232815,-24.442848,-1.9490852
1.7822936,0.09988374,-0.9579414,-5.931673,-23.677988,-1.8880949
1.7265404,0.096759215,-0.9279754,-5.7461205,-22.937302,-1.8290322
1.6725478,0.09373335,-0.89895564,-5.566427,-22.220003,-1.7718344
1.6202586,0.090802945,-0.8708514,-5.3924026,-21.525335,-1.7164412
1.5696177,0.087964915,-0.8436331,-5.223864,-20.852564,-1.6627941
1.520572,0.08521628,-0.8172721,-5.060634,-20.200985,-1.6108369
1.4730699,0.082554154,-0.7917409,-4.902542,-19.569914,-1.5605149
1.427062,0.07997577,-0.7670127,-4.7494226,-18.958694,-1.511776
1.3825004,0.07747843,-0.7430619,-4.6011167,-18.366688,-1.464569
1.3393387,0.075059555,-0.7198634,-4.4574695,-17.793278,-1.418845
1.2975321,0.07271662,-0.6973934,-4.3183327,-17.237873,-1.3745568
1.2570375,0.070447214,-0.6756285,-4.183562,-16.699898,-1.3316584
1.217813,0.06824898,-0.65454626,-4.0530186,-16.178795,-1.2901053
1.1798183,0.06611967,-0.63412493,-3.9265678,-15.67403,-1.2498552
1.1430142,0.06405709,-0.6143436,-3.8040795,-15.185083,-1.2108663
1.1073629,0.062059112,-0.5951819,-3.6854281,-14.7114525,-1.1730987
1.0728279,0.060123697,-0.57662016,-3.570492,-14.252651,-1.1365137
1.039374,0.058248863,-0.5586394,-3.4591537,-13.808211,-1.1010739
1.0069668,0.05643269,-0.5412213,-3.3512988,-13.377678,-1.0667429
0.97557336,0.05467333,-0.5243481,-3.2468178,-12.960612,-1.0334858
0.9451616,0.052968983,-0.5080024,-3.145604,-12.556588,-1.0012687
0.91570055,0.05131792,-0.4921678,-3.0475543,-12.1651945,-0.9700588
0.88716024,0.04971846,-0.47682807,-2.952569,-11.786033,-0.9398243
0.85951173,0.048168972,-0.46196762,-2.8605516,-11.418719,-0.91053444
0.8327269,0.046667892,-0.4475714,-2.7714088,-11.06288,-0.88215965
0.8067786,0.045213692,-0.4336248,-2.68505,-10.718153,-0.854671
0.7816406,0.0438049,-0.42011368,-2.6013877,-10.384191,-0.82804066
0.7572873,0.042440087,-0.40702435,-2.5203373,-10.060655,-0.80224174
0.7336942,0.041117877,-0.3943436,-2.4418168,-9.747218,-0.7772481
0.7108374,0.03983693,-0.38205862,-2.3657467,-9.4435625,-0.7530345
0.6886938,0.038595952,-0.37015694,-2.2920504,-9.149382,-0.72957635
0.66724104,0.03739369,-0.35862657,-2.2206533,-8.864379,-0.7068501
0.6464575,0.036228932,-0.34745592,-2.1514833,-8.588267,-0.6848328
0.62632215,0.035100505,-0.33663365,-2.0844705,-8.320767,-0.6635022
0.6068148,0.03400727,-0.32614887,-2.019548,-8.061609,-0.6428368
0.5879157,0.03294812,-0.31599107,-1.9566495,-7.8105326,-0.62281585
0.5696059,0.031921998,-0.30614996,-1.8957124,-7.567284,-0.6034191
0.5518669,0.030927863,-0.29661566,-1.836675,-7.3316193,-0.5846271
0.53468084,0.029964719,-0.28737855,-1.779478,-7.103301,-0.56642085
0.5180305,0.029031597,-0.2784294,-1.7240638,-6.882099,-0.5487821
0.5018991,0.028127557,-0.26975915,-1.6703767,-6.6677914,-0.5316931
0.48627046,0.027251692,-0.2613591,-1.6183628,-6.4601626,-0.51513666
0.47112882,0.026403122,-0.25322083,-1.5679697,-6.2590046,-0.4990962
0.45645902,0.025580991,-0.24533613,-1.5191469,-6.064114,-0.48355556
0.4422463,0.024784477,-0.23769712,-1.4718454,-5.875296,-0.46849912
0.4284764,0.024012782,-0.23029612,-1.4260175,-5.6923614,-0.4539118
0.41513547,0.023265127,-0.22312568,-1.3816175,-5.5151258,-0.43977892
0.40221015,0.022540763,-0.21617863,-1.3386006,-5.3434114,-0.42608634
0.38968748,0.021838965,-0.20944798,-1.2969238,-5.1770463,-0.4128203
0.3775549,0.021159027,-0.202927,-1.2565452,-5.0158634,-0.3999675
0.36580023,0.020500269,-0.19660914,-1.2174243,-4.8597007,-0.387515
0.35441166,0.019862028,-0.19048804,-1.1795218,-4.7084026,-0.3754504
0.3433778,0.019243665,-0.1845576,-1.1428,-4.561816,-0.36376157
0.3326876,0.018644562,-0.17881186,-1.1072217,-4.4197955,-0.35243675
0.32233033,0.018064117,-0.17324507,-1.0727515,-4.282198,-0.34146464
0.3122956,0.01750175,-0.16785164,-1.0393548,-4.1488853,-0.33083424
0.30257335,0.016956894,-0.16262616,-1.0069982,-4.0197244,-0.32053486
0.29315388,0.016429005,-0.15756342,-0.9756491,-3.8945854,-0.31055623
0.28402773,0.015917554,-0.15265833,-0.94527626,-3.7733433,-0.30088833
0.27518576,0.01542203,-0.14790596,-0.91584915,-3.6558766,-0.29152146
0.26661912,0.014941935,-0.14330159,-0.8873384,-3.5420678,-0.2824463
0.2583192,0.01447679,-0.13884059,-0.85971534,-3.4318023,-0.27365366
0.25027773,0.014026128,-0.13451847,-0.83295244,-3.3249705,-0.26513484
0.24248664,0.013589498,-0.13033094,-0.8070228,-3.2214646,-0.25688124
0.23493811,0.013166461,-0.1262738,-0.78190047,-3.1211817,-0.24888463
0.22762462,0.012756597,-0.12234296,-0.7575604,-3.0240211,-0.241137
0.22053884,0.012359493,-0.11853451,-0.7339781,-2.9298856,-0.23363058
0.21367367,0.011974754,-0.11484464,-0.71112996,-2.838681,-0.22635786
0.20702223,0.011601992,-0.111269645,-0.6889933,-2.7503157,-0.21931158
0.20057787,0.011240835,-0.10780595,-0.6675457,-2.6647017,-0.21248467
0.19433413,0.010890923,-0.10445009,-0.6467659,-2.581753,-0.2058703
0.1882848,0.010551904,-0.10119871,-0.626633,-2.5013866,-0.19946185
0.18242379,0.01022344,-0.09804855,-0.60712683,-2.4235222,-0.1932529
0.17674522,0.0099052,-0.09499646,-0.588228,-2.348082,-0.18723726
0.17124346,0.009596869,-0.092039384,-0.5699175,-2.2749903,-0.1814089
0.16591296,0.009298136,-0.08917437,-0.552177,-2.204174,-0.17576197
0.1607484,0.009008703,-0.08639854,-0.53498876,-2.1355624,-0.17029083
0.15574464,0.008728281,-0.08370913,-0.51833564,-2.0690866,-0.16499002
0.15089662,0.008456587,-0.08110344,-0.50220096,-2.0046804,-0.15985423
0.14619954,0.008193351,-0.07857887,-0.4865685,-1.9422789,-0.1548783
0.14164868,0.0079383105,-0.07613288,-0.47142273,-1.8818201,-0.15005729
0.13723947,0.0076912097,-0.073763035,-0.45674843,-1.8232434,-0.14538635
0.13296753,0.0074518,-0.07146697,-0.4425309,-1.7664901,-0.14086081
0.12882857,0.0072198436,-0.06924237,-0.428756,-1.7115035,-0.13647616
0.12481846,0.0069951075,-0.067087024,-0.41540986,-1.6582286,-0.13222799
0.120933175,0.0067773676,-0.064998776,-0.4024792,-1.6066121,-0.12811206
0.11716884,0.0065664053,-0.06297553,-0.38995105,-1.5566024,-0.124124266
