ax,ay,az,gx,gy,gz
-0.5172774,-0.57818705,0.37818527,-1.054555,-14.870135,38.341255
-0.5123806,-0.6900677,0.37142646,17.391176,-20.086432,31.763508
-0.561702,-0.4037208,0.31796625,34.394817,-18.250063,14.792285
-0.8469758,-0.3247163,0.19091935,42.70951,-17.846605,1.7726114
-1.0829608,-0.33621612,-0.022354517,45.650875,-19.286833,-5.128351
-1.2616963,-0.26634362,-0.38852498,43.651447,-23.276657,-7.501749
-1.4962406,-0.28913093,-0.9647828,37.516964,-32.50759,-8.060134
-1.7069517,-0.6111956,-1.5801948,28.476456,-43.524754,-8.85734
-1.8012819,-1.440872,-2.1680446,23.621319,-53.68645,-10.1740265
-1.8162282,-2.4016263,-2.7573612,22.589134,-64.26525,-11.382209
-1.6678059,-3.504548,-3.246463,23.710104,-74.689674,-11.772266
-1.3525882,-4.7383003,-3.6239464,25.842558,-83.75664,-8.964943
-0.9736746,-5.968109,-3.9437344,32.049717,-90.50764,-2.7025077
-0.49893737,-7.0974994,-4.1732526,41.410442,-94.96655,5.138756
0.08365589,-7.9962807,-4.308545,52.95505,-96.51586,13.681417
0.7368779,-8.579217,-4.3503203,65.25919,-95.840866,22.965929
1.5120727,-8.781584,-4.2343907,77.03246,-93.065155,33.26037
2.4267576,-8.598343,-3.9040523,85.76657,-86.99737,45.51632
3.2627497,-8.109213,-3.3813088,93.249504,-79.051575,55.59584
3.917862,-7.4830556,-2.8576815,100.46521,-70.616936,62.90664
4.4784856,-6.6283994,-2.3243263,107.021286,-61.6207,69.32943
4.9632583,-5.4307065,-1.7840364,111.04563,-51.926624,75.56634
5.376898,-4.057388,-1.2246938,111.25911,-40.97474,80.23597
5.6943946,-2.6713529,-0.6866692,110.05172,-28.779839,82.507
5.8599324,-1.302961,-0.29089418,107.298256,-15.955053,82.41504
5.868427,0.025885154,-0.056179304,103.174545,-3.6642926,80.48471
5.759757,1.2278446,0.03640455,97.185005,7.9691105,77.399376
5.5574913,2.1994123,-0.012587312,88.62506,18.747843,73.20946
5.3251834,2.8947473,-0.20634957,80.02481,28.398943,68.01451
5.105292,3.470128,-0.5175487,71.778915,36.339836,61.92666
4.8936496,3.9451103,-0.94993913,62.782524,42.860497,55.69671
4.6462336,4.293364,-1.5105966,52.780067,47.648037,49.85922
4.3854094,4.5223475,-2.1556659,41.004585,50.196552,45.059654
4.124537,4.6481123,-2.8485243,28.669525,51.022877,41.146034
3.824437,4.6982055,-3.5410516,17.133867,49.85441,37.51914
3.5052285,4.6713047,-4.180812,7.6858463,46.815178,33.100597
3.2157276,4.6392198,-4.7239857,0.6728313,42.55365,27.790316
2.9648254,4.660588,-5.155291,-4.4548693,37.224823,21.818
2.7680912,4.8321047,-5.384577,-9.096645,31.579622,15.783599
2.6584637,5.0627575,-5.4440117,-14.274331,25.593056,9.749717
2.7046092,5.174859,-5.3044386,-19.412443,19.754023,3.4412541
2.975593,5.1064577,-4.9725437,-23.53932,14.285697,-3.8042755
3.496667,4.9318423,-4.486385,-27.004019,10.443956,-11.204639
4.1897073,4.6091943,-3.9068782,-30.88447,8.779653,-17.564722
4.8516903,4.1252995,-3.3535876,-34.7383,9.499913,-22.92726
5.387788,3.4731028,-2.891185,-37.7158,12.047953,-27.664148
5.761396,2.6641488,-2.5368724,-39.114773,15.841259,-31.691605
5.981986,1.7605327,-2.2822838,-37.85485,20.96888,-34.521362
6.085906,0.88282293,-2.1349864,-34.857822,26.90884,-36.134933
6.125849,0.10868692,-2.082401,-30.65265,33.108932,-36.739113
6.119378,-0.57603395,-2.1162496,-25.903152,39.00986,-36.131985
6.109935,-1.1693715,-2.2221959,-20.381765,44.769806,-34.638687
6.061029,-1.6634177,-2.4424093,-13.997764,50.48207,-32.855526
5.9402843,-2.0340168,-2.7918868,-7.7257915,55.518772,-31.374886
5.797064,-2.3873558,-3.186209,-1.4646726,60.172054,-28.96462
5.6014957,-2.7167969,-3.6408622,4.9124064,64.216934,-25.583607
5.3016496,-2.93334,-4.170847,11.261701,66.93422,-21.946527
4.9016027,-2.9766219,-4.736741,16.425434,67.27698,-18.146826
4.511509,-2.9087796,-5.2213693,20.439098,66.494804,-13.68166
4.1559925,-2.8060849,-5.661969,23.326056,64.2911,-8.87614
3.8831418,-2.7085702,-6.019438,25.651266,61.015224,-3.9565632
3.693482,-2.5456245,-6.2984962,27.782368,56.79612,0.37358063
3.577347,-2.3292663,-6.4968815,30.373919,52.131954,3.4149947
3.4590654,-2.03184,-6.6953464,32.525654,47.219536,6.1132274
3.3377662,-1.7360028,-6.89591,33.356533,41.71974,9.190144
3.251015,-1.3858851,-7.0616918,32.610813,35.651196,12.830315
3.2353108,-0.9258717,-7.1943803,30.129951,28.894764,15.771799
3.308016,-0.5061888,-7.261965,25.79789,22.200575,17.651327
3.4415448,-0.29654732,-7.2722497,20.648508,15.930241,19.450146
3.56815,-0.23307496,-7.2207127,15.766801,10.099365,21.054464
3.6480312,-0.114724144,-7.1140585,11.825075,4.443304,21.773584
3.6108613,0.1177566,-6.9754915,7.8705254,-1.6285862,21.385977
3.4860082,0.27037507,-6.6930537,3.7928233,-8.090899,20.72819
3.4669468,0.35044456,-6.109425,0.7204947,-13.864184,20.10564
3.6158717,0.64510864,-5.3865285,-1.6283612,-18.775059,18.430403
3.8704588,1.0692732,-4.5982695,-3.6318824,-22.024511,15.3865
4.079532,1.4616121,-3.8497941,-5.9192996,-23.84625,11.394188
4.191287,1.6264238,-3.1762958,-9.502873,-24.558153,8.310525
4.3001733,1.4535536,-2.5930288,-13.051049,-24.44575,5.7198014
4.4701056,1.0853167,-2.0637932,-14.852545,-22.837938,2.5952232
4.6187363,0.6465249,-1.6338074,-15.199918,-19.19578,-0.4169353
4.657717,0.24702269,-1.3588326,-15.843536,-14.285607,-2.6902912
4.511192,0.2392517,-1.3160857,-15.345121,-13.836203,-2.6056585
4.3693686,0.23173007,-1.2747104,-14.8626995,-13.401218,-2.5237415
4.2320876,0.22444937,-1.2346603,-14.395729,-12.980166,-2.4444482
4.099196,0.21740143,-1.1958908,-13.943689,-12.5725765,-2.36769
3.9705462,0.21057849,-1.1583588,-13.506079,-12.177998,-2.2933822
3.845997,0.20397301,-1.1220231,-13.082417,-11.795995,-2.221443
3.725412,0.19757776,-1.0868438,-12.672238,-11.42615,-2.151793
3.6086595,0.19138578,-1.0527828,-12.275097,-11.068061,-2.084357
3.4956133,0.18539035,-1.0198028,-11.890563,-10.721338,-2.0190616
3.3861513,0.17958501,-0.98786867,-11.51822,-10.385609,-1.9558364
3.280156,0.17396353,-0.9569458,-11.15767,-10.060513,-1.8946137
3.1775138,0.1685199,-0.92700124,-10.808526,-9.745701,-1.8353279
3.078116,0.16324832,-0.8980031,-10.470418,-9.440839,-1.7779157
2.9818568,0.15814319,-0.8699206,-10.142985,-9.145604,-1.7223165
2.8886344,0.15319914,-0.8427241,-9.825883,-8.859683,-1.6684713
2.7983506,0.14841092,-0.8163849,-9.518777,-8.582775,-1.6163236
2.7109106,0.14377353,-0.7908754,-9.221344,-8.3145895,-1.5658184
2.6262228,0.1392821,-0.7661688,-8.933273,-8.054845,-1.5169029
2.544199,0.13493195,-0.74223924,-8.6542635,-7.8032713,-1.4695259
2.4647534,0.13071854,-0.719062,-8.384024,-7.559605,-1.4236383
2.3878038,0.1266375,-0.69661283,-8.122274,-7.3235936,-1.3791922
2.31327,0.122684605,-0.6748685,-7.868743,-7.0949926,-1.3361417
2.2410753,0.11885575,-0.6538066,-7.623168,-6.8735657,-1.2944422
2.171145,0.11514699,-0.63340527,-7.3852954,-6.6590834,-1.2540505
2.1034071,0.111554496,-0.6136436,-7.15488,-6.4513254,-1.2149252
2.037792,0.10807458,-0.59450114,-6.9316854,-6.250078,-1.1770259
1.9742321,0.10470368,-0.5759583,-6.7154827,-6.055135,-1.1403139
1.9126624,0.10143832,-0.5579961,-6.506049,-5.8662953,-1.1047512
1.85302,0.09827518,-0.5405961,-6.303171,-5.6833673,-1.0703019
1.7952436,0.09521101,-0.5237406,-6.106642,-5.5061626,-1.0369303
1.7392746,0.09224268,-0.5074123,-5.9162593,-5.334501,-1.0046028
1.6850559,0.08936717,-0.49159464,-5.73183,-5.168207,-0.97328603
1.632532,0.086581565,-0.47627145,-5.553167,-5.007112,-0.94294834
1.5816497,0.08388302,-0.46142715,-5.3800874,-4.851052,-0.9135588
1.5323573,0.08126879,-0.4470467,-5.212416,-4.699868,-0.88508755
1.4846047,0.07873622,-0.43311545,-5.049982,-4.5534067,-0.8575057
1.4383435,0.076282755,-0.4196193,-4.8926215,-4.41152,-0.8307853
1.3935268,0.07390589,-0.40654457,-4.740175,-4.274063,-0.8048992
1.3501092,0.07160324,-0.39387804,-4.592487,-4.140898,-0.77982134
1.3080469,0.06937245,-0.38160685,-4.449409,-4.0118895,-0.7555262
1.2672973,0.06721129,-0.36971864,-4.3107967,-3.8869066,-0.7319892
1.2278192,0.06511756,-0.35820138,-4.176509,-3.765824,-0.70918673
1.1895727,0.063089155,-0.34704342,-4.046411,-3.648519,-0.6870956
1.1525193,0.061124023,-0.33623356,-3.9203715,-3.534873,-0.66569364
1.1166216,0.059220184,-0.32576084,-3.798263,-3.4247718,-0.64495915
1.0818434,0.057375718,-0.31561473,-3.6799626,-3.3181043,-0.6248713
1.0481497,0.055588767,-0.30578497,-3.5653512,-3.2147627,-0.60540986
1.0155065,0.05385753,-0.29626173,-3.4543133,-3.1146433,-0.5865552
0.983881,0.052180268,-0.28703538,-3.3467371,-3.0176454,-0.5682883
0.95324135,0.05055529,-0.27809662,-3.2425141,-2.923671,-0.55059093
0.92355675,0.048980962,-0.2694365,-3.14154,-2.8326256,-0.5334451
0.8947973,0.047455702,-0.2610463,-3.0437129,-2.7444181,-0.5168337
0.8669342,0.045977976,-0.25291756,-2.9489346,-2.6589596,-0.50074005
0.8399393,0.044546302,-0.24504213,-2.8571098,-2.5761642,-0.48514783
0.8137857,0.04315924,-0.23741211,-2.7681463,-2.4959486,-0.4700415
0.78844684,0.041815393,-0.23001984,-2.6819549,-2.4182324,-0.45540586
0.76389754,0.040513415,-0.22285786,-2.5984488,-2.3429377,-0.4412262
0.7401131,0.039252,-0.21591903,-2.517544,-2.2699888,-0.42748833
0.7170695,0.038029883,-0.20919636,-2.43916,-2.1993122,-0.4141784
0.6947438,0.036845837,-0.2026831,-2.3632176,-2.1308374,-0.40128312
0.6731136,0.035698675,-0.19637273,-2.289641,-2.0644956,-0.3887895
0.65215707,0.03458724,-0.19025892,-2.218356,-2.0002203,-0.37668505
0.6318533,0.033510428,-0.18433554,-2.1492913,-1.9379468,-0.3649576
0.61218184,0.032467153,-0.17859665,-2.0823777,-1.877613,-0.35359544
0.59312314,0.03145637,-0.17303649,-2.017548,-1.8191582,-0.3425871
0.5746579,0.030477064,-0.1676495,-1.9547374,-1.7625239,-0.33192164
0.55676776,0.029528258,-0.16243026,-1.8938829,-1.7076533,-0.32158834
0.5394348,0.028609,-0.15737356,-1.8349235,-1.6544915,-0.3115768
0.5226415,0.027718367,-0.15247433,-1.7778001,-1.6029853,-0.30187705
0.5063712,0.026855469,-0.14772767,-1.7224555,-1.5530828,-0.29247934
0.4906075,0.02601944,-0.1431288,-1.6688343,-1.5047343,-0.28337425
0.4753347,0.025209444,-0.13867314,-1.6168828,-1.4578912,-0.27455267
0.46053743,0.024424668,-0.13435622,-1.5665488,-1.4125068,-0.2660058
0.4462009,0.023664327,-0.13017371,-1.5177822,-1.3685355,-0.25772506
0.43231076,0.022927662,-0.12612143,-1.470534,-1.3259332,-0.24970213
0.4188531,0.022213934,-0.12219532,-1.4247569,-1.2846575,-0.241929
0.40581444,0.021522427,-0.11839145,-1.380405,-1.2446668,-0.23439787
0.39318174,0.020852448,-0.11470601,-1.3374339,-1.2059213,-0.22710125
0.38094234,0.020203331,-0.11113532,-1.2958008,-1.168382,-0.22003178
0.369084,0.019574422,-0.10767579,-1.255464,-1.1320115,-0.21318242
0.35759485,0.018965093,-0.10432397,-1.2163829,-1.0967733,-0.2065463
0.34646338,0.018374735,-0.1010765,-1.1785184,-1.0626322,-0.20011678
0.33567846,0.017802756,-0.09793013,-1.1418328,-1.0295539,-0.19388744
0.32522932,0.017248584,-0.09488171,-1.1062893,-0.9975055,-0.18785203
0.31510547,0.016711663,-0.09192821,-1.0718523,-0.9664548,-0.1820045
0.30529678,0.016191458,-0.08906664,-1.0384874,-0.93637073,-0.17633902
0.29579344,0.015687447,-0.08629416,-1.0061612,-0.9072232,-0.1708499
0.28658596,0.015199128,-0.08360799,-0.97484136,-0.87898314,-0.16553168
0.2776651,0.014726009,-0.08100544,-0.9444965,-0.85162216,-0.16037901
0.269022,0.01426762,-0.07848391,-0.9150963,-0.82511294,-0.15538675
0.26064792,0.013823499,-0.07604087,-0.88661134,-0.79942894,-0.15054989
0.2525345,0.013393205,-0.07367389,-0.8590131,-0.7745445,-0.14586361
0.2446737,0.012976305,-0.07138059,-0.83227396,-0.7504347,-0.14132321
0.23705758,0.012572383,-0.06915868,-0.8063672,-0.72707546,-0.13692415
0.22967856,0.012181034,-0.06700594,-0.781267,-0.70444334,-0.13266203
0.22252922,0.011801869,-0.06492021,-0.75694805,-0.68251574,-0.12853259
0.21560244,0.011434507,-0.0628994,-0.73338616,-0.66127074,-0.12453169
0.20889129,0.011078579,-0.060941506,-0.7105577,-0.64068705,-0.120655335
