ax,ay,az,gx,gy,gz
0.62636936,-4.371858,-6.0900555,83.61894,-82.78621,13.650125
0.5080295,-4.4705544,-5.983777,97.14158,-102.40511,12.235435
0.7119377,-4.074174,-5.265451,99.93128,-104.69697,13.745125
0.8514933,-3.373247,-4.6687446,96.16191,-103.19753,14.175467
1.0177265,-2.9381344,-4.1903234,87.11162,-101.52623,15.0155115
1.226289,-2.9500275,-3.8056712,78.82659,-98.8959,16.60115
1.4269223,-3.3410962,-3.5383902,74.90222,-96.48011,19.946371
1.5933135,-3.651227,-3.34934,74.21807,-95.31631,24.411854
1.7483126,-3.7674491,-3.151883,73.69663,-94.98923,29.709461
1.8934463,-3.734601,-2.8946717,71.04508,-95.09922,35.860256
2.0404065,-3.7058163,-2.6081607,66.314156,-95.246666,43.804768
2.1614168,-3.7876775,-2.3104875,61.284603,-95.29124,53.42922
2.2543764,-3.8104708,-2.007099,56.714108,-95.47592,63.63895
2.364255,-3.7334855,-1.663182,52.474728,-96.074936,73.38658
2.5110705,-3.588597,-1.2401301,48.86428,-96.06158,82.14424
2.6833968,-3.4330177,-0.77203107,47.08161,-94.5513,89.14344
2.9137914,-3.2132149,-0.2327935,46.870544,-91.45785,94.16305
3.2058399,-2.8789442,0.3558152,48.03344,-86.05775,97.03718
3.5126977,-2.4435046,0.9437927,49.373547,-78.609695,98.009056
3.757449,-1.9761548,1.4498416,50.33053,-69.74689,97.825966
3.9024014,-1.4680833,1.8406639,49.420017,-60.334965,97.197
3.9260964,-0.9538569,2.0858307,46.95674,-51.496304,96.53353
3.8887153,-0.50831056,2.233436,43.227146,-43.230614,96.20666
3.8232715,-0.11525698,2.3013582,38.52618,-35.417828,96.083954
3.7516153,0.22643441,2.3040895,33.363266,-27.915058,95.86926
3.684254,0.5227446,2.255166,27.894135,-20.393225,95.540474
3.6002219,0.7985022,2.1273267,22.57899,-13.261232,94.89648
3.479295,1.0733157,1.9330881,17.352892,-6.855212,93.88723
3.3203764,1.3462842,1.6928308,11.995359,-1.5870246,92.561844
3.1537805,1.6105549,1.4315517,6.5329795,2.6246617,91.00459
2.994425,1.8651094,1.1582317,0.5471585,5.645355,89.17192
2.831692,2.0987825,0.8628602,-5.442852,7.6656766,86.81513
2.6789055,2.3259885,0.56827366,-11.404977,8.5704365,83.6998
2.5435555,2.5260444,0.2879409,-17.206272,8.535744,79.992805
2.4193003,2.7072477,0.034427192,-22.610798,7.711244,75.51624
2.3066216,2.9103913,-0.17146239,-27.606468,6.0550165,69.00376
2.201452,3.2151492,-0.32224262,-32.855286,3.5382786,60.167862
2.157972,3.4324589,-0.4067679,-39.307465,0.2035713,50.729656
2.235945,3.4758992,-0.38804105,-46.79782,-2.363908,42.49912
2.3723738,3.356662,-0.33063132,-53.067535,-3.3107815,33.392708
2.562114,2.9870508,-0.26753822,-54.233303,-1.9423605,22.091452
2.8826895,2.4422038,-0.1736444,-53.095783,0.9866667,11.8255005
3.2493234,1.8971341,-0.082054704,-52.11928,5.0905414,4.6810694
3.5694969,1.3299809,-0.046253286,-51.490856,9.901021,0.26432726
3.7924354,0.7401108,-0.091010615,-49.767662,15.457033,-2.581925
3.924192,0.17448282,-0.19727544,-46.036057,21.579721,-4.7086215
3.9530752,-0.32718882,-0.3576271,-41.68311,27.660545,-5.6710777
3.9194264,-0.7697617,-0.54888463,-37.067333,33.3918,-5.114421
3.8373466,-1.135057,-0.7742524,-32.014126,38.591915,-3.568704
3.7327056,-1.4437557,-1.0189328,-26.33264,43.2267,-1.6101173
3.6252265,-1.7058924,-1.2702371,-19.334745,47.35567,0.78681755
3.5050006,-1.871557,-1.5375488,-12.055003,51.07181,3.5729213
3.3754478,-1.9759358,-1.8150103,-4.8807135,54.09617,6.654802
3.2513962,-2.0542715,-2.0909574,2.61875,56.663742,9.553852
3.1378214,-2.1165094,-2.3642619,11.060578,59.12772,11.791066
3.007571,-2.1309803,-2.6462831,20.04971,61.122334,13.605514
2.8515537,-2.0372963,-2.917857,27.982553,62.173176,15.909761
2.6886218,-1.844615,-3.1630027,33.882504,62.269917,18.914877
2.5135581,-1.586277,-3.3911011,37.80443,61.429985,21.74455
2.3260183,-1.3271513,-3.6124952,40.622776,59.76105,23.738087
2.1407387,-1.0835292,-3.825433,42.37225,56.897995,24.820719
1.9727983,-0.84798205,-4.010765,43.38421,53.27498,25.549057
1.8219758,-0.6093128,-4.171265,43.94085,49.136864,26.123865
1.6738805,-0.355769,-4.328381,44.1122,44.515865,26.415096
1.5253357,-0.103369154,-4.491943,43.87314,39.201225,26.374264
1.3878659,0.13396098,-4.6451693,43.348278,32.829426,25.9762
1.300283,0.42226613,-4.756691,42.277897,25.699852,25.284565
1.2867098,0.7565612,-4.8127165,39.904217,18.141365,24.051975
1.3383933,1.047842,-4.8148975,36.916363,10.868114,22.307217
1.4295454,1.2599267,-4.7661777,33.98955,4.1399145,20.116772
1.5491819,1.4375314,-4.648715,31.255484,-1.6256604,17.243368
1.6983293,1.604664,-4.431846,28.185188,-6.9612293,13.73754
1.8875105,1.7124802,-4.1305037,24.278334,-12.0331955,10.469728
2.1111512,1.7020305,-3.7617009,19.439379,-16.610958,7.628926
2.3597317,1.5218394,-3.334804,15.101497,-20.427456,4.606814
2.637266,1.1965667,-2.85539,12.300085,-22.774765,1.7589383
2.9415946,0.78706706,-2.3294659,10.19593,-23.60224,0.12306831
3.208388,0.40450156,-1.817019,8.208421,-22.768127,-0.14876768
3.3919296,0.08672955,-1.3658804,6.2930984,-20.576332,0.44142473
3.4916875,-0.16403832,-0.99362904,4.156893,-17.464443,1.5109155
3.5243037,-0.36525047,-0.6867644,2.2184808,-13.264719,3.168857
3.482205,-0.46462607,-0.46329278,0.9554424,-8.831412,4.6446605
3.3726597,-0.45000958,-0.44871825,0.92538553,-8.553589,4.498546
3.2666295,-0.43586212,-0.43461138,0.89629316,-8.28468,4.35712
3.1639955,-0.4221678,-0.42095634,0.8681326,-8.024384,4.220224
3.064643,-0.40891132,-0.4077379,0.84087235,-7.7724104,4.087705
2.9684618,-0.39607802,-0.39494142,0.81448233,-7.5284805,3.959416
2.8753464,-0.38365373,-0.3825528,0.78893346,-7.292325,3.835216
2.7851944,-0.3716249,-0.37055847,0.7641977,-7.063686,3.714969
2.697908,-0.35997835,-0.35894534,0.74024814,-6.842314,3.5985436
2.613392,-0.34870154,-0.3477009,0.71705884,-6.627969,3.4858143
2.5315561,-0.33778223,-0.33681294,0.69460475,-6.4204197,3.3766592
2.4523118,-0.3272088,-0.3262698,0.6728618,-6.219444,3.2709608
2.3755746,-0.31696984,-0.31606025,0.6518068,-6.024826,3.1686068
2.3012626,-0.3070545,-0.30617335,0.63141716,-5.8363595,3.0694873
2.2292972,-0.29745224,-0.29659867,0.6116714,-5.6538444,2.9734979
2.1596024,-0.28815293,-0.28732604,0.5925486,-5.477087,2.8805368
2.0921042,-0.27914676,-0.2783457,0.5740286,-5.3059015,2.7905061
2.0267324,-0.27042428,-0.26964825,0.55609196,-5.140108,2.7033114
1.9634181,-0.26197633,-0.26122457,0.5387199,-4.979533,2.618861
1.9020953,-0.2537941,-0.25306582,0.5218942,-4.8240094,2.5370672
1.8427002,-0.2458691,-0.24516355,0.5055975,-4.673374,2.4578443
1.785171,-0.23819305,-0.23750953,0.4898127,-4.527471,2.3811102
1.7294482,-0.23075803,-0.23009583,0.4745235,-4.3861494,2.3067856
1.6754739,-0.22355631,-0.22291479,0.45971414,-4.2492623,2.2347932
1.6231925,-0.21658048,-0.21595897,0.44536927,-4.1166687,2.1650589
1.5725503,-0.20982334,-0.20922123,0.43147412,-3.988232,2.0975108
1.5234951,-0.20327796,-0.20269464,0.4180144,-3.86382,2.0320795
1.4759763,-0.1969376,-0.19637248,0.4049763,-3.7433054,1.9686979
1.4299457,-0.1907958,-0.19024828,0.39234644,-3.6265643,1.9073008
1.3853557,-0.18484621,-0.18431577,0.38011193,-3.5134773,1.8478255
1.3421609,-0.1790828,-0.1785689,0.36826023,-3.4039288,1.7902112
1.3003174,-0.17349966,-0.17300178,0.35677925,-3.297807,1.7343991
1.2597823,-0.16809112,-0.16760877,0.3456573,-3.1950037,1.6803323
1.2205144,-0.16285165,-0.16238433,0.334883,-3.0954142,1.6279557
1.1824738,-0.15777594,-0.15732318,0.3244455,-2.9989371,1.577216
1.1456218,-0.15285882,-0.15242018,0.31433406,-2.9054747,1.5280617
1.109921,-0.14809531,-0.14767033,0.30453852,-2.8149319,1.480443
1.0753351,-0.14348057,-0.14306884,0.29504892,-2.727217,1.4343115
1.0418292,-0.13900992,-0.13861102,0.28585562,-2.6422408,1.3896204
1.0093694,-0.13467884,-0.13429236,0.27694935,-2.5599174,1.3463246
0.97792274,-0.13048296,-0.13010852,0.26832104,-2.480164,1.3043802
0.94745743,-0.12641801,-0.12605524,0.25996202,-2.4028993,1.2637448
0.91794276,-0.122479916,-0.12212844,0.25186384,-2.3280456,1.2243773
0.8893489,-0.118664674,-0.11832415,0.2440183,-2.255527,1.186238
0.86164707,-0.11496845,-0.11463854,0.2364175,-2.1852708,1.1492885
0.8348092,-0.111387506,-0.11106787,0.22905377,-2.1172059,1.1134914
0.8088083,-0.10791824,-0.10760856,0.22191967,-2.0512636,1.0788108
0.7836182,-0.10455716,-0.10425712,0.21500805,-1.9873775,1.0452114
0.7592135,-0.101300865,-0.10101017,0.20831192,-1.9254833,1.0126598
0.7355696,-0.098146096,-0.09786446,0.20182455,-1.8655188,0.981123
0.71266276,-0.09508967,-0.0948168,0.1955394,-1.8074236,0.9505692
0.69047,-0.09212851,-0.09186414,0.18945016,-1.751139,0.9209678
0.6689688,-0.08925964,-0.0890035,0.18355072,-1.6966089,0.892289
0.64813775,-0.08648018,-0.086232014,0.17783512,-1.6437781,0.864504
0.62795585,-0.08378734,-0.0835469,0.17229764,-1.5925937,0.8375848
0.60840285,-0.081178404,-0.08094545,0.1669327,-1.5430042,0.8115044
0.58945906,-0.07865076,-0.07842506,0.16173494,-1.4949597,0.7862367
0.5711055,-0.07620186,-0.0759832,0.1566991,-1.4484123,0.7617562
0.5533237,-0.07382926,-0.073617406,0.15182017,-1.403315,0.73803836
0.5360959,-0.07153058,-0.07132532,0.14709322,-1.3596225,0.71505946
0.5194047,-0.0693035,-0.06910463,0.14251353,-1.3172911,0.6927963
0.5032335,-0.067145795,-0.06695311,0.1380765,-1.2762784,0.6712267
0.487566,-0.065055296,-0.064868614,0.13377766,-1.236543,0.65032893
0.47238648,-0.063029915,-0.06284904,0.12961273,-1.1980455,0.6300821
0.45767972,-0.06106761,-0.06089237,0.12557751,-1.1607469,0.61046576
0.44343102,-0.059166424,-0.05899664,0.121667966,-1.12461,0.59146047
0.42962605,-0.057324447,-0.057159945,0.11788019,-1.0895984,0.57304704
0.416251,-0.05553983,-0.055380452,0.11421036,-1.0556773,0.555207
0.4032925,-0.053810794,-0.053656377,0.11065482,-1.0228125,0.5379226
0.3907375,-0.052135598,-0.05198599,0.10721,-0.990971,0.52117646
0.37857348,-0.050512567,-0.050367616,0.103872456,-0.9601212,0.5049517
0.36678824,-0.048940077,-0.04879964,0.10063884,-0.930232,0.48923224
0.35536996,-0.047416553,-0.047280487,0.097505905,-0.9012734,0.47400224
0.3443072,-0.045940466,-0.045808636,0.09447052,-0.8732166,0.45924643
0.33358896,-0.04451034,-0.044382613,0.09152966,-0.8460334,0.4449501
0.3232044,-0.043124743,-0.043000992,0.088680364,-0.81969655,0.4310989
0.31314316,-0.041782286,-0.041662388,0.085919775,-0.79417974,0.41767895
0.3033952,-0.040481627,-0.04036546,0.08324514,-0.76945734,0.40467685
0.29395074,-0.03922146,-0.039108913,0.08065378,-0.74550474,0.39207956
0.2848003,-0.038000535,-0.03789149,0.078143105,-0.72229785,0.37987447
0.27593476,-0.036817618,-0.036711965,0.07571059,-0.6998134,0.36804938
0.26734525,-0.03567153,-0.035569165,0.073353805,-0.67802906,0.35659242
0.25902313,-0.03456112,-0.03446194,0.071070395,-0.65692294,0.34549218
0.2509601,-0.033485282,-0.033389192,0.06885808,-0.63647383,0.33473748
0.2431481,-0.032442935,-0.032349836,0.06671463,-0.61666137,0.32431763
0.23557931,-0.031433042,-0.03134284,0.064637914,-0.59746575,0.31422216
0.22824614,-0.030454585,-0.030367192,0.06262585,-0.5788677,0.30444098
0.22114125,-0.02950659,-0.029421918,0.060676422,-0.5608486,0.29496428
0.21425755,-0.028588107,-0.02850607,0.05878768,-0.54339045,0.2857826
0.20758814,-0.027698217,-0.027618732,0.05695774,-0.5264758,0.27688676
0.20112635,-0.026836028,-0.02675902,0.055184763,-0.51008767,0.26826787
0.19486573,-0.02600068,-0.025926068,0.05346698,-0.49420977,0.25991726
0.18879999,-0.025191337,-0.025119048,0.051802672,-0.4788261,0.2518266
0.18292308,-0.02440719,-0.02433715,0.050190173,-0.46392134,0.24398783
0.1772291,-0.02364745,-0.023579592,0.048627872,-0.44948056,0.23639306
0.1717124,-0.022911362,-0.022845615,0.047114205,-0.43548933,0.22903472
0.16636741,-0.022198187,-0.022134488,0.045647655,-0.42193362,0.22190543
0.16118881,-0.021507213,-0.021445496,0.04422676,-0.4087999,0.21499807
0.15617141,-0.020837748,-0.020777954,0.042850092,-0.39607498,0.20830573
