ax,ay,az,gx,gy,gz
2.2972937,0.97000885,-5.4945955,-22.194746,-7.6018877,-3.4400313
1.3575608,0.7198595,-6.139448,-13.888143,-10.871934,-6.861049
0.7239744,0.8475554,-6.380708,-10.484836,-11.875385,-9.3381
0.4084236,1.0594229,-6.495105,-12.505274,-12.972519,-10.309472
0.3420446,1.0344787,-6.6184015,-16.203756,-13.809002,-8.299404
0.40508887,0.8695715,-6.751389,-18.95639,-14.069152,-4.3401566
0.36368528,0.6730972,-6.875078,-18.219576,-14.038587,-1.5341164
0.31081957,0.60107857,-6.8866296,-15.623251,-14.276272,-0.09108275
0.3011713,0.6636906,-6.7998786,-13.530539,-15.100319,1.0651078
0.24899611,0.777919,-6.6823325,-12.5190115,-17.42324,2.666502
0.13921148,0.900397,-6.552649,-12.871311,-20.29563,4.262302
-0.021568552,0.95972234,-6.4436955,-13.581789,-24.320824,5.677686
-0.11267218,0.9364963,-6.300382,-13.5547905,-28.076313,6.299001
-0.07005532,0.91648966,-6.1449523,-12.656332,-30.894306,6.4721947
-0.0062138084,0.95349926,-5.963906,-11.990291,-33.452312,6.7697363
-0.062461324,1.0078545,-5.7454877,-12.151765,-36.477585,7.309091
-0.224883,1.0082452,-5.5460014,-12.717974,-40.848656,7.4614267
-0.27948755,0.9369504,-5.371835,-12.661073,-44.965023,6.9976864
-0.23543288,0.87474716,-5.198237,-12.134844,-48.727356,6.530956
-0.18626101,0.8419589,-4.978203,-11.856256,-52.1515,6.163215
-0.19731638,0.79671633,-4.73977,-11.740658,-55.62323,5.589315
-0.1912802,0.6947585,-4.501483,-11.4576435,-59.12848,4.909689
-0.14128013,0.5809834,-4.2712717,-10.909624,-62.640034,4.1295214
-0.020830236,0.48852468,-4.0227337,-10.425509,-66.15545,3.5296054
0.11505631,0.39529735,-3.7600074,-9.862101,-69.17794,3.0615742
0.22964458,0.3081521,-3.498151,-9.0351305,-71.573875,2.509038
0.31539226,0.24236062,-3.2281616,-7.8532977,-73.20999,1.7474923
0.4082629,0.21167545,-2.931582,-6.4495816,-74.51931,0.7816301
0.50152797,0.2178045,-2.6153388,-5.3859215,-75.55774,-0.032649253
0.5757007,0.23849282,-2.3090484,-4.937083,-76.54449,-0.6932866
0.63646877,0.23197027,-2.0376544,-4.7098775,-77.31267,-1.2156411
0.67363954,0.19840297,-1.8040317,-4.2227116,-77.70334,-1.8441801
0.71563566,0.1506422,-1.5883992,-3.3135738,-77.58342,-2.6936915
0.7572215,0.12941739,-1.3742212,-2.2209888,-77.138176,-3.4365137
0.79659176,0.14147891,-1.1615901,-1.205566,-76.633705,-4.087643
0.84525996,0.18095727,-0.95063746,-0.6145879,-75.98468,-4.5529976
0.87463814,0.2200672,-0.76392215,-0.64675254,-75.25306,-4.9371214
0.88433087,0.21434686,-0.63951534,-0.8233048,-74.50958,-5.482517
0.9117751,0.16840078,-0.54870147,-0.659811,-73.57859,-6.046778
0.9492998,0.11430539,-0.46951094,-0.111222066,-72.21383,-6.55995
0.96793485,0.07327333,-0.4026206,0.66181284,-70.62904,-6.903616
0.9670404,0.05726504,-0.342335,1.5094523,-69.05225,-7.319375
0.9398001,0.061522804,-0.2867785,2.10254,-67.74926,-7.7297587
0.9309543,0.06524303,-0.22756726,2.5945435,-66.461914,-8.197665
0.93907607,0.071849704,-0.16398571,2.9630494,-65.05428,-8.540931
0.9455369,0.08266214,-0.10275688,3.123071,-63.60385,-8.702277
0.9465884,0.09302859,-0.05016295,3.0721574,-62.07,-8.698954
0.9333292,0.102322325,-0.0083825905,2.954236,-60.508453,-8.777394
0.93543184,0.10909612,0.033191502,2.7390583,-58.953224,-8.804861
0.9518948,0.116755284,0.08153286,2.3544095,-57.27725,-8.721562
0.96869457,0.11716826,0.12347164,1.8344558,-55.55337,-8.472704
0.9834049,0.10326804,0.15785663,1.2812753,-53.795425,-7.965058
1.0173664,0.07295878,0.19574516,0.863309,-51.82088,-7.174943
1.0669156,0.034408696,0.24095763,0.67217135,-49.59368,-6.140442
1.1217779,-0.0039997906,0.29273754,0.7732381,-47.269356,-5.0332017
1.1847188,-0.04020232,0.35746193,0.9028267,-44.764736,-3.7350855
1.1457614,-0.038880337,0.34570742,0.8731388,-43.292725,-3.6122637
1.1082115,-0.037606116,0.3343776,0.84452355,-41.873898,-3.4938793
1.0720067,-0.03637754,0.32345363,0.81693333,-40.505898,-3.379736
1.0370885,-0.035192624,0.31291783,0.79032356,-39.18651,-3.2696486
1.0034015,-0.03404949,0.30275354,0.764652,-37.91364,-3.1634429
0.97089374,-0.032946367,0.2929451,0.7398792,-36.68533,-3.060955
0.9395162,-0.0318816,0.28347763,0.71596766,-35.49973,-2.9620306
0.90922254,-0.030853614,0.2743372,0.69288206,-34.35508,-2.8665233
0.87996894,-0.029860921,0.2655106,0.6705891,-33.24973,-2.7742949
0.85171396,-0.028902113,0.2569853,0.6490571,-32.18211,-2.6852148
0.82441825,-0.02797586,0.24874943,0.6282561,-31.150738,-2.599159
0.79804444,-0.02708089,0.24079174,0.6081577,-30.154202,-2.5160098
0.7725572,-0.026216002,0.23310155,0.58873487,-29.191162,-2.4356556
0.7479227,-0.025380056,0.22566865,0.56996197,-28.260347,-2.3579903
0.72410905,-0.02457196,0.21848342,0.5518145,-27.360544,-2.2829123
0.70108557,-0.02379068,0.2115366,0.5342692,-26.490599,-2.2103257
0.6788231,-0.023035226,0.20481943,0.5173039,-25.64941,-2.1401386
0.657294,-0.022304654,0.1983235,0.5008974,-24.83593,-2.0722632
0.63647157,-0.021598065,0.1920408,0.48502946,-24.04915,-2.006616
0.6163305,-0.020914597,0.18596369,0.46968076,-23.288118,-1.9431169
0.5968465,-0.020253425,0.18008485,0.4548328,-22.551914,-1.8816893
0.5779964,-0.019613765,0.17439725,0.44046786,-21.83966,-1.8222601
0.5597578,-0.018994857,0.16889419,0.426569,-21.150515,-1.7647593
0.5421096,-0.01839598,0.16356924,0.41312,-20.483675,-1.7091193
0.5250312,-0.017816441,0.15841623,0.40010527,-19.838366,-1.655276
0.5085031,-0.017255574,0.15342923,0.3875098,-19.213846,-1.6031673
0.4925063,-0.016712738,0.14860256,0.3753193,-18.609407,-1.5527339
0.4770228,-0.016187321,0.14393078,0.36351997,-18.024363,-1.5039189
0.46203524,-0.015678732,0.13940862,0.35209855,-17.458055,-1.4566673
0.4475269,-0.015186405,0.13503104,0.3410423,-16.909855,-1.4109266
0.43348166,-0.014709793,0.13079323,0.33033898,-16.379154,-1.3666459
0.4198841,-0.014248373,0.12669046,0.31997684,-15.865369,-1.3237766
0.4067193,-0.013801638,0.12271829,0.30994448,-15.367935,-1.2822716
0.39397293,-0.013369102,0.11887236,0.30023098,-14.8863125,-1.2420859
0.38163117,-0.012950296,0.11514852,0.2908258,-14.419978,-1.2031759
0.36968073,-0.012544769,0.11154275,0.28171888,-13.96843,-1.1654994
0.35810876,-0.012152085,0.108051166,0.27290034,-13.531181,-1.1290163
0.3469029,-0.011771824,0.104670055,0.2643608,-13.107766,-1.0936874
0.3360512,-0.011403582,0.1013958,0.25609115,-12.697734,-1.0594751
0.32554215,-0.0110469675,0.09822494,0.24808264,-12.300648,-1.026343
0.31536466,-0.010701604,0.09515411,0.24032678,-11.91609,-0.9942562
0.305508,-0.010367127,0.09218009,0.2328154,-11.543655,-0.9631809
0.2959618,-0.010043186,0.08929974,0.22554062,-11.182951,-0.9330844
0.28671607,-0.009729441,0.08651005,0.21849483,-10.8336,-0.90393525
0.2777612,-0.009425565,0.08380811,0.21167067,-10.495238,-0.875703
0.26908776,-0.009131241,0.08119111,0.205061,-10.167512,-0.8483581
0.26068684,-0.008846163,0.078656316,0.19865899,-9.850082,-0.82187235
0.25254968,-0.008570036,0.07620111,0.19245797,-9.542619,-0.79621816
0.24466786,-0.008302574,0.07382296,0.18645157,-9.244803,-0.77136904
0.23703326,-0.0080435015,0.07151939,0.18063356,-8.956329,-0.7472993
0.22963803,-0.007792551,0.069288045,0.17499794,-8.676899,-0.7239842
0.22247453,-0.0075494647,0.067126624,0.16953893,-8.406226,-0.7013997
0.21553543,-0.0073139924,0.06503291,0.16425091,-8.144032,-0.67952263
0.20881361,-0.007085894,0.063004754,0.15912847,-7.890046,-0.6583306
0.20230217,-0.0068649347,0.061040077,0.15416639,-7.644011,-0.63780195
0.1959945,-0.0066508893,0.05913688,0.14935955,-7.4056745,-0.6179156
0.18988411,-0.006443539,0.05729321,0.14470308,-7.1747932,-0.5986513
0.18396482,-0.0062426734,0.055507194,0.14019221,-6.951132,-0.5799894
0.17823055,-0.0060480866,0.053777013,0.13582237,-6.7344623,-0.56191087
0.17267552,-0.0058595818,0.052100908,0.1315891,-6.5245643,-0.5443974
0.16729406,-0.0056769666,0.050477173,0.12748809,-6.321225,-0.52743113
0.1620807,-0.0055000563,0.048904162,0.1235152,-6.124238,-0.5109949
0.15703017,-0.005328671,0.047380276,0.11966639,-5.933403,-0.49507198
0.15213732,-0.0051626377,0.045903977,0.11593776,-5.7485266,-0.47964627
0.14739725,-0.0050017876,0.044473764,0.112325534,-5.5694222,-0.46470213
0.14280513,-0.0048459577,0.043088194,0.10882606,-5.395908,-0.45022443
0.13835631,-0.0046949917,0.041745868,0.105435796,-5.227809,-0.43619856
0.13404632,-0.004548736,0.040445425,0.10215132,-5.064955,-0.42261037
0.12987079,-0.004407043,0.03918555,0.09896932,-4.907182,-0.4094461
0.12582551,-0.0042697703,0.03796498,0.09588657,-4.754331,-0.39669245
0.12190639,-0.004136779,0.03678248,0.09289998,-4.606247,-0.38433662
0.11810951,-0.0040079355,0.035636857,0.09000652,-4.4627814,-0.3723661
0.11443102,-0.0038831092,0.034526955,0.087203294,-4.323789,-0.36076885
0.110867225,-0.003762175,0.03345166,0.08448747,-4.189131,-0.3495332
0.10741453,-0.0036450112,0.032409888,0.08185631,-4.0586705,-0.33864784
0.10406947,-0.0035314998,0.03140059,0.07930717,-3.932277,-0.32810178
0.10082867,-0.0034215264,0.030422756,0.07683749,-3.809823,-0.31788447
0.09768888,-0.0033149805,0.029475396,0.07444478,-3.6911857,-0.3079856
0.094646946,-0.003211755,0.028557561,0.07212664,-3.5762455,-0.29839522
0.0916998,-0.0031117466,0.027668327,0.06988074,-3.4648874,-0.2891037
0.088844486,-0.0030148544,0.026806802,0.06770483,-3.3569992,-0.28010172
0.086078145,-0.002920981,0.02597212,0.06559671,-3.2524726,-0.27138022
0.08339799,-0.0028300325,0.025163446,0.063554265,-3.1512027,-0.26293042
0.08080134,-0.0027419175,0.024379963,0.061575457,-3.0530877,-0.2547439
0.078285575,-0.0026565474,0.02362089,0.059658296,-2.9580295,-0.24681242
0.07584818,-0.0025738368,0.022885462,0.05780086,-2.8659322,-0.23912801
0.07348671,-0.0024937026,0.022172943,0.056001276,-2.7767038,-0.23168296
0.0711988,-0.0024160645,0.021482617,0.05425775,-2.6902547,-0.22446981
0.06898215,-0.0023408444,0.020813793,0.05256853,-2.6064982,-0.21748133
0.06683453,-0.0022679672,0.0201658,0.05093192,-2.5253506,-0.21071051
0.06475381,-0.0021973597,0.019537987,0.049346283,-2.4467301,-0.20415056
0.06273788,-0.0021289513,0.018929727,0.047810026,-2.3705583,-0.19779491
0.06078474,-0.002062673,0.01834041,0.04632161,-2.2967584,-0.1916372
0.05889242,-0.001998459,0.017769447,0.044879552,-2.225257,-0.18567125
0.057059027,-0.0019362445,0.017216263,0.043482397,-2.155982,-0.17989108
0.055282727,-0.0018759675,0.016680304,0.04212875,-2.0888643,-0.17429091
0.05356174,-0.0018175673,0.016161036,0.040817253,-2.0238364,-0.16886511
0.051894337,-0.0017609857,0.015657935,0.039546594,-1.9608335,-0.16360827
0.050278857,-0.0017061658,0.015170501,0.0383155,-1.8997924,-0.15851511
0.048713677,-0.0016530529,0.014698243,0.03712274,-1.8406519,-0.15358053
0.04719723,-0.0016015937,0.01424069,0.035967115,-1.7833527,-0.1487996
0.045727998,-0.0015517367,0.013797383,0.034847476,-1.7278377,-0.14416753
0.044304512,-0.001503432,0.013367878,0.033762693,-1.674051,-0.13967969
0.042925347,-0.0014566313,0.012951746,0.032711685,-1.6219392,-0.13533156
0.04158912,-0.0014112877,0.01254857,0.0316934,-1.5714496,-0.1311188
0.04029449,-0.0013673558,0.012157946,0.030706817,-1.522532,-0.12703721
0.03904017,-0.0013247916,0.011779483,0.02975095,-1.4751374,-0.12308269
0.037824903,-0.0012835525,0.011412803,0.028824842,-1.4292183,-0.11925129
0.036647465,-0.0012435974,0.011057539,0.027927564,-1.3847288,-0.11553916
0.035506688,-0.0012048861,0.010713334,0.027058223,-1.3416243,-0.11194261
0.034401424,-0.00116738,0.010379846,0.026215944,-1.2998617,-0.10845802
0.033330567,-0.0011310414,0.01005674,0.025399888,-1.2593993,-0.10508191
0.032293048,-0.0010958342,0.009743691,0.024609236,-1.2201965,-0.1018109
0.031287827,-0.001061723,0.009440389,0.023843199,-1.1822141,-0.09864172
0.0303139,-0.0010286737,0.009146529,0.023101008,-1.1454141,-0.095571205
0.029370291,-0.0009966532,0.0088618165,0.02238192,-1.1097598,-0.09259628
0.028456056,-0.0009656296,0.008585967,0.02168522,-1.0752153,-0.08971395
0.027570283,-0.0009355717,0.0083187055,0.021010207,-1.0417464,-0.08692136
0.026712084,-0.00090644945,0.008059763,0.020356208,-1.0093192,-0.08421569
0.0258806,-0.0008782338,0.0078088813,0.019722568,-0.9779014,-0.08159426
0.025074998,-0.0008508965,0.00756581,0.019108651,-0.9474617,-0.07905442
0.024294475,-0.00082441024,0.007330305,0.018513845,-0.9179695,-0.07659365
0.023538249,-0.0007987484,0.007102131,0.017937556,-0.8893955,-0.07420949
0.022805564,-0.0007738854,0.0068810596,0.017379206,-0.86171085,-0.07189953
