ax,ay,az,gx,gy,gz
-0.10000091,4.093673,-4.4591317,37.675797,35.400322,-19.1429
-0.3692043,4.247728,-4.805937,33.741707,39.966152,-17.495802
-0.707493,4.1166105,-5.2538652,32.18705,39.042816,-16.042912
-1.23836,4.072885,-5.6147447,31.882986,30.919167,-18.15195
-1.6275774,4.02733,-5.7645516,32.82987,21.675457,-20.254671
-1.8389779,4.0466375,-5.8076534,31.315989,12.886544,-21.215725
-1.8312738,4.0789456,-5.7744474,28.510258,7.2230487,-21.550318
-1.7947963,4.0750566,-5.7944975,25.057938,3.5387764,-21.365675
-1.8200026,4.0192876,-5.902145,22.103521,-0.1390782,-21.248676
-1.8685945,3.9315476,-6.06767,19.99485,-4.433729,-21.94418
-1.9205867,3.8335574,-6.263579,18.727627,-10.088942,-23.381535
-1.955859,3.7217689,-6.4684873,17.808317,-16.087189,-24.816628
-1.9432842,3.613643,-6.657721,16.923817,-22.464811,-25.841265
-1.8613582,3.525534,-6.8048854,15.662454,-28.975683,-26.242735
-1.7636323,3.4366326,-6.911431,13.739658,-35.371483,-26.031446
-1.7170285,3.3136303,-7.01757,11.448534,-42.00446,-25.91508
-1.7189342,3.1172502,-7.15309,10.390757,-48.352543,-27.170113
-1.7197268,2.923232,-7.259064,11.108182,-55.083164,-29.32076
-1.6478949,2.814024,-7.229032,12.026394,-61.80995,-31.13445
-1.5247246,2.7694495,-7.0908475,11.573387,-68.43357,-31.48482
-1.4122186,2.701397,-6.919388,9.924941,-74.870926,-31.6362
-1.2981951,2.5512977,-6.7272024,9.074135,-80.88996,-32.96863
-1.1070329,2.3894687,-6.470279,9.075133,-86.85593,-34.979595
-0.77715975,2.255265,-6.108031,8.650651,-92.60914,-36.37153
-0.34061214,2.1252806,-5.6728163,7.5235195,-97.5247,-36.467216
0.081228666,1.9832637,-5.221107,5.739745,-101.206665,-35.581398
0.42554086,1.8002166,-4.781772,4.2638125,-104.27325,-34.850456
0.7891923,1.6089749,-4.3405757,3.560539,-106.25147,-34.777966
1.1634094,1.4426202,-3.8911362,3.3257315,-107.15872,-34.57871
1.5002239,1.3306262,-3.431653,2.83246,-107.391365,-33.619083
1.77024,1.2568817,-2.9896874,1.6080089,-107.07664,-32.0953
1.9653343,1.1658244,-2.600509,0.65348315,-106.214005,-30.76207
2.143493,1.0554144,-2.2557106,0.3732791,-104.54514,-29.921793
2.296244,0.945933,-1.9484869,0.7385852,-102.332825,-29.233368
2.4291284,0.8642264,-1.6620975,1.1768562,-99.64578,-28.489195
2.533669,0.8103934,-1.4000593,1.2440176,-96.298416,-27.601221
2.5813756,0.7614742,-1.1956272,1.0746106,-92.96554,-26.531898
2.6058025,0.70655775,-1.0288148,0.9591845,-89.68971,-25.351038
2.6106508,0.66012347,-0.8899872,0.9868929,-86.436264,-24.134562
2.592015,0.6251255,-0.7790472,1.156123,-83.1306,-23.006561
2.5509934,0.59937876,-0.6928036,1.4965603,-79.66559,-22.189054
2.4859235,0.58490914,-0.6319016,1.7822173,-76.260544,-21.395298
2.4075522,0.5775515,-0.5893399,1.9141724,-73.06255,-20.567204
2.3217902,0.5730527,-0.56044143,1.8445072,-70.070114,-19.684624
2.2321603,0.56171054,-0.5468456,1.6624496,-67.23735,-18.790573
2.1363144,0.5438592,-0.5491097,1.6619475,-64.55725,-18.059137
2.0495305,0.5257431,-0.55756235,1.7457196,-62.013,-17.442125
1.9659284,0.51083237,-0.56748945,1.8239968,-59.666275,-16.881592
1.8860136,0.49910963,-0.5773601,1.8138368,-57.492577,-16.19365
1.8029132,0.4907993,-0.58941793,1.5102273,-55.67161,-15.450101
1.7241967,0.47842816,-0.597296,1.1505182,-53.884552,-14.677877
1.653811,0.4607603,-0.60758954,0.9152662,-51.967518,-14.0685005
1.5825598,0.4443988,-0.6184606,0.83982396,-49.98268,-13.563835
1.5136875,0.4280203,-0.6321162,0.83015037,-48.08462,-13.0111475
1.4438978,0.40734795,-0.648113,0.84511906,-46.519985,-12.456784
1.3858187,0.3842685,-0.65467656,1.101239,-44.944466,-11.932895
1.3466936,0.36249092,-0.6476173,1.518619,-43.4525,-11.387956
1.3246802,0.33602715,-0.62685186,2.2949877,-41.934414,-10.508661
1.3258015,0.3127002,-0.59261906,3.4343374,-40.394947,-8.941026
1.3240815,0.2973682,-0.5390166,4.7021904,-38.55035,-7.3217654
1.3053042,0.2510365,-0.48343888,5.9729238,-36.076878,-5.7417374
1.2630155,0.24290353,-0.46777666,5.7794156,-34.908077,-5.5557194
1.2221972,0.23505333,-0.45265895,5.592635,-33.77991,-5.3761683
1.1827887,0.2274743,-0.43806347,5.4123073,-32.690716,-5.20282
1.1447334,0.22015548,-0.4239691,5.23817,-31.638914,-5.035423
1.107977,0.21308649,-0.41035584,5.0699773,-30.623016,-4.87374
1.0724685,0.20625748,-0.39720473,4.9074945,-29.641611,-4.7175465
1.0381595,0.19965914,-0.38449785,4.7504997,-28.693352,-4.5666285
1.0050036,0.1932826,-0.37221807,4.5987825,-27.776968,-4.420783
0.9729572,0.18711942,-0.3603492,4.452142,-26.891247,-4.279818
0.94197845,0.18116158,-0.34887576,4.3103867,-26.035036,-4.14355
0.91202766,0.17540143,-0.33778307,4.173335,-25.207235,-4.011803
0.88306695,0.16983171,-0.32705703,4.040814,-24.4068,-3.8844116
0.8550601,0.16444543,-0.31668428,3.912658,-23.632729,-3.7612157
0.82797265,0.15923595,-0.30665204,3.788709,-22.884068,-3.642064
0.8017716,0.15419695,-0.29694808,3.6688156,-22.159904,-3.5268116
0.77642524,0.14932235,-0.28756067,3.5528338,-21.459366,-3.4153187
0.75190353,0.1446063,-0.27847868,3.4406252,-20.781616,-3.3074532
0.72817737,0.1400433,-0.26969138,3.332057,-20.125858,-3.2030873
0.70521915,0.13562797,-0.26118845,3.2270029,-19.491323,-3.1020994
0.68300223,0.1313552,-0.2529601,3.1253407,-18.877277,-3.0043721
0.6615011,0.1272201,-0.2449968,3.026954,-18.283014,-2.9097934
0.6406912,0.12321793,-0.23728955,2.9317303,-17.707857,-2.8182554
0.6205491,0.11934419,-0.22982961,2.8395622,-17.151154,-2.7296548
0.60105205,0.11559452,-0.22260861,2.750346,-16.612284,-2.6438918
0.5821785,0.11196474,-0.21561848,2.6639824,-16.090641,-2.5608711
0.5639073,0.10845082,-0.20885149,2.580376,-15.58565,-2.4805005
0.5462185,0.10504891,-0.20230018,2.499434,-15.096756,-2.4026916
0.5290927,0.10175527,-0.19595738,2.4210682,-14.623422,-2.327359
0.5125112,0.098566316,-0.18981618,2.3451931,-14.165131,-2.2544208
0.4964561,0.09547859,-0.18386993,2.2717266,-13.721389,-2.1837978
0.48091,0.09248876,-0.1781122,2.2005897,-13.291716,-2.1154141
0.46585628,0.08959362,-0.17253682,2.1317055,-12.87565,-2.0491962
0.4512788,0.08679008,-0.16713783,2.0650005,-12.472748,-1.9850732
0.43716204,0.08407514,-0.16190949,2.000404,-12.08258,-1.9229769
0.42349106,0.081445925,-0.15684623,1.937847,-11.704732,-1.8628412
0.41025135,0.07889967,-0.15194272,1.8772637,-11.338804,-1.8046029
0.39742902,0.07643367,-0.14719377,1.8185902,-10.984411,-1.7482003
0.38501057,0.07404535,-0.14259441,1.7617646,-10.641182,-1.6935743
0.372983,0.07173221,-0.13813983,1.7067279,-10.308756,-1.6406678
0.36133376,0.06949182,-0.13382535,1.6534222,-9.986786,-1.5894253
0.3500507,0.06732186,-0.1296465,1.6017922,-9.674937,-1.5397937
0.3391221,0.065220065,-0.12559892,1.5517842,-9.372886,-1.4917213
0.32853663,0.06318427,-0.12167844,1.5033463,-9.0803175,-1.4451582
0.31828335,0.06121235,-0.117880985,1.4564284,-8.79693,-1.4000564
0.30835167,0.059302285,-0.11420264,1.4109823,-8.522431,-1.3563691
0.29873136,0.057452105,-0.11063962,1.3669608,-8.256538,-1.3140515
0.2894125,0.0556599,-0.10718824,1.3243188,-7.998978,-1.2730601
0.28038558,0.053923838,-0.10384498,1.2830125,-7.7494855,-1.2333527
0.27164128,0.052242137,-0.100606404,1.2429997,-7.5078053,-1.1948885
0.26317072,0.05061307,-0.0974692,1.2042392,-7.2736897,-1.1576283
0.2549652,0.04903498,-0.094430156,1.1666917,-7.0469,-1.1215341
0.24701631,0.047506254,-0.09148618,1.1303186,-6.8272033,-1.0865688
0.23931602,0.04602533,-0.08863426,1.0950829,-6.6143775,-1.052697
0.23185644,0.0445907,-0.085871495,1.0609487,-6.4082046,-1.019884
0.22463001,0.04320091,-0.083195075,1.0278814,-6.2084756,-0.98809654
0.21762937,0.041854545,-0.08060229,0.9958473,-6.0149875,-0.9573023
0.21084742,0.04055024,-0.07809049,0.9648138,-5.8275433,-0.92747
0.20427728,0.03928667,-0.075657144,0.93474966,-5.6459537,-0.8985695
0.1979123,0.038062554,-0.07329977,0.9056242,-5.4700336,-0.8705714
0.19174603,0.036876656,-0.071016006,0.877408,-5.2996063,-0.8434473
0.18577223,0.035727773,-0.06880352,0.8500726,-5.134498,-0.81716996
0.17998485,0.03461474,-0.06666008,0.8235903,-4.974543,-0.79171264
0.17437807,0.033536445,-0.06458352,0.79793423,-4.8195786,-0.7670496
0.1689462,0.032491785,-0.06257175,0.7730787,-4.6694493,-0.7431561
0.16368379,0.031479716,-0.060622733,0.7489984,-4.524003,-0.7200079
0.1585855,0.030499212,-0.058734506,0.72566926,-4.3830934,-0.6975817
0.15364622,0.029549286,-0.05690517,0.7030676,-4.2465777,-0.67585486
0.14886095,0.028628983,-0.055132873,0.68117076,-4.1143193,-0.65480554
0.14422487,0.027737372,-0.053415835,0.65995663,-3.9861844,-0.6344125
0.13973334,0.026873559,-0.051752325,0.6394039,-3.8620443,-0.6146553
0.13538182,0.026036672,-0.050140675,0.6194918,-3.7417738,-0.59551394
0.13116592,0.025225872,-0.04857926,0.6002004,-3.6252525,-0.5769692
0.12708144,0.02444034,-0.04706651,0.58151025,-3.5123627,-0.55900246
0.12312425,0.023679292,-0.045600902,0.5634026,-3.402991,-0.5415957
0.11929037,0.02294196,-0.044180967,0.54585916,-3.2970276,-0.5247313
0.115575954,0.022227602,-0.04280528,0.5288624,-3.1943662,-0.50839245
0.11197727,0.021535505,-0.041472454,0.5123953,-3.0949035,-0.49256268
0.10849072,0.020864967,-0.040181156,0.49644122,-2.9985397,-0.4772261
0.10511278,0.020215323,-0.03893009,0.48098415,-2.905178,-0.46236733
0.10184008,0.019585915,-0.037717994,0.46600863,-2.814725,-0.44797143
0.09866933,0.018976115,-0.036543656,0.45149964,-2.7270894,-0.434024
0.09559734,0.01838531,-0.0354059,0.43744257,-2.6421838,-0.42051104
0.09262104,0.017812908,-0.034303583,0.42382336,-2.559923,-0.40741897
0.089737445,0.017258333,-0.033235602,0.41062835,-2.4802241,-0.39473468
0.08694366,0.01672103,-0.03220088,0.3978443,-2.4030075,-0.38244545
0.08423689,0.016200464,-0.031198388,0.38545844,-2.328196,-0.37053898
0.08161441,0.015696108,-0.030227115,0.3734583,-2.2557142,-0.3590033
0.07907361,0.01520746,-0.02928609,0.36183184,-2.1854897,-0.3478269
0.07661193,0.01473403,-0.02837437,0.3505675,-2.1174521,-0.33699852
0.07422691,0.014275341,-0.027491042,0.3396539,-2.0515332,-0.32650736
0.071916156,0.0138309365,-0.02663522,0.32908016,-1.9876672,-0.31634286
0.06967735,0.01340037,-0.025806049,0.31883568,-1.9257897,-0.3064949
0.06750827,0.012983211,-0.025002696,0.30891016,-1.8658391,-0.2969536
0.065406725,0.012579041,-0.024224356,0.29929373,-1.8077551,-0.28770936
0.063370615,0.012187456,-0.023470253,0.28997672,-1.7514797,-0.27875298
0.0613979,0.011808063,-0.022739628,0.2809498,-1.6969565,-0.27007544
0.059486605,0.011440482,-0.022031752,0.27220395,-1.644131,-0.26166812
0.057634823,0.011084346,-0.021345917,0.2637304,-1.5929501,-0.25352252
0.055840693,0.010739299,-0.020681433,0.25552067,-1.5433627,-0.24563056
0.05410242,0.010404994,-0.02003764,0.24756654,-1.4953192,-0.2379843
0.05241827,0.0100810975,-0.019413888,0.23986004,-1.4487715,-0.2305761
0.05078655,0.009767285,-0.018809557,0.23239349,-1.4036729,-0.22339854
0.04920563,0.009463242,-0.01822404,0.22515938,-1.3599784,-0.21644442
0.04767393,0.009168665,-0.017656751,0.21815048,-1.3176442,-0.20970681
0.04618991,0.008883258,-0.017107124,0.2113598,-1.276628,-0.20317897
0.0447521,0.0086067375,-0.016574606,0.20478052,-1.2368886,-0.19685434
0.04335904,0.008338824,-0.016058668,0.19840606,-1.1983864,-0.19072661
0.042009354,0.008079252,-0.015558791,0.19223005,-1.1610829,-0.18478964
0.040701684,0.007827761,-0.015074477,0.18624629,-1.1249406,-0.1790375
0.039434724,0.007584098,-0.014605238,0.18044882,-1.0899235,-0.17346442
0.038207203,0.007348021,-0.014150607,0.17483182,-1.0559964,-0.16806483
0.037017893,0.007119293,-0.01371013,0.16938968,-1.0231255,-0.16283333
0.03586561,0.006897685,-0.013283364,0.16411696,-0.99127793,-0.15776469
0.034749195,0.0066829757,-0.012869883,0.15900837,-0.96042174,-0.15285385
0.033667535,0.0064749504,-0.012469274,0.15405881,-0.930526,-0.14809586
0.032619547,0.006273401,-0.012081135,0.14926334,-0.901561,-0.143486
0.03160418,0.0060781254,-0.011705079,0.14461714,-0.8734976,-0.13901962
0.03062042,0.0058889287,-0.01134073,0.14011557,-0.8463078,-0.1346923
0.029667284,0.005705621,-0.010987721,0.13575412,-0.81996447,-0.13049966
