ax,ay,az,gx,gy,gz
-0.779098,2.0100183,-4.0373096,-31.572105,-18.69926,13.871944
-1.6619446,2.3087544,-4.3344774,-30.488092,-23.806864,4.4998655
-2.157699,2.5554094,-4.4632664,-27.0457,-30.295109,-4.0946884
-2.2537372,2.6784475,-4.4717693,-25.415354,-35.17581,-10.0998955
-2.0205712,2.73913,-4.3901296,-24.639668,-37.07474,-12.370141
-1.6972749,2.748376,-4.2686386,-24.62251,-36.93908,-11.878447
-1.4884257,2.7487504,-4.190761,-25.263569,-35.55219,-10.757975
-1.396385,2.6949968,-4.1848845,-25.087816,-33.838085,-10.318776
-1.3717206,2.6394591,-4.2297554,-24.298388,-33.622555,-10.380073
-1.2870946,2.568001,-4.2624807,-22.942247,-33.816055,-10.348587
-1.2380229,2.4847062,-4.318867,-21.49114,-34.089066,-10.265704
-1.2645562,2.3889291,-4.4031367,-19.613335,-35.169594,-10.32776
-1.2778994,2.3209538,-4.4882627,-17.3462,-36.543438,-10.610526
-1.2807597,2.3302662,-4.5859876,-15.402471,-38.363773,-11.261895
-1.2744849,2.3593738,-4.6974745,-14.8745575,-40.855366,-11.32871
-1.3329887,2.3196778,-4.8758616,-14.136695,-43.838623,-11.656934
-1.3903401,2.2537007,-5.093129,-13.439669,-47.757183,-11.839354
-1.4096105,2.1628444,-5.319458,-12.772448,-52.043133,-11.413654
-1.4422174,2.059467,-5.547753,-11.456278,-56.31252,-11.920616
-1.4760116,1.9528333,-5.7523904,-9.015946,-61.039818,-13.639078
-1.4403849,1.91195,-5.8490386,-6.8817616,-66.13626,-14.982231
-1.4202816,1.885227,-5.8926797,-5.6916265,-71.721695,-15.579369
-1.4354894,1.7912219,-5.9495645,-4.2589316,-77.96429,-16.139696
-1.3984233,1.6869076,-5.979561,-1.92137,-84.27882,-17.572273
-1.2732172,1.6384866,-5.9109707,0.6423551,-90.5377,-19.596985
-1.0907755,1.6185273,-5.6887593,2.2210898,-96.60401,-21.086851
-0.822514,1.5439385,-5.415365,3.4704537,-102.059906,-21.868755
-0.49049738,1.4566416,-5.10254,4.856624,-106.45055,-22.362114
-0.14729977,1.3904247,-4.750943,6.0536876,-110.138,-22.92095
0.22871023,1.3323338,-4.340383,6.3262553,-112.88009,-22.862879
0.5836895,1.2501942,-3.8853414,6.5066066,-114.76977,-22.745142
0.9236595,1.1740164,-3.4186642,6.8254623,-115.61318,-22.693827
1.2451992,1.1306733,-2.946914,6.840532,-115.5443,-22.452469
1.5340246,1.0987687,-2.4955413,6.2679667,-114.76727,-21.882822
1.7845882,1.0573794,-2.088489,5.09301,-113.38694,-20.843367
1.9789078,0.999633,-1.7463316,3.8153238,-111.77187,-19.33405
2.1351933,0.93031853,-1.4576588,2.5952759,-109.67281,-17.77172
2.249244,0.8481641,-1.2272015,2.012457,-107.079605,-16.687881
2.3385515,0.7818264,-1.027497,1.8027656,-104.01806,-16.010307
2.4285562,0.7296169,-0.84889174,1.5716786,-100.290436,-15.047702
2.468471,0.6895149,-0.7122918,1.2849416,-96.462685,-14.038842
2.4762022,0.6548091,-0.60230064,1.0680673,-92.59964,-13.090812
2.4650648,0.61978936,-0.51758623,1.0192411,-88.70559,-12.102253
2.4348357,0.5850907,-0.4524211,1.2265522,-84.71581,-11.26637
2.4005406,0.5463415,-0.40543512,2.0509448,-80.503075,-10.741729
2.3733127,0.5168964,-0.36340734,3.3264766,-76.16152,-10.292109
2.3581147,0.49574175,-0.3209732,4.842229,-71.60512,-9.580834
2.333691,0.47774422,-0.28304067,6.5392437,-66.93862,-8.582361
2.2870944,0.4652062,-0.24989955,8.2390785,-62.429752,-7.5489144
2.2095516,0.44943362,-0.24142683,7.959737,-60.313103,-7.292972
2.1350293,0.43427545,-0.23328416,7.6912766,-58.278904,-7.047
2.063374,0.41970038,-0.22545473,7.4331436,-56.322964,-6.81049
1.9944425,0.40567937,-0.21792293,7.1848235,-54.441372,-6.582971
1.9281019,0.3921854,-0.21067423,6.9458365,-52.630505,-6.3640037
1.8642285,0.37919322,-0.20369507,6.7157373,-50.88698,-6.153179
1.8027064,0.3666793,-0.19697286,6.4941087,-49.207638,-5.9501157
1.7434274,0.35462168,-0.19049574,6.280561,-47.589527,-5.754456
1.6862903,0.34299973,-0.18425265,6.074729,-46.029884,-5.565866
1.6312,0.33179408,-0.1782332,5.876271,-44.526108,-5.384032
1.5780672,0.32098663,-0.17242765,5.684864,-43.075768,-5.208659
1.526808,0.31056026,-0.1668268,5.5002065,-41.67657,-5.0394697
1.4773432,0.30049884,-0.16142203,5.3220134,-40.32635,-4.8762035
1.4295981,0.29078728,-0.15620516,5.150016,-39.023075,-4.718613
1.3835024,0.28141117,-0.1511685,4.983959,-37.76482,-4.566467
1.3389891,0.27235696,-0.14630476,4.8236036,-36.549767,-4.419544
1.2959954,0.26361182,-0.14160705,4.668722,-35.376186,-4.2776365
1.2544613,0.25516358,-0.13706882,4.5190988,-34.24245,-4.140547
1.2143301,0.24700071,-0.13268389,4.3745294,-33.147007,-4.0080876
1.1755478,0.23911221,-0.12844634,4.2348194,-32.088387,-3.8800807
1.1380633,0.23148766,-0.124350585,4.0997844,-31.065187,-3.756357
1.1018276,0.22411716,-0.120391294,3.969248,-30.076078,-3.6367555
1.0667944,0.21699122,-0.11656338,3.8430433,-29.119791,-3.5211225
1.0329192,0.21010083,-0.112862,3.7210107,-28.195116,-3.409312
1.0001597,0.20343739,-0.10928254,3.6029973,-27.300896,-3.3011844
0.96847564,0.1969927,-0.105820574,3.488858,-26.436031,-3.1966062
0.9378283,0.19075888,-0.102471896,3.3784535,-25.599464,-3.09545
0.9081809,0.18472844,-0.09923246,3.2716508,-24.790192,-2.9975936
0.8794979,0.17889419,-0.096098416,3.1683226,-24.007246,-2.9029212
0.8517456,0.17324923,-0.09306605,3.068347,-23.249704,-2.8113203
0.82489145,0.16778697,-0.090131834,2.9716072,-22.51668,-2.722684
0.7989044,0.16250108,-0.08729236,2.877991,-21.807323,-2.6369097
0.77375466,0.1573855,-0.08454437,2.7873907,-21.120821,-2.5538988
0.74941343,0.15243436,-0.08188472,2.6997035,-20.45639,-2.4735568
0.72585326,0.14764212,-0.07931042,2.6148298,-19.81328,-2.3957927
0.7030477,0.14300336,-0.07681857,2.5326746,-19.190767,-2.3205194
0.6809713,0.13851291,-0.07440639,2.453146,-18.58816,-2.247653
0.65959966,0.13416581,-0.07207121,2.3761563,-18.004786,-2.1771123
0.63890916,0.12995726,-0.069810465,2.3016205,-17.440008,-2.1088202
0.6188772,0.12588266,-0.06762167,2.2294567,-16.893204,-2.0427015
0.5994819,0.121937566,-0.06550244,2.1595867,-16.36378,-1.9786843
0.5807023,0.1181177,-0.063450485,2.0919347,-15.851161,-1.9166992
0.5625181,0.114418946,-0.06146359,2.0264275,-15.354796,-1.8566794
0.54490983,0.11083733,-0.05953962,1.9629952,-14.874151,-1.7985606
0.5278586,0.107369035,-0.057676516,1.9015695,-14.408712,-1.7422804
0.51134634,0.10401036,-0.055872303,1.8420852,-13.957984,-1.687779
0.49535543,0.100757726,-0.054125056,1.7844793,-13.521488,-1.6349986
0.47986904,0.09760772,-0.052432932,1.7286907,-13.0987625,-1.5838832
0.4648708,0.09455701,-0.05079415,1.6746608,-12.6893635,-1.5343792
0.450345,0.091602385,-0.049206987,1.6223328,-12.292859,-1.4864346
0.43627644,0.088740766,-0.04766978,1.5716518,-11.908835,-1.439999
0.42265037,0.08596916,-0.046180926,1.5225649,-11.536891,-1.395024
0.40945262,0.08328467,-0.044738874,1.4750211,-11.176639,-1.3514627
0.39666948,0.08068452,-0.043342125,1.4289708,-10.8277025,-1.30927
0.38428771,0.07816601,-0.04198923,1.3843665,-10.489723,-1.268402
0.3722945,0.07572653,-0.04067879,1.3411618,-10.162351,-1.2288165
0.36067745,0.073363565,-0.03940945,1.2993124,-9.845245,-1.1904726
0.34942463,0.07107469,-0.03817991,1.2587749,-9.538082,-1.1533309
0.3385244,0.06885753,-0.0369889,1.2195078,-9.240544,-1.1173531
0.32796565,0.066709824,-0.035835195,1.1814706,-8.952327,-1.0825022
0.31773752,0.06462937,-0.034717616,1.1446246,-8.673134,-1.0487427
0.3078295,0.06261403,-0.033635017,1.1089318,-8.402679,-1.0160397
0.29823154,0.06066176,-0.032586295,1.0743558,-8.140688,-0.9843601
0.28893378,0.058770552,-0.031570375,1.0408614,-7.886892,-0.9536714
0.27992678,0.056938484,-0.030586224,1.0084144,-7.6410317,-0.9239424
0.27120137,0.05516369,-0.02963284,0.97698176,-7.402858,-0.89514273
0.26274863,0.053444363,-0.028709251,0.9465315,-7.1721277,-0.8672432
0.25456002,0.05177876,-0.027814522,0.9170326,-6.948607,-0.8402154
0.24662721,0.050165184,-0.026947742,0.8884553,-6.7320685,-0.8140319
0.23894215,0.048602007,-0.026108034,0.86077046,-6.522293,-0.7886661
0.23149706,0.04708764,-0.025294546,0.8339501,-6.319068,-0.76409245
0.22428441,0.04562055,-0.024506455,0.80796707,-6.1221876,-0.74028593
0.21729688,0.04419925,-0.023742963,0.782795,-5.9314523,-0.7172225
0.21052742,0.04282231,-0.023003297,0.7584086,-5.7466693,-0.6948788
0.20396918,0.041488335,-0.022286711,0.73478305,-5.567652,-0.6732324
0.19761556,0.040195975,-0.021592481,0.71189463,-5.3942204,-0.65226126
0.19146013,0.03894393,-0.020919908,0.6897202,-5.2261987,-0.6319443
0.1854967,0.03773094,-0.020268312,0.6682374,-5.0634174,-0.612261
0.17971924,0.036555775,-0.019637037,0.6474245,-4.9057126,-0.59319156
0.17412193,0.035417255,-0.019025447,0.6272606,-4.7529254,-0.5747168
0.16869915,0.034314234,-0.018432926,0.6077255,-4.6049023,-0.556818
0.16344541,0.0332456,-0.017858876,0.58879936,-4.4614935,-0.5394773
0.15835546,0.032210276,-0.017302722,0.5704632,-4.3225555,-0.52267706
0.15342416,0.031207226,-0.016763903,0.55269855,-4.187948,-0.5064005
0.14864655,0.030235438,-0.016241878,0.5354876,-4.057536,-0.4906313
0.14401783,0.029293936,-0.015736122,0.518813,-3.931188,-0.4753535
0.13953337,0.028381772,-0.015246125,0.50265807,-3.8087776,-0.46055183
0.13518864,0.027498033,-0.014771398,0.48700652,-3.6901815,-0.44621134
0.13097928,0.026641829,-0.014311462,0.47184262,-3.5752807,-0.4323177
0.12690108,0.0258123,-0.013865856,0.4571512,-3.4639597,-0.41885692
0.12294991,0.025008617,-0.013434133,0.44291747,-3.3561068,-0.4058155
0.11912185,0.02422997,-0.013015859,0.42912716,-3.2516139,-0.3931804
0.11541303,0.023475578,-0.012610615,0.41576645,-3.150376,-0.38093886
0.111819744,0.022744685,-0.012217994,0.4028219,-3.0522919,-0.36907867
0.108338386,0.02203656,-0.011837603,0.39028057,-2.9572628,-0.35758787
0.104965456,0.02135049,-0.01146906,0.37812987,-2.8651934,-0.34645498
0.10169758,0.020685786,-0.011111995,0.3663576,-2.7759917,-0.33566886
0.09853148,0.020041786,-0.010766051,0.35495198,-2.689568,-0.32521865
0.09546398,0.019417843,-0.010430881,0.34390154,-2.6058362,-0.3150939
0.092492014,0.01881333,-0.010106148,0.33319527,-2.5247118,-0.30528444
0.0896126,0.018227644,-0.009791529,0.32282242,-2.4461136,-0.29578048
0.08682285,0.017660195,-0.009486707,0.31277257,-2.3699632,-0.2865725
0.084119976,0.017110417,-0.009191376,0.30303565,-2.296184,-0.27765122
0.08150127,0.016577758,-0.008905243,0.29360196,-2.2247024,-0.26900774
0.0789641,0.016061684,-0.008628019,0.284462,-2.1554463,-0.2606334
0.07650593,0.015561681,-0.008359427,0.27560663,-2.088347,-0.25251985
0.0741243,0.015077246,-0.008099197,0.267027,-2.0233366,-0.2446589
0.071816824,0.014607895,-0.007847072,0.2587145,-1.9603506,-0.23704273
0.069581196,0.014153156,-0.0076027955,0.25066084,-1.8993256,-0.22966367
0.06741517,0.0137125775,-0.0073661245,0.2428579,-1.8402008,-0.22251438
0.06531659,0.013285715,-0.0071368227,0.23529792,-1.7829167,-0.21558768
0.06328334,0.012872143,-0.00691466,0.2279733,-1.727416,-0.20887661
0.061313394,0.012471446,-0.0066994135,0.22087672,-1.6736434,-0.2023745
0.059404783,0.012083224,-0.0064908685,0.21400109,-1.6215448,-0.19607483
0.05755559,0.01170709,-0.006288816,0.20733951,-1.5710683,-0.18997127
0.055763964,0.011342664,-0.0060930545,0.20088534,-1.5221632,-0.18405774
0.05402812,0.010989585,-0.005903387,0.19463208,-1.4747806,-0.1783283
0.05234631,0.010647497,-0.0057196245,0.18857351,-1.4288731,-0.17277724
0.050716862,0.010316059,-0.005541582,0.18270354,-1.3843946,-0.16739897
0.04913814,0.009994939,-0.005369083,0.17701632,-1.3413011,-0.16218816
0.047608566,0.009683816,-0.005201954,0.17150614,-1.2995489,-0.15713955
0.046126604,0.009382378,-0.0050400277,0.1661675,-1.2590966,-0.15224811
0.04469078,0.009090324,-0.0048831417,0.16099505,-1.2199035,-0.14750895
0.043299653,0.008807362,-0.00473114,0.15598363,-1.1819305,-0.1429173
0.04195183,0.008533209,-0.0045838705,0.1511282,-1.1451397,-0.13846861
0.04064597,0.008267589,-0.004441185,0.14642392,-1.1094941,-0.1341584
0.03938075,0.008010238,-0.0043029413,0.14186609,-1.0749582,-0.12998237
0.038154926,0.007760899,-0.0041690012,0.13745014,-1.0414973,-0.12593633
0.036967255,0.0075193215,-0.0040392303,0.13317165,-1.009078,-0.12201624
0.035816558,0.007285264,-0.0039134994,0.12902635,-0.977668,-0.11821818
0.03470168,0.007058492,-0.003791682,0.12501009,-0.9472357,-0.11453835
