ax,ay,az,gx,gy,gz
-2.3445668,0.47454977,-6.516423,-37.731255,-7.9346175,-10.875554
-3.1218908,0.49001125,-6.952189,-31.44415,-19.828844,-19.68183
-3.1335602,0.7136384,-6.8580866,-26.489645,-31.350405,-27.996298
-2.6991343,0.9078594,-6.6739697,-24.27814,-36.421005,-30.974308
-2.3214605,0.94202137,-6.5297437,-21.944553,-37.640762,-30.029142
-2.1416624,0.9373841,-6.4326434,-19.100847,-36.59325,-26.584778
-2.139855,1.007123,-6.3955855,-17.681305,-36.10937,-23.286953
-2.1950405,1.056117,-6.3904853,-16.985706,-36.97139,-21.181305
-2.2376451,1.0530684,-6.374129,-15.281935,-38.544514,-20.40565
-2.2548974,1.0744543,-6.303927,-13.196651,-39.77862,-20.627457
-2.238304,1.1134943,-6.183702,-11.3281,-41.095238,-20.565014
-2.1946843,1.1259439,-6.017883,-9.973505,-42.502872,-19.555729
-2.1422808,1.1173706,-5.857319,-8.841274,-43.866196,-18.584934
-2.0794985,1.0715482,-5.717209,-7.416894,-45.246773,-18.124441
-2.012303,1.0107118,-5.574885,-5.84832,-47.05764,-17.97793
-1.9350148,0.9606908,-5.4142017,-4.036146,-49.229935,-17.840927
-1.8329654,0.954098,-5.235461,-2.8792062,-51.769512,-17.657372
-1.7124891,0.9197563,-5.0568995,-2.271342,-54.260643,-17.03791
-1.6105263,0.85297585,-4.8985147,-1.8310004,-56.70674,-16.055395
-1.5236378,0.78352326,-4.7509875,-1.2725798,-59.035442,-15.353806
-1.435317,0.732447,-4.609343,-0.23014562,-61.19599,-15.260156
-1.3409564,0.68551123,-4.445131,0.687667,-63.281265,-15.399432
-1.2493261,0.62560284,-4.2650743,1.505545,-65.25652,-15.478233
-1.1886778,0.5559242,-4.087999,2.0211864,-67.40685,-15.339605
-1.1391777,0.50101084,-3.8890848,2.4112823,-69.80032,-15.332895
-1.0081954,0.5032717,-3.6387162,2.364796,-72.004166,-15.402726
-0.8087614,0.55107826,-3.3445218,1.3046863,-73.893,-15.2066
-0.6537974,0.5624273,-3.0598507,-0.38558707,-75.462326,-14.45423
-0.53477746,0.5326517,-2.8106034,-2.1983366,-76.84126,-13.463794
-0.40619063,0.47767434,-2.5903986,-3.5042894,-77.77126,-12.764183
-0.25758603,0.42339286,-2.37987,-4.008794,-78.04629,-12.566709
-0.112180054,0.39253455,-2.1572652,-4.2305984,-78.04949,-12.557036
0.016613655,0.36477885,-1.9307376,-4.6695213,-78.0965,-12.350048
0.12908868,0.32534388,-1.7183195,-5.3441415,-78.282814,-11.630131
0.23929946,0.27181566,-1.5228109,-6.0088778,-78.392845,-10.611983
0.35168695,0.21941584,-1.338896,-6.51054,-77.69049,-10.067497
0.43736643,0.17200871,-1.1649928,-6.8113966,-76.58731,-9.882943
0.50720006,0.12891904,-1.0055662,-7.145334,-75.28303,-9.924166
0.56679875,0.07958905,-0.86637825,-7.203819,-73.66262,-10.238597
0.6186929,0.034847602,-0.74792796,-7.025202,-72.10508,-10.495815
0.67721236,0.0015439206,-0.6368154,-7.1509366,-70.6524,-10.241767
0.7378985,-0.03301941,-0.5389658,-7.2950687,-69.26306,-9.8853245
0.80866635,-0.063671365,-0.43694568,-7.2461715,-67.50977,-9.668363
0.86892,-0.07712099,-0.3369912,-7.0939384,-65.38269,-9.663165
0.913374,-0.0824719,-0.24798411,-6.858454,-62.98528,-9.820559
0.9444969,-0.083428495,-0.17518362,-6.866153,-60.49749,-9.655337
0.9531778,-0.09407914,-0.12916751,-6.9872985,-58.18815,-9.187255
0.94936466,-0.107418284,-0.0984652,-7.1809683,-55.974697,-8.5832615
0.93561214,-0.121689565,-0.07847003,-7.289901,-53.80409,-8.10542
0.92013097,-0.13590609,-0.06397686,-7.239319,-51.64257,-7.7519846
0.9116947,-0.15503263,-0.049711,-7.0548534,-49.369705,-7.2249627
0.91885364,-0.17711519,-0.033443235,-6.63782,-47.014248,-6.546177
0.9308517,-0.19852534,-0.01619033,-5.934872,-44.57909,-5.762673
0.94668967,-0.22408687,0.0036073038,-4.953793,-42.024315,-4.803587
0.97177756,-0.26357216,0.025053903,-3.4875371,-39.28352,-3.5910294
0.997361,-0.3115703,0.05155224,-0.77810526,-36.37773,-2.4996395
0.96456444,-0.30132484,0.04985703,-0.7525186,-35.18151,-2.417443
0.93295294,-0.29144955,0.048223075,-0.7278564,-34.02851,-2.3382165
0.9024738,-0.28192803,0.04664765,-0.70407766,-32.916817,-2.2618282
0.8730777,-0.27274486,0.045128208,-0.6811439,-31.844624,-2.188154
0.84471816,-0.26388547,0.04366234,-0.65901875,-30.810238,-2.1170778
0.81735134,-0.25533623,0.042247787,-0.6376682,-29.812061,-2.0484898
0.79093605,-0.24708423,0.040882416,-0.6170599,-28.848589,-1.9822862
0.7654332,-0.23911728,0.039564207,-0.5971635,-27.9184,-1.9183697
0.7408059,-0.23142384,0.038291257,-0.5779502,-27.020144,-1.8566475
0.7170193,-0.22399303,0.03706176,-0.55939275,-26.152552,-1.7970322
0.69404024,-0.2168145,0.035874,-0.5414653,-25.314415,-1.7394409
0.6718374,-0.20987844,0.034726366,-0.5241434,-24.504587,-1.6837949
0.6503808,-0.20317553,0.033617307,-0.5074038,-23.721981,-1.6300192
0.6296422,-0.19669689,0.032545354,-0.49122423,-22.96556,-1.578043
0.6095945,-0.1904341,0.031509116,-0.47558376,-22.234343,-1.5277984
0.5902121,-0.18437913,0.030507267,-0.4604623,-21.527388,-1.4792211
0.5714704,-0.17852432,0.02953853,-0.4458407,-20.843801,-1.4322497
0.553346,-0.17286235,0.028601704,-0.43170068,-20.182734,-1.3868253
0.5358165,-0.16738625,0.027695632,-0.4180248,-19.543364,-1.342892
0.51886064,-0.16208932,0.026819207,-0.40479648,-18.924917,-1.3003963
0.502458,-0.15696521,0.025971374,-0.3919997,-18.326645,-1.2592871
0.4865889,-0.1520078,0.025151122,-0.3796192,-17.747837,-1.2195152
0.47123474,-0.14721124,0.024357487,-0.36764044,-17.187809,-1.1810337
0.45637748,-0.14256991,0.023589535,-0.35604933,-16.645906,-1.1437976
0.44199994,-0.13807845,0.02284638,-0.3448325,-16.1215,-1.107764
0.42808563,-0.1337317,0.022127168,-0.33397704,-15.61399,-1.0728911
0.41461867,-0.12952468,0.02143108,-0.32347062,-15.122796,-1.0391395
0.40158385,-0.12545267,0.020757327,-0.3133013,-14.647364,-1.0064709
0.3889665,-0.12151107,0.020105153,-0.3034577,-14.187159,-0.9748487
0.37675256,-0.11769551,0.01947383,-0.29392883,-13.741668,-0.9442375
0.36492854,-0.11400174,0.018862663,-0.28470415,-13.310398,-0.9146034
0.35348135,-0.1104257,0.018270973,-0.27577347,-12.892874,-0.8859139
0.3423985,-0.106963485,0.017698117,-0.26712704,-12.488639,-0.8581375
0.33166793,-0.103611305,0.017143467,-0.25875542,-12.097251,-0.83124393
0.32127798,-0.100365534,0.016606424,-0.25064954,-11.718287,-0.80520403
0.31121743,-0.09722268,0.016086409,-0.24280067,-11.35134,-0.7799898
0.30147552,-0.094179355,0.015582861,-0.23520038,-10.996014,-0.75557405
0.2920418,-0.091232315,0.015095246,-0.22784053,-10.651929,-0.7319308
0.28290626,-0.088378415,0.014623041,-0.2207133,-10.318719,-0.7090348
0.27405918,-0.08561464,0.014165748,-0.21381113,-9.99603,-0.68686175
0.2654912,-0.082938045,0.013722881,-0.2071267,-9.683522,-0.6653883
0.25719333,-0.08034583,0.013293975,-0.200653,-9.380865,-0.6445917
0.2491568,-0.07783527,0.012878578,-0.1943832,-9.087742,-0.62445015
0.24137326,-0.07540373,0.012476257,-0.18831074,-8.803844,-0.60494256
0.23383452,-0.073048666,0.012086591,-0.1824293,-8.528877,-0.5860486
0.22653277,-0.07076764,0.011709173,-0.17673273,-8.262553,-0.56774855
0.21946041,-0.06855827,0.011343612,-0.17121513,-8.004596,-0.55002344
0.2126101,-0.06641827,0.010989529,-0.16587077,-7.754738,-0.5328548
0.20597476,-0.06434543,0.010646557,-0.16069412,-7.5127206,-0.516225
0.19954754,-0.062337596,0.010314343,-0.15567984,-7.2782946,-0.50011677
0.19332182,-0.060392715,0.009992545,-0.15082276,-7.0512176,-0.48451352
0.1872912,-0.058508784,0.009680829,-0.14611788,-6.831257,-0.46939924
0.18144949,-0.05668386,0.009378879,-0.14156038,-6.6181865,-0.45475844
0.1757907,-0.054916084,0.0090863835,-0.1371456,-6.411787,-0.44057605
0.17030902,-0.053203635,0.008803043,-0.13286899,-6.2118487,-0.4268376
0.16499886,-0.051544774,0.008528569,-0.1287262,-6.0181665,-0.413529
0.15985481,-0.0499378,0.008262679,-0.12471299,-5.830542,-0.4006367
0.15487163,-0.048381075,0.008005105,-0.12082528,-5.6487856,-0.38814756
0.15004422,-0.04687302,0.0077555827,-0.11705911,-5.4727106,-0.37604886
0.14536768,-0.045412093,0.007513859,-0.11341065,-5.302139,-0.36432827
0.14083727,-0.04399682,0.007279688,-0.109876186,-5.1368966,-0.3529739
0.13644838,-0.04262575,0.0070528323,-0.10645213,-4.976816,-0.34197423
0.13219656,-0.041297507,0.0068330616,-0.10313501,-4.821736,-0.3313181
0.1280775,-0.040010735,0.0066201533,-0.09992148,-4.6714973,-0.3209947
0.12408705,-0.038764138,0.006413892,-0.09680826,-4.5259495,-0.3109936
0.12022115,-0.03755645,0.0062140687,-0.09379223,-4.3849444,-0.3013047
0.116475895,-0.036386453,0.0060204817,-0.09087031,-4.24834,-0.29191813
0.11284751,-0.035252962,0.005832935,-0.08803958,-4.1159983,-0.28282446
0.109332316,-0.034154836,0.00565124,-0.085297145,-3.9877853,-0.2740145
0.105926774,-0.033090964,0.005475212,-0.08264027,-3.863572,-0.26547936
0.102627456,-0.032060277,0.0053046746,-0.08006626,-3.7432325,-0.25721043
0.09943103,-0.03106173,0.0051394557,-0.077572525,-3.626646,-0.24919938
0.09633428,-0.03009432,0.004979389,-0.07515655,-3.5136952,-0.24143814
0.09333408,-0.029157074,0.0048243124,-0.0728159,-3.4042659,-0.23391888
0.09042741,-0.028249046,0.004674071,-0.07054823,-3.2982483,-0.22663404
0.08761136,-0.027369326,0.0045285127,-0.06835124,-3.1955354,-0.21957628
0.08488308,-0.026517026,0.004387492,-0.066222735,-3.0960243,-0.21273853
0.08223984,-0.02569129,0.004250866,-0.06416057,-2.9996145,-0.20611387
0.07967897,-0.024891287,0.004118498,-0.062162668,-2.9062095,-0.19969569
0.077197894,-0.024116214,0.003990255,-0.06022703,-2.815715,-0.19347751
0.07479414,-0.023365295,0.003866008,-0.058351707,-2.7280405,-0.18745308
0.072465286,-0.022637771,0.0037456325,-0.05653481,-2.6430976,-0.18161637
0.07020898,-0.021932915,0.0036290074,-0.05477453,-2.5608015,-0.17596151
0.068022974,-0.021250017,0.0035160156,-0.053069085,-2.481069,-0.17048283
0.06590507,-0.020588394,0.003406544,-0.05141677,-2.4038205,-0.16517481
0.06385314,-0.019947384,0.0033004824,-0.049815927,-2.3289785,-0.16003215
0.061865125,-0.019326339,0.0031977247,-0.04826495,-2.2564678,-0.1550497
0.059939034,-0.018724637,0.0030981677,-0.046762284,-2.1862156,-0.15022242
0.058072936,-0.018141678,0.0030017116,-0.04530642,-2.1181514,-0.1455455
0.05626496,-0.017576875,0.0029082596,-0.043895904,-2.0522075,-0.14101425
0.05451329,-0.017029664,0.0028177183,-0.042529315,-1.988317,-0.13662413
0.052816175,-0.016499493,0.0027299968,-0.041205283,-1.9264164,-0.13237073
0.051171914,-0.015985835,0.002645007,-0.03992249,-1.8664436,-0.1282498
0.049578853,-0.015488172,0.002562664,-0.038679644,-1.8083384,-0.12425718
0.048035406,-0.015006007,0.0024828853,-0.0374755,-1.7520427,-0.1203889
0.04654002,-0.014538855,0.0024055906,-0.03630885,-1.6975,-0.11664108
0.045091197,-0.014086251,0.002330703,-0.03517853,-1.6446556,-0.11300997
0.04368749,-0.01364774,0.002258147,-0.03408341,-1.5934567,-0.10949192
0.042327486,-0.0132228825,0.0021878507,-0.033022385,-1.5438522,-0.106083415
0.041009832,-0.012811255,0.0021197428,-0.0319944,-1.495792,-0.102781035
0.039733205,-0.012412443,0.0020537556,-0.03099842,-1.4492284,-0.09958149
0.038496327,-0.012026048,0.001989823,-0.030033452,-1.4041145,-0.096481554
0.037297957,-0.0116516845,0.001927881,-0.029098528,-1.3604052,-0.093478136
0.0361369,-0.011288976,0.0018678675,-0.028192712,-1.3180567,-0.09056823
0.035011988,-0.01093756,0.0018097224,-0.027315099,-1.2770268,-0.08774892
0.033922102,-0.010597086,0.0017533876,-0.026464807,-1.2372743,-0.08501739
0.032866146,-0.010267211,0.0016988068,-0.025640989,-1.1987594,-0.0823709
0.031843066,-0.009947605,0.0016459251,-0.02484282,-1.1614436,-0.079806805
0.030851837,-0.009637951,0.0015946898,-0.024069497,-1.1252896,-0.07732253
0.029891469,-0.0093379365,0.0015450496,-0.02332025,-1.090261,-0.074915595
0.028960995,-0.009047261,0.0014969547,-0.022594329,-1.0563229,-0.0725836
0.02805949,-0.008765636,0.0014503571,-0.021891007,-1.0234414,-0.0703242
0.02718605,-0.008492778,0.0014052101,-0.02120958,-0.9915836,-0.068135135
0.026339801,-0.008228415,0.0013614687,-0.020549366,-0.9607175,-0.066014215
0.025519894,-0.0079722805,0.0013190889,-0.019909706,-0.9308123,-0.06395933
0.024725514,-0.00772412,0.0012780284,-0.01928996,-0.90183806,-0.06196841
0.023955863,-0.0074836845,0.0012382461,-0.018689504,-0.87376577,-0.060039464
0.02321017,-0.007250734,0.0011997023,-0.018107742,-0.8465674,-0.05817057
0.02248769,-0.0070250356,0.0011623583,-0.017544089,-0.8202157,-0.056359854
0.021787701,-0.0068063624,0.0011261768,-0.016997982,-0.7946843,-0.054605503
0.021109503,-0.006594497,0.0010911217,-0.016468877,-0.7699477,-0.052905764
0.020452416,-0.0063892263,0.0010571578,-0.01595624,-0.7459811,-0.05125894
0.019815784,-0.0061903456,0.0010242511,-0.015459563,-0.7227606,-0.049663376
0.019198969,-0.0059976564,0.0009923688,-0.014978346,-0.7002629,-0.04811748
