ax,ay,az,gx,gy,gz
-7.7173433,0.08727352,-9.679179,17.201065,-97.71271,-8.989172
-7.6085453,-0.5632342,-10.461928,19.270807,-119.08954,-15.466183
-6.963653,-1.4189019,-11.007456,27.165813,-131.67053,-15.6554985
-6.476081,-2.2887275,-11.641886,40.178852,-141.99101,-13.436685
-6.297304,-3.103268,-12.391678,61.009262,-157.54558,-14.831911
-5.9242396,-3.8995612,-13.002555,83.52809,-170.69447,-18.377216
-5.2836456,-4.5511737,-13.377277,106.91351,-179.82695,-20.110037
-4.5415087,-4.989474,-13.473125,128.185,-185.79973,-17.605892
-3.7684155,-5.06497,-13.3033495,147.77443,-191.3638,-11.454556
-2.848278,-4.418401,-12.609168,160.17784,-196.16814,-4.3809137
-1.6840835,-3.0319197,-11.146036,163.37532,-198.75838,2.3982322
-0.5380668,-1.589981,-9.403757,159.65375,-198.79807,9.285124
0.5861121,-0.25721598,-7.5719743,152.31541,-195.46545,16.095491
1.7042409,0.958007,-5.75551,142.2553,-188.13635,22.145212
2.7180612,2.025572,-4.099655,130.31729,-176.22542,26.245085
3.5158243,2.8901327,-2.6905906,118.749146,-163.47255,28.50719
4.2001643,3.5485117,-1.5167093,107.78773,-150.304,29.46936
4.7819815,4.0119524,-0.57504225,97.66847,-136.5984,29.307062
5.2565727,4.298359,0.14012712,88.39741,-122.26565,28.239391
5.621327,4.4376373,0.63388443,80.35396,-106.97688,26.347376
5.821203,4.43986,0.90707874,72.84499,-91.756645,24.383884
5.88959,4.35201,1.0311024,65.70416,-77.08107,22.65923
5.8560014,4.208884,1.0372262,58.886414,-63.028824,21.25107
5.720797,4.0403466,0.92511344,53.208054,-50.252842,19.885082
5.5147853,3.8568158,0.7497907,48.092716,-38.764687,18.35868
5.258754,3.6719928,0.50474304,43.54094,-28.08029,16.742426
4.9702764,3.505798,0.22671205,39.282906,-18.178226,14.993688
4.6494465,3.3687851,-0.07173985,35.048656,-9.058172,13.136119
4.2950974,3.2488616,-0.40596998,31.20005,-1.0378156,11.264126
3.9082496,3.137786,-0.7695184,27.853422,5.0620365,9.31015
3.4937174,3.0391443,-1.1518394,24.75855,9.483243,7.1551185
3.0819147,2.9470184,-1.5245581,21.920832,12.442592,4.740623
2.6841526,2.8595324,-1.8860023,19.392292,14.160134,2.1961641
2.3034618,2.7721128,-2.2417834,17.088943,14.657963,-0.32429752
1.9401021,2.6817389,-2.5867648,14.93437,13.692871,-2.6322212
1.5891483,2.5918374,-2.9112902,12.900869,11.842546,-4.659148
1.2443541,2.4968717,-3.2201746,11.122467,9.150784,-6.3897424
0.9081468,2.3996358,-3.5116658,9.723709,5.6701965,-7.88678
0.58036345,2.3063786,-3.7875361,8.8185425,1.4797686,-9.2914295
0.24873541,2.2273095,-4.046073,8.214895,-3.8659153,-10.821909
-0.08460044,2.1541266,-4.293391,7.8069706,-10.121169,-12.54932
-0.39378732,2.074632,-4.5503216,7.9691806,-17.604902,-14.317034
-0.6840349,1.9894434,-4.810502,8.525758,-26.693594,-15.995674
-0.9463046,1.9040734,-5.043516,8.933316,-37.292904,-17.582079
-1.170615,1.8292388,-5.2483582,9.936606,-49.86706,-20.324924
-1.2250466,1.8436518,-5.3411627,11.455643,-62.54827,-25.722769
-0.97794527,1.8473915,-5.343608,14.40356,-74.05965,-32.95408
-0.3722816,1.8938173,-5.1371827,17.706938,-83.449684,-38.566574
0.45499408,1.9871739,-4.7270894,19.388134,-89.90847,-40.61658
1.303489,2.0377536,-4.250626,19.57301,-93.24415,-39.825127
2.1415281,2.0489256,-3.7167017,19.164,-94.28018,-38.640453
2.9792795,2.0241597,-3.1668692,18.231989,-92.68918,-37.009705
3.753381,1.954634,-2.6465569,16.825647,-88.546684,-34.419422
4.379173,1.8504673,-2.1986563,15.332097,-82.428185,-31.073812
4.830763,1.7301985,-1.8346279,13.886006,-74.54963,-27.399698
5.1046495,1.5957112,-1.5722791,12.3501215,-65.62366,-23.693651
5.2631254,1.4530729,-1.417521,11.426195,-55.905235,-20.048481
5.2918305,1.3075918,-1.3558582,11.139753,-46.151894,-16.615017
5.2233605,1.1623238,-1.3534453,11.12676,-36.731968,-13.202849
5.086576,1.021892,-1.3991305,11.275267,-27.97679,-9.440761
4.896341,0.89901495,-1.4839375,11.269834,-19.573956,-5.3950024
4.678651,0.79096866,-1.603454,11.118283,-11.39212,-1.1270149
4.4181128,0.6982811,-1.7901093,11.818221,-3.8951683,3.1089635
4.098669,0.6149861,-2.0135236,13.27725,2.3587966,6.9250607
3.748173,0.5434631,-2.240657,15.459913,7.0155807,10.040656
3.398114,0.50279814,-2.4552531,18.23048,10.494293,12.657943
3.0771174,0.51703393,-2.6354191,21.169075,13.094018,14.889031
2.7876291,0.6073428,-2.7723262,23.776066,15.111932,16.701115
2.5148978,0.74411863,-2.8803272,26.081,16.541536,18.128702
2.2473383,0.9097353,-2.9615006,28.048038,17.14482,19.24386
1.9679654,1.1580621,-2.9915416,29.716312,17.014824,19.719423
1.6942062,1.4859365,-2.9715884,30.867369,16.180798,19.084675
1.4355934,1.8885185,-2.8892312,31.18185,14.982845,17.141357
1.1962501,2.3130443,-2.7710521,30.353575,13.46235,14.319343
0.97585136,2.7124202,-2.6582415,28.177748,11.100415,11.317334
0.7835501,3.100848,-2.5427618,24.838903,8.135878,8.303464
0.61190635,3.469048,-2.4310493,20.35677,4.750963,5.057976
0.46517524,3.7735686,-2.3420157,14.94865,1.06559,1.5344646
0.36504653,3.9774573,-2.2780852,8.901322,-2.6658707,-2.0769577
0.3195812,4.0539308,-2.2400594,2.984295,-5.787779,-5.783178
0.3441987,3.9583194,-2.2340088,-1.9071805,-7.982042,-9.821585
0.42147672,3.7556703,-2.2614594,-5.407507,-9.552249,-14.081519
0.56689465,3.467709,-2.316466,-8.165526,-11.390711,-17.46525
0.7953275,3.1071541,-2.3746748,-10.994313,-13.910864,-18.783192
1.0758256,2.7016249,-2.4030564,-13.920414,-16.187298,-17.571733
1.3216693,2.2875834,-2.390714,-15.84258,-17.020607,-16.251425
1.4959869,1.9193355,-2.3560748,-16.282064,-16.197195,-15.634117
1.5832539,1.6357872,-2.2976334,-15.696668,-14.392949,-15.3677025
1.5874786,1.4467642,-2.2213936,-14.781598,-12.634651,-14.778707
1.5308332,1.3330407,-2.1289923,-14.23035,-11.546243,-13.55234
1.425613,1.255162,-2.034575,-13.7405815,-10.742869,-12.210025
1.3018405,1.2002633,-1.943746,-13.184174,-9.98789,-11.223723
1.1712197,1.154741,-1.8611777,-12.547943,-9.251093,-10.564781
1.0373778,1.1165105,-1.7894512,-11.819159,-8.673224,-10.131052
0.90210414,1.0842745,-1.7235893,-11.138215,-8.547028,-9.739686
0.77482325,1.0617499,-1.6586186,-10.60286,-8.644314,-9.391199
0.65499693,1.0409677,-1.5985427,-10.107281,-8.862553,-9.233063
0.5551066,1.0209969,-1.5415481,-9.591067,-9.144485,-9.188648
0.48032928,1.0020926,-1.4817244,-9.047274,-9.478562,-9.061734
0.44036356,0.974224,-1.4152551,-8.404262,-9.704907,-8.544133
0.44662997,0.9349888,-1.3342922,-7.6041975,-9.687732,-7.8483596
0.47271538,0.89355206,-1.2395741,-6.5719795,-9.490047,-7.3250294
0.45795718,0.8656553,-1.2008746,-6.366802,-9.193768,-7.0963416
0.44366235,0.83863443,-1.16339,-6.1680665,-8.906791,-6.874834
0.4298161,0.81246156,-1.1270819,-5.975568,-8.628819,-6.660278
0.41640416,0.7871096,-1.0919125,-5.789107,-8.359567,-6.452451
0.4034127,0.76255244,-1.0578457,-5.6084914,-8.098755,-6.25114
0.39082837,0.7387648,-1.0248466,-5.433536,-7.846116,-6.0561376
0.3786382,0.7157223,-0.992881,-5.264061,-7.601392,-5.8672433
0.36682975,0.69340134,-0.9619164,-5.0998926,-7.36433,-5.6842637
0.3553909,0.67177904,-0.931921,-4.940863,-7.1346884,-5.5070114
0.34431002,0.6508333,-0.90286416,-4.7868094,-6.912232,-5.3353057
0.3335757,0.63054276,-0.8747162,-4.637574,-6.6967344,-5.1689706
0.32317707,0.6108867,-0.84744847,-4.493006,-6.4879756,-5.007837
0.3131035,0.5918451,-0.8210332,-4.3529572,-6.2857428,-4.851741
0.3033448,0.57339865,-0.7954435,-4.2172856,-6.0898304,-4.700523
0.29389098,0.5555286,-0.7706533,-4.085853,-5.9000397,-4.5540304
0.28473252,0.5382167,-0.7466376,-3.9585264,-5.716178,-4.4121137
0.27586007,0.5214456,-0.72337186,-3.8351762,-5.5380583,-4.2746296
0.26726466,0.50519806,-0.70083266,-3.7156777,-5.3655005,-4.1414385
0.25893763,0.48945782,-0.6789971,-3.5999098,-5.1983294,-4.0124054
0.25087047,0.4742089,-0.6578431,-3.4877555,-5.036377,-3.8874
0.2430551,0.45943582,-0.6373493,-3.3791013,-4.8794785,-3.7662954
0.23548359,0.44512376,-0.61749494,-3.2738376,-4.7274756,-3.64897
0.2281483,0.43125817,-0.59826005,-3.1718578,-4.5802155,-3.5353048
0.22104181,0.41782513,-0.5796251,-3.073059,-4.4375486,-3.4251854
0.21415699,0.40481108,-0.5615715,-2.9773421,-4.2993317,-3.3185008
0.20748688,0.39220285,-0.5440808,-2.8846102,-4.165425,-3.215143
0.20102476,0.3799878,-0.52713555,-2.7947698,-4.0356936,-3.115008
0.19476411,0.3681536,-0.51071864,-2.7077303,-3.9100077,-3.0179956
0.18869865,0.35668835,-0.49481353,-2.6234047,-3.78824,-2.9240074
0.18282227,0.3455805,-0.47940424,-2.5417075,-3.670268,-2.832949
0.17712906,0.33481887,-0.46447524,-2.462557,-3.5559733,-2.744729
0.17161329,0.32439268,-0.45001155,-2.3858733,-3.4452407,-2.6592586
0.1662694,0.3142914,-0.43599862,-2.3115795,-3.3379593,-2.5764518
0.16109206,0.3045049,-0.42242238,-2.239601,-3.234021,-2.4962254
0.15607604,0.29502335,-0.40926915,-2.1698651,-3.1333213,-2.418499
0.15121631,0.28583723,-0.3965258,-2.1023023,-3.0357592,-2.3431945
0.14650801,0.2769373,-0.38417944,-2.0368443,-2.941237,-2.270236
0.14194638,0.2683147,-0.37221774,-1.9734257,-2.8496594,-2.1995506
0.13752685,0.25996065,-0.3606287,-1.9119828,-2.7609348,-2.1310673
0.133245,0.25186688,-0.34940064,-1.852454,-2.6749742,-2.0647173
0.12909654,0.24402522,-0.33852234,-1.7947793,-2.5916913,-2.000434
0.12507728,0.23642781,-0.3279829,-1.7389013,-2.5110023,-1.9381531
0.12118322,0.22906704,-0.3177717,-1.6847636,-2.4328265,-1.877812
0.117410436,0.22193553,-0.30787855,-1.632312,-2.3570857,-1.8193504
0.11375515,0.21502611,-0.29829353,-1.5814941,-2.2837036,-1.7627095
0.11021371,0.2083319,-0.28900704,-1.5322587,-2.2126071,-1.7078326
0.10678256,0.20184614,-0.28000972,-1.4845568,-2.1437247,-1.6546646
0.103458256,0.19556238,-0.2712926,-1.4383403,-2.0769873,-1.6031524
0.10023748,0.18947428,-0.26284692,-1.393563,-2.0123281,-1.5532444
0.09711699,0.18357576,-0.25466424,-1.3501801,-1.9496825,-1.5048904
0.09409367,0.17786093,-0.24673638,-1.3081481,-1.8889875,-1.4580421
0.0911645,0.17232405,-0.23905538,-1.2674248,-1.8301826,-1.4126527
0.08832653,0.16695955,-0.23161353,-1.2279696,-1.7732086,-1.3686765
0.08557692,0.1617621,-0.22440341,-1.189743,-1.7180086,-1.3260696
0.08291293,0.1567265,-0.21741778,-1.1527065,-1.6645274,-1.2847893
0.080331884,0.15184766,-0.21064964,-1.1168232,-1.6127113,-1.2447944
0.0778312,0.14712073,-0.20409223,-1.0820571,-1.5625086,-1.2060447
0.07540837,0.14254096,-0.197739,-1.0483736,-1.5138688,-1.1685014
0.073060974,0.1381038,-0.19158356,-1.0157386,-1.4667434,-1.1321269
0.07078666,0.13380477,-0.18561976,-0.9841197,-1.4210852,-1.096885
0.06858316,0.12963958,-0.17984164,-0.9534852,-1.3768485,-1.0627402
0.06644826,0.12560406,-0.1742434,-0.92380446,-1.333989,-1.0296586
0.06437981,0.12169419,-0.16881946,-0.8950477,-1.2924638,-0.99760675
0.06237577,0.11790604,-0.16356437,-0.8671863,-1.2522314,-0.9665528
0.060434114,0.11423582,-0.15847287,-0.8401922,-1.2132515,-0.93646556
0.058552906,0.11067986,-0.1535399,-0.8140385,-1.1754851,-0.907315
0.056730263,0.1072346,-0.14876047,-0.788699,-1.1388944,-0.879072
0.054964356,0.10389659,-0.14412984,-0.7641483,-1.1034428,-0.8517082
0.053253427,0.1006625,-0.13964337,-0.74036187,-1.0690949,-0.8251962
0.05159576,0.09752908,-0.13529657,-0.717316,-1.0358162,-0.7995096
0.049989693,0.09449321,-0.13108508,-0.6949875,-1.0035734,-0.77462256
0.048433628,0.09155185,-0.12700468,-0.673354,-0.97233444,-0.7505103
0.046926,0.08870205,-0.12305132,-0.65239406,-0.94206786,-0.7271486
0.0454653,0.085940965,-0.119221024,-0.6320866,-0.9127435,-0.7045142
0.04405008,0.083265826,-0.115509965,-0.61241126,-0.884332,-0.68258435
0.042678908,0.08067397,-0.11191442,-0.5933484,-0.8568049,-0.6613372
0.04135042,0.07816279,-0.1084308,-0.57487893,-0.83013475,-0.6407514
0.040063288,0.07572978,-0.10505563,-0.5569844,-0.80429476,-0.62080646
