ax,ay,az,gx,gy,gz
-4.363676,-1.9354721,-6.830062,-10.321003,-11.430104,9.931909
-4.744528,-2.3288088,-7.7253137,0.6162979,-23.113026,12.0336485
-5.1441135,-2.8721125,-8.43747,10.910652,-34.835537,10.334232
-5.2753024,-3.369779,-8.909344,20.148308,-46.52399,6.967581
-5.147387,-3.700116,-9.263444,27.456924,-56.49238,4.8582454
-5.0089736,-3.9961581,-9.571512,32.922905,-67.16311,4.0643497
-4.937471,-4.3949156,-9.900568,42.641216,-81.14137,4.372876
-4.703674,-4.750057,-10.147053,53.49707,-94.63744,4.4063187
-4.209826,-4.988055,-10.325915,64.71283,-106.0725,4.9333324
-3.5693836,-5.130159,-10.391733,75.90312,-115.72305,6.924053
-2.8718355,-5.085932,-10.226287,86.93861,-123.249245,9.614387
-2.1168895,-4.7112575,-9.761208,96.69075,-127.82241,12.077817
-1.2628053,-3.949175,-8.902369,103.62813,-129.705,15.244164
-0.4692983,-3.063901,-7.865132,106.538475,-129.43887,19.937342
0.23739025,-2.2041857,-6.782075,106.13923,-127.632126,25.302221
0.87196535,-1.4081455,-5.6944976,103.89764,-124.42225,29.746555
1.4813337,-0.66079813,-4.620191,101.110306,-119.037636,32.108513
2.128536,0.09457576,-3.5523746,98.16821,-112.04961,33.4005
2.7603235,0.9109466,-2.5205796,94.6253,-103.311676,33.832195
3.2988105,1.747967,-1.5593495,90.18754,-93.268326,33.735786
3.6949542,2.530832,-0.72192645,84.71488,-82.56297,33.225048
3.9601371,3.1849184,-0.054463908,77.92091,-71.63006,32.01082
4.129731,3.6388657,0.38965604,70.618195,-60.844337,30.46709
4.249352,3.9237568,0.659643,63.017445,-50.1293,28.72332
4.3223524,4.046633,0.771247,55.505455,-39.419197,26.676926
4.349888,4.0486803,0.75443697,48.473625,-28.797543,24.285288
4.3280997,3.9685013,0.63707656,41.772884,-18.467392,21.721476
4.24546,3.8117886,0.40522745,35.50078,-8.824326,19.366476
4.100745,3.6204216,0.09412408,30.30797,-0.2988657,17.157837
3.9123144,3.4157135,-0.25035197,25.739367,6.89547,14.875271
3.721337,3.2058759,-0.6169008,21.617283,13.123964,12.654095
3.5134428,2.9998722,-1.0051602,17.841974,18.29201,10.6541
3.2600543,2.7963321,-1.425891,14.401919,22.543003,8.823191
2.9714947,2.5992188,-1.8646619,11.542394,25.752914,6.979575
2.6435125,2.4256172,-2.3099592,9.451531,27.611376,4.871541
2.2866817,2.2831986,-2.7343874,7.726298,27.905077,2.386446
1.924015,2.1532333,-3.1330204,6.169027,26.196337,-0.09770535
1.5702932,2.0314684,-3.4973545,4.704474,23.180443,-2.3271134
1.253221,1.9144931,-3.8262649,3.5066445,19.211283,-4.2214217
0.96507484,1.8156012,-4.116258,2.5705013,14.748241,-5.881528
0.69175565,1.7498662,-4.3653436,1.8078473,9.790231,-7.4187646
0.42696437,1.7133543,-4.579159,0.812503,3.639342,-8.860358
0.17271225,1.6665448,-4.7561345,-0.22127722,-3.3181808,-10.236016
-0.03657234,1.6026862,-4.9019732,-1.091777,-10.869185,-11.556259
-0.17834108,1.5504408,-5.0005364,-1.7200865,-18.702772,-12.809528
-0.23750831,1.5289848,-5.0527472,-2.1969216,-26.560045,-13.872405
-0.21905924,1.510243,-5.047475,-2.8689501,-34.082695,-14.9399
-0.1398292,1.412486,-4.952968,-3.1264257,-41.149055,-16.25502
0.0024749243,1.3078678,-4.762893,-3.088498,-48.17604,-17.731817
0.31373623,1.1968349,-4.481184,-3.2962482,-55.19882,-18.591608
0.82171184,1.0525215,-4.1008687,-3.8705819,-61.029903,-18.460659
1.4363719,0.8458305,-3.6442988,-3.8533452,-63.66028,-18.19956
2.0881,0.5739352,-3.1342616,-3.133309,-63.758118,-18.052382
2.6871576,0.3176816,-2.6156874,-2.1581364,-62.00886,-17.254997
3.186585,0.09600191,-2.1075196,-1.2454981,-58.915375,-15.60567
3.575388,-0.10266651,-1.6513903,-0.161023,-54.717155,-13.557813
3.866294,-0.28024736,-1.2715423,1.4920547,-49.303207,-11.558546
4.069214,-0.42129365,-0.9979367,3.4494448,-43.216724,-9.509503
4.2131486,-0.5408871,-0.81727636,5.6178694,-36.72814,-7.322492
4.2991037,-0.6435929,-0.72160107,7.914028,-30.058596,-4.98655
4.319564,-0.7317955,-0.69988334,10.335386,-23.398214,-2.538667
4.2800856,-0.79970735,-0.7410644,12.978495,-16.996712,-0.05981239
4.1872325,-0.8284477,-0.84855264,15.65003,-10.861145,2.3683443
4.0536065,-0.8257893,-0.9919878,18.294222,-5.075298,4.6614537
3.8799102,-0.8047541,-1.1628337,20.936012,0.27233553,6.905306
3.6631446,-0.7521673,-1.3525716,23.55621,4.914143,9.003979
3.4143193,-0.6771375,-1.5437198,25.987686,8.5846615,10.87491
3.139924,-0.57021993,-1.7346816,28.174969,11.367742,12.538145
2.8539612,-0.44840464,-1.9186178,30.132812,13.322399,13.958354
2.5701056,-0.30716473,-2.084633,31.997883,14.610266,14.967084
2.2998142,-0.1223296,-2.218913,33.78916,15.4082575,15.302863
2.043643,0.12133065,-2.3199942,35.22018,15.529645,14.620279
1.818898,0.4230487,-2.3832169,36.098053,15.05201,13.458289
1.6392018,0.76947445,-2.4182556,36.255962,14.172002,12.034544
1.4876746,1.1536307,-2.4291134,35.585003,13.042455,10.406162
1.3432261,1.5553426,-2.4268947,34.059116,11.675603,8.535564
1.1968513,1.9589335,-2.417351,31.43496,9.842005,6.046822
1.0682188,2.3459206,-2.3988955,28.090397,7.765431,3.195652
0.96881455,2.704953,-2.3814805,24.001175,5.6175494,0.25981042
0.8889276,3.013743,-2.3773036,19.222609,3.473763,-2.6137075
0.8170702,3.2591953,-2.3926992,13.850347,1.3107349,-5.454048
0.74630016,3.4161503,-2.436372,7.9863644,-1.0880913,-8.539153
0.6933145,3.43738,-2.5146291,2.1553817,-3.7861323,-11.722817
0.68054074,3.3485553,-2.5998383,-3.5192132,-6.884985,-14.506922
0.73359036,3.147865,-2.679019,-9.22492,-10.388922,-16.104956
0.86982065,2.8077025,-2.754004,-14.552694,-13.886239,-16.605425
1.0798173,2.3357265,-2.821511,-18.082191,-16.20881,-17.01714
1.3287302,1.797738,-2.8550277,-19.841192,-17.377537,-17.963297
1.5754273,1.3178508,-2.8337693,-20.550995,-17.626873,-19.015226
1.7922517,0.91348237,-2.762354,-20.936033,-17.13375,-19.39101
1.9410129,0.5727614,-2.6660767,-21.131039,-16.054,-18.840918
1.9968141,0.30518973,-2.5592306,-20.95289,-14.41981,-17.882051
1.9582865,0.11348665,-2.4488504,-20.446043,-12.638699,-16.867596
1.8687204,-0.016452122,-2.3424315,-19.733685,-10.997953,-15.75725
1.7593684,-0.097801566,-2.2429738,-18.98847,-9.573263,-14.672457
1.646277,-0.14127605,-2.1493459,-18.253405,-8.390167,-13.681084
1.5351275,-0.1561487,-2.0549202,-17.636944,-7.5344257,-12.747719
1.4407965,-0.1467676,-1.9580952,-17.110489,-6.8620896,-11.851401
1.3697473,-0.12871413,-1.8620702,-16.67883,-6.2318983,-10.9699745
1.3112746,-0.10569949,-1.7734101,-16.20546,-5.644441,-10.04191
1.2647918,-0.08506409,-1.6875387,-15.889965,-5.1745944,-9.062987
1.2448761,-0.0819707,-1.60496,-15.555784,-4.557516,-7.703151
1.2233381,-0.1001729,-1.5160153,-14.906258,-3.7444987,-6.5175343
1.2129332,-0.13125697,-1.4252436,-13.760809,-2.9227037,-5.563452
1.2376528,-0.18180744,-1.3337314,-11.670315,-2.0714576,-4.3859553
1.1990331,-0.17613435,-1.2921138,-11.306155,-2.0068202,-4.2490964
1.1616243,-0.1706391,-1.2518009,-10.953413,-1.944209,-4.116528
1.1253878,-0.16531606,-1.2127513,-10.611724,-1.88356,-3.988114
1.0902864,-0.16015977,-1.1749249,-10.280739,-1.8248106,-3.8637226
1.056284,-0.15516491,-1.1382829,-9.960116,-1.767901,-3.743226
1.023346,-0.15032642,-1.1027879,-9.64953,-1.7127725,-3.626501
0.99143845,-0.14563932,-1.0684035,-9.348663,-1.6593691,-3.5134287
0.9605291,-0.14109881,-1.0350946,-9.057206,-1.6076362,-3.403893
0.93058634,-0.13670032,-1.0028274,-8.774864,-1.557521,-3.2977827
0.90157956,-0.13243932,-0.9715689,-8.5013485,-1.5089724,-3.1949894
0.8734794,-0.12831149,-0.94128734,-8.236381,-1.4619412,-3.095409
0.84625727,-0.124312624,-0.9119519,-7.9796925,-1.4163796,-2.99894
0.8198855,-0.120438695,-0.88353294,-7.7310224,-1.3722411,-2.9054844
0.79433733,-0.11668575,-0.8560015,-7.490119,-1.3294812,-2.8149478
0.7695869,-0.11304999,-0.8293297,-7.2567377,-1.2880565,-2.7272382
0.7456092,-0.10952774,-0.80349064,-7.0306425,-1.247925,-2.6422668
0.72238,-0.10611543,-0.77845806,-6.8116045,-1.2090462,-2.5599475
0.6998756,-0.10280961,-0.7542067,-6.5994024,-1.1713808,-2.4801974
0.6780735,-0.099606946,-0.7307121,-6.3938217,-1.1348907,-2.4029355
0.65695155,-0.0965042,-0.7079505,-6.1946545,-1.0995389,-2.3280845
0.6364885,-0.09349824,-0.6858989,-6.0017004,-1.0652899,-2.255568
0.6166637,-0.09058603,-0.6645351,-5.8147645,-1.0321091,-2.1853135
0.5974572,-0.08776464,-0.6438376,-5.6336584,-0.99996316,-2.11725
0.5788495,-0.08503124,-0.6237854,-5.4581995,-0.96881956,-2.0513089
0.560822,-0.08238306,-0.60435843,-5.2882113,-0.93864703,-1.9874235
0.5433566,-0.07981744,-0.5855372,-5.1235228,-0.9094151,-1.9255301
0.52643555,-0.07733179,-0.5673026,-4.963968,-0.88109446,-1.8655659
0.510042,-0.07492363,-0.54963636,-4.8093867,-0.85365653,-1.8074709
0.49415937,-0.072590515,-0.5325208,-4.659623,-0.8270738,-1.7511865
0.47877172,-0.07033011,-0.5159386,-4.514527,-0.80131954,-1.6966562
0.46386358,-0.06814016,-0.49987316,-4.373952,-0.7763678,-1.6438253
0.44942,-0.06601843,-0.48430833,-4.2377577,-0.75219357,-1.5926405
0.43542644,-0.063962825,-0.46922845,-4.1058073,-0.7287726,-1.5430506
0.4218689,-0.06197126,-0.45461842,-3.9779675,-0.70608133,-1.4950057
0.4087337,-0.06004174,-0.44046354,-3.8541107,-0.684097,-1.4484576
0.39600772,-0.058172334,-0.42674965,-3.7341123,-0.6627975,-1.4033597
0.38367814,-0.056361157,-0.41346297,-3.617852,-0.64216155,-1.3596666
0.37173265,-0.0546064,-0.40059012,-3.5052133,-0.6221684,-1.3173345
0.36015925,-0.0529063,-0.38811827,-3.396083,-0.602798,-1.276321
0.3489463,-0.051259156,-0.3760349,-3.2903519,-0.5840309,-1.236585
0.3380826,-0.04966331,-0.36432785,-3.1879137,-0.56584835,-1.1980865
0.32755724,-0.04811717,-0.3529854,-3.088666,-0.5482321,-1.1607871
0.3173597,-0.046619177,-0.34199622,-2.9925094,-0.53116447,-1.1246493
0.3074797,-0.045167837,-0.33134925,-2.899347,-0.51462835,-1.0896369
0.2979074,-0.043761697,-0.32103387,-2.809086,-0.4986072,-1.055715
0.2886332,-0.04239934,-0.3110397,-2.7216358,-0.48308495,-1.0228492
0.27964777,-0.04107941,-0.30135673,-2.6369088,-0.46804607,-0.991007
0.27094215,-0.03980058,-0.2919753,-2.55482,-0.45347548,-0.96015626
0.2625076,-0.03856157,-0.28288597,-2.4752872,-0.4393586,-0.9302662
0.25433567,-0.03736114,-0.27407968,-2.398231,-0.42568126,-0.9013068
0.24641821,-0.03619809,-0.26554757,-2.3235743,-0.4124298,-0.8732492
0.23874727,-0.03507125,-0.25728112,-2.251242,-0.39959094,-0.8460651
0.23131515,-0.033979498,-0.24927208,-2.1811616,-0.38715184,-0.8197274
0.22411445,-0.032921735,-0.24151237,-2.1132631,-0.37510002,-0.7942098
0.21713793,-0.031896904,-0.23399428,-2.047479,-0.36342344,-0.7694866
0.21037862,-0.030903982,-0.22671025,-1.9837427,-0.3521104,-0.74553317
0.20382975,-0.029941974,-0.219653,-1.9219909,-0.34114957,-0.7223255
0.19748478,-0.029009914,-0.21281545,-1.8621615,-0.33053,-0.69984037
0.19133733,-0.028106874,-0.20619078,-1.8041949,-0.320241,-0.6780552
0.18538126,-0.027231947,-0.19977236,-1.7480328,-0.31027237,-0.6569483
0.17961064,-0.026384259,-0.19355375,-1.6936193,-0.30061406,-0.6364986
0.17401965,-0.02556296,-0.18752874,-1.6408997,-0.29125643,-0.6166854
0.16860272,-0.02476723,-0.1816913,-1.5898213,-0.28219014,-0.59748906
0.16335443,-0.023996271,-0.17603558,-1.5403332,-0.27340606,-0.5788903
0.15826952,-0.023249313,-0.17055593,-1.4923855,-0.26489547,-0.5608706
0.1533429,-0.022525609,-0.16524687,-1.4459306,-0.2566498,-0.5434118
0.14856966,-0.021824434,-0.16010308,-1.4009217,-0.24866083,-0.5264965
0.14394501,-0.021145087,-0.15511942,-1.3573141,-0.24092056,-0.5101078
0.13946432,-0.020486888,-0.15029089,-1.315064,-0.23342124,-0.4942293
0.13512312,-0.019849177,-0.14561269,-1.274129,-0.22615537,-0.47884506
0.13091706,-0.01923132,-0.1410801,-1.2344683,-0.21911567,-0.46393976
0.12684192,-0.018632693,-0.13668862,-1.1960423,-0.21229513,-0.44949841
0.12289365,-0.018052705,-0.13243383,-1.1588124,-0.20568691,-0.43550664
0.11906827,-0.017490769,-0.1283115,-1.1227416,-0.19928439,-0.4219504
0.11536198,-0.016946325,-0.1243175,-1.0877935,-0.19308119,-0.4088162
