ax,ay,az,gx,gy,gz
-6.1118736,-4.06731,-11.445559,29.019354,-79.290726,27.465704
-6.4602313,-4.124338,-12.209545,40.17328,-101.24407,32.845634
-6.585545,-3.8925188,-12.423628,42.713917,-122.05755,23.631323
-6.0967755,-4.074774,-12.508912,43.015297,-135.85208,16.307089
-5.392431,-4.628464,-12.539118,46.510548,-143.71834,15.570324
-4.8080144,-5.2301087,-12.620354,53.95452,-149.42851,18.37731
-4.276068,-5.787443,-12.706082,64.28633,-155.38501,20.49334
-3.6305149,-6.093886,-12.667367,79.064445,-162.83397,20.257423
-2.7295935,-5.778883,-12.128696,92.627716,-169.77904,19.173933
-1.593065,-5.0326934,-11.162179,102.7712,-174.2641,19.670458
-0.3589338,-3.9839346,-9.84782,109.29653,-175.94276,22.088388
0.83660793,-2.5428562,-8.143985,111.022736,-174.51436,25.427998
1.9219322,-1.037022,-6.283885,107.7591,-169.32172,29.613405
2.865755,0.36391702,-4.4129243,102.001595,-161.88876,33.237
3.6888745,1.5682126,-2.714623,95.265236,-152.33392,35.20218
4.413329,2.6122198,-1.2048111,88.24695,-140.83229,35.456314
5.0262985,3.5103595,0.089380525,80.74616,-127.71781,34.416607
5.5037045,4.2103376,1.115365,72.20068,-113.09789,32.769367
5.8174243,4.6233993,1.7871232,63.192898,-98.49225,31.27727
6.0182314,4.800889,2.1895587,53.95754,-84.08024,29.76394
6.137349,4.7643013,2.3578262,45.167774,-69.78863,27.931746
6.1861115,4.577881,2.3310578,37.88902,-55.654415,25.646069
6.1424,4.3233852,2.1610522,32.80592,-42.543697,22.99319
6.0151205,4.0457444,1.8901534,28.398716,-30.772104,20.614138
5.858419,3.781027,1.5652405,24.201538,-20.17232,18.821821
5.6684456,3.5193083,1.1902593,20.273489,-10.469924,17.567282
5.440588,3.2670975,0.7753227,16.815742,-1.4844481,16.528944
5.170875,3.0429037,0.33062574,14.314029,6.627093,15.116795
4.840408,2.8683698,-0.14151074,12.501684,13.556716,13.380252
4.4771814,2.7370148,-0.60890085,10.902452,19.038042,11.491519
4.0921807,2.6302052,-1.0700186,9.313427,23.027042,9.658183
3.694356,2.5434477,-1.5247185,7.7597775,25.557007,7.8496265
3.2952557,2.4694314,-1.9683188,6.306076,26.35398,6.0063696
2.9010453,2.4181495,-2.3957245,4.927199,26.017782,4.1174326
2.5137403,2.3800075,-2.804048,3.5483098,24.578365,2.198764
2.131272,2.3445714,-3.1952589,2.287698,22.196444,0.33047572
1.7487643,2.321062,-3.5619748,1.1231211,18.764502,-1.6188308
1.3650799,2.315155,-3.9057934,-0.12778234,13.820643,-3.7503583
0.9857488,2.3100498,-4.2326922,-1.503423,7.851699,-5.9732485
0.62426907,2.2953851,-4.5472054,-2.8767803,0.9071442,-8.33034
0.29724988,2.2943935,-4.840283,-4.063175,-6.935186,-11.003138
0.025840597,2.3124943,-5.103853,-5.215741,-15.619129,-13.824677
-0.17858769,2.3299723,-5.3339663,-6.7817736,-25.53593,-16.291338
-0.293478,2.3009455,-5.514094,-8.415473,-35.861774,-18.758564
-0.31670192,2.2319608,-5.6363134,-8.964761,-46.27071,-22.133158
-0.18980563,2.1610374,-5.65677,-8.332981,-56.463875,-26.96127
0.1545189,2.1029804,-5.517679,-7.274308,-66.37351,-32.515053
0.75629103,2.0471098,-5.1798906,-7.1797385,-74.84863,-36.289974
1.6196531,1.894602,-4.622997,-7.9879208,-80.87441,-37.11908
2.526984,1.646536,-4.0077653,-8.958712,-84.11703,-36.15236
3.4518878,1.3038825,-3.3964999,-9.582912,-84.43369,-34.59337
4.3269143,0.9135629,-2.8048897,-9.595199,-81.436066,-32.385597
5.0144367,0.5262548,-2.281002,-8.883152,-75.135,-29.015928
5.3959785,0.18167809,-1.8957202,-7.6456747,-67.68011,-25.190222
5.595143,-0.11808335,-1.6316028,-5.5139875,-59.620872,-21.37941
5.6707444,-0.3722243,-1.4759153,-2.6812806,-51.35878,-17.87808
5.669799,-0.5969415,-1.4185697,0.6984425,-43.082848,-14.470314
5.6128793,-0.79112256,-1.446113,4.602134,-34.881905,-10.737606
5.4706073,-0.93738,-1.5692734,8.8066635,-27.114304,-6.8455033
5.2666817,-1.0432292,-1.7483823,13.422437,-20.087917,-2.9525156
5.0276875,-1.1088035,-1.9600245,18.182734,-14.001226,0.80320007
4.7779775,-1.1287019,-2.1811693,22.926682,-8.855291,4.4590616
4.5228906,-1.0911579,-2.3960152,27.545156,-4.7029114,8.139714
4.2520776,-0.9839096,-2.6080503,32.039497,-1.5048045,11.953014
3.957777,-0.8340125,-2.8161843,36.395237,0.56431764,15.904434
3.650468,-0.65266,-3.0064569,40.694412,1.445734,19.85814
3.348689,-0.39282563,-3.1591508,44.65008,1.2800864,23.360727
3.0566552,0.0033745735,-3.2373316,46.83588,0.30970737,24.372667
2.7881706,0.46111774,-3.2312849,47.749386,-0.9029048,23.46758
2.5666788,0.9247493,-3.1904924,47.89277,-2.0671618,21.30241
2.3999443,1.3988515,-3.1265426,47.19574,-3.0935116,18.618624
2.2697747,1.8826264,-3.046146,45.534042,-3.9324863,16.07435
2.1413362,2.3727329,-2.9585314,42.308956,-4.846452,13.829316
1.9993674,2.8464108,-2.882144,37.835056,-6.0032573,11.3504305
1.8612986,3.2637687,-2.82404,32.25895,-7.2265024,8.293583
1.7442347,3.5797818,-2.7963178,25.98649,-8.342095,4.8172154
1.6490092,3.7909312,-2.798837,19.469099,-9.199402,1.1262457
1.5649037,3.8924408,-2.8255928,12.996028,-9.716558,-2.9824731
1.4539288,3.8303273,-2.8768504,6.8755136,-10.49427,-7.192869
1.3186114,3.629765,-2.9430647,1.337955,-12.091582,-11.476723
1.2176862,3.3094757,-3.0318396,-3.1632433,-15.008291,-16.110657
1.2729126,2.8946755,-3.1130955,-6.6144266,-18.931993,-21.319689
1.5534943,2.4129922,-3.144614,-8.672024,-22.556744,-26.054026
1.9785223,1.922086,-3.0639558,-9.65239,-23.933365,-27.694874
2.3126779,1.4578681,-2.944691,-10.440271,-23.806547,-26.688593
2.500309,1.060493,-2.8226137,-11.287304,-23.014912,-24.528124
2.5697522,0.7220628,-2.7051864,-11.555596,-21.673903,-22.545807
2.5469239,0.46782106,-2.588522,-10.622592,-19.768723,-21.147415
2.457475,0.3581838,-2.4628098,-9.633154,-17.73471,-19.824163
2.3297832,0.33016056,-2.343475,-9.06346,-15.763435,-18.219702
2.1578708,0.3328496,-2.242777,-8.680104,-14.030634,-16.42333
1.9479449,0.34835482,-2.1554492,-8.354779,-12.752247,-14.913291
1.7334299,0.37069374,-2.0744865,-7.972894,-12.081768,-14.157982
1.5478561,0.4047488,-1.9916106,-7.713864,-11.673136,-13.846723
1.3963009,0.42665383,-1.9170474,-7.606197,-11.418718,-13.722887
1.2813977,0.43022966,-1.8535008,-7.5420203,-11.136058,-13.637299
1.1921288,0.42472017,-1.7988371,-7.3367767,-10.934846,-13.6021185
1.154869,0.41144562,-1.7426147,-7.1074667,-10.59308,-13.176987
1.1187829,0.3985892,-1.6881634,-6.8853803,-10.262078,-12.765245
1.0838325,0.38613743,-1.6354258,-6.670284,-9.941495,-12.366465
1.0499816,0.37407735,-1.5843471,-6.461953,-9.630996,-11.980227
1.0171947,0.36239633,-1.5348741,-6.260171,-9.330256,-11.606131
0.9854378,0.3510823,-1.4869553,-6.0647283,-9.038965,-11.243787
0.95467806,0.3401235,-1.4405409,-5.875422,-8.756821,-10.89282
0.92488354,0.3295086,-1.3955832,-5.692056,-8.483529,-10.552866
0.8960236,0.31922665,-1.3520355,-5.514442,-8.21881,-10.223576
0.8680684,0.30926704,-1.3098532,-5.342396,-7.96239,-9.904609
0.84098923,0.29961956,-1.2689927,-5.175741,-7.7140055,-9.595637
0.8147583,0.29027426,-1.2294121,-5.014307,-7.4734015,-9.296344
0.7893488,0.28122157,-1.1910708,-4.857928,-7.240331,-9.006422
0.7647345,0.27245227,-1.1539297,-4.7064433,-7.0145564,-8.725575
0.74089044,0.26395732,-1.1179508,-4.5596986,-6.7958455,-8.453516
0.7177923,0.25572813,-1.0830972,-4.417544,-6.5839767,-8.189967
0.69541633,0.24775624,-1.0493336,-4.2798347,-6.3787327,-7.9346595
0.67373997,0.2400336,-1.0166254,-4.146431,-6.179905,-7.687333
0.652741,0.23255229,-0.9849396,-4.017196,-5.987292,-7.4477363
0.63239825,0.22530475,-0.9542437,-3.8919995,-5.8006964,-7.2156262
0.6126909,0.21828362,-0.9245068,-3.7707136,-5.6199303,-6.990767
0.5935991,0.21148176,-0.89569855,-3.653216,-5.44481,-6.77293
0.5751034,0.20489231,-0.8677899,-3.539387,-5.2751575,-6.5618954
0.5571851,0.19850856,-0.84075254,-3.4291117,-5.1108017,-6.357449
0.53982615,0.19232407,-0.8145591,-3.3222785,-4.9515758,-6.1593843
0.52300894,0.18633258,-0.7891831,-3.2187796,-4.797319,-5.9675007
0.50671643,0.18052806,-0.7645989,-3.1185098,-4.647876,-5.781605
0.4909323,0.17490463,-0.7407817,-3.0213685,-4.5030947,-5.601508
0.47564048,0.16945662,-0.71770746,-2.9272575,-4.36283,-5.4270296
0.46082562,0.16417852,-0.6953529,-2.8360817,-4.2269406,-5.257993
0.4464728,0.15906504,-0.67369556,-2.7477493,-4.0952888,-5.0942283
0.4325675,0.154111,-0.6527135,-2.6621714,-3.967742,-4.93557
0.41909578,0.14931142,-0.6323856,-2.5792618,-3.844172,-4.781858
0.40604407,0.14466147,-0.61269146,-2.498937,-3.7244544,-4.632939
0.3933992,0.14015648,-0.59361124,-2.4211159,-3.608469,-4.4886613
0.38114846,0.13579191,-0.5751258,-2.3457208,-3.4960988,-4.3488812
0.36927956,0.13156337,-0.55721647,-2.2726753,-3.3872306,-4.213458
0.35778055,0.12746662,-0.53986526,-2.2019064,-3.2817554,-4.082255
0.34663987,0.123497516,-0.5230548,-2.1333427,-3.1795673,-3.9551404
0.33584633,0.11965211,-0.5067681,-2.0669155,-3.0805633,-3.831987
0.32538912,0.115926504,-0.49098894,-2.0025582,-2.984644,-3.7126706
0.31525773,0.11231699,-0.47570136,-1.940206,-2.8917134,-3.597072
0.30544195,0.10881992,-0.46089005,-1.8797963,-2.8016777,-3.4850745
0.29593197,0.105431795,-0.44654018,-1.8212686,-2.714447,-3.3765662
0.28671822,0.10214921,-0.4326373,-1.764564,-2.6299338,-3.271438
0.2777915,0.09896888,-0.41916752,-1.7096258,-2.548053,-3.1695845
0.2691428,0.09588762,-0.4061173,-1.6563988,-2.4687226,-3.0709035
0.26076353,0.09290232,-0.3934735,-1.6048297,-2.3918633,-2.9752963
0.2526452,0.09001,-0.38122356,-1.5548668,-2.3173976,-2.8826668
0.24477974,0.087207764,-0.3693551,-1.5064598,-2.2452512,-2.7929223
0.23715921,0.0844928,-0.3578563,-1.4595605,-2.1753519,-2.7059724
0.22977602,0.08186239,-0.3467156,-1.4141217,-2.107629,-2.6217308
0.22262275,0.07931389,-0.33592182,-1.3700981,-2.0420156,-2.5401123
0.21569224,0.07684475,-0.32546416,-1.3274453,-1.978445,-2.4610355
0.20897754,0.074452505,-0.31533214,-1.2861207,-1.9168543,-2.384421
0.20247193,0.07213475,-0.30551565,-1.2460829,-1.8571813,-2.3101926
0.19616888,0.06988916,-0.29600483,-1.2072917,-1.7993665,-2.2382753
0.1900621,0.0677135,-0.28679013,-1.1697085,-1.7433518,-2.1685972
0.18414547,0.06560557,-0.27786234,-1.1332955,-1.6890813,-2.101089
0.17841306,0.06356329,-0.26921254,-1.0980163,-1.6365005,-2.0356824
0.17285913,0.06158459,-0.26083207,-1.0638354,-1.5855569,-1.9723125
0.16747813,0.059667494,-0.25271252,-1.0307188,-1.5361995,-1.9109155
0.16226466,0.05781009,-0.24484576,-0.9986333,-1.4883786,-1.85143
0.15721351,0.056010514,-0.23722394,-0.96754676,-1.4420468,-1.7937967
0.15231961,0.054266963,-0.2298394,-0.93742806,-1.3971573,-1.7379577
0.14757808,0.052577697,-0.22268477,-0.908247,-1.3536655,-1.6838571
0.14298417,0.050941024,-0.21575288,-0.8799744,-1.3115276,-1.6314409
0.13853328,0.049355302,-0.20903681,-0.8525821,-1.2707016,-1.5806564
0.13422094,0.047818948,-0.20252982,-0.82604253,-1.2311467,-1.531453
0.13004287,0.046330422,-0.19622539,-0.8003292,-1.192823,-1.4837813
0.12599486,0.044888236,-0.19011724,-0.7754163,-1.1556926,-1.4375938
0.12207287,0.043490946,-0.18419923,-0.75127906,-1.119718,-1.3928442
0.118272975,0.042137157,-0.17846547,-0.7278932,-1.0848633,-1.3494877
0.114591375,0.040825512,-0.1729102,-0.7052353,-1.0510937,-1.3074808
0.11102439,0.0395547,-0.16752787,-0.6832828,-1.0183754,-1.2667817
0.107568435,0.038323447,-0.16231307,-0.6620137,-0.98667556,-1.2273495
0.10422007,0.037130523,-0.15726064,-0.64140666,-0.95596254,-1.1891448
0.10097594,0.035974737,-0.15236548,-0.6214412,-0.9262056,-1.1521294
0.09783279,0.034854926,-0.14762269,-0.60209715,-0.897375,-1.1162664
0.09478749,0.033769976,-0.14302756,-0.5833553,-0.86944187,-1.0815197
0.091837,0.0327188,-0.13857546,-0.56519693,-0.84237826,-1.0478547
0.088978335,0.031700347,-0.13426195,-0.5476037,-0.81615716,-1.0152376
0.08620867,0.030713595,-0.13008273,-0.5305582,-0.7907523,-0.9836358
