ax,ay,az,gx,gy,gz
-3.5063956,0.27363884,-4.537314,-21.972927,-77.293434,-49.716816
-3.1488569,0.17279993,-4.358966,-9.991247,-85.570885,-52.579517
-2.2501788,0.03034841,-4.0235305,-5.7366877,-83.48036,-44.365116
-1.6968697,0.04642042,-3.928905,-7.171337,-79.34523,-32.054935
-1.8454683,0.07692019,-4.204563,-7.8878927,-78.2373,-25.850605
-2.1149738,-0.06489145,-4.708552,-4.8048334,-80.1379,-26.16841
-2.2788284,-0.3008351,-5.2760997,1.0990559,-82.96063,-28.27886
-2.4139407,-0.5799593,-5.8542747,7.733568,-87.76802,-29.38084
-2.5756147,-0.9306182,-6.435033,17.054008,-94.79471,-28.952854
-2.6559281,-1.1560967,-6.9484572,27.671263,-102.51632,-29.466705
-2.5461497,-1.2049639,-7.2296395,38.377842,-110.32362,-30.606556
-2.2950866,-1.1304445,-7.2680087,47.94921,-117.56681,-31.114208
-2.0374248,-1.0325257,-7.176378,55.965836,-123.80922,-30.533066
-1.8259122,-0.9586144,-7.065091,63.466995,-130.02945,-28.900673
-1.4830476,-0.7788642,-6.787536,70.58294,-135.43858,-28.130404
-0.95487905,-0.49147642,-6.293788,76.92233,-138.99086,-28.10228
-0.3157644,-0.12496177,-5.6380205,81.058044,-140.52675,-27.774626
0.29498482,0.23095065,-4.932256,82.82027,-140.19948,-26.248953
0.8000691,0.57299995,-4.246406,82.20725,-138.84515,-23.572235
1.2218095,0.9433093,-3.5749397,80.36216,-137.41222,-20.772697
1.6097318,1.3101945,-2.9647295,77.49357,-135.41698,-18.301931
1.9590472,1.6700723,-2.4423742,74.073906,-132.48816,-16.60784
2.2654414,2.0246427,-2.0086076,70.294365,-128.82802,-15.847107
2.5454304,2.388942,-1.6431751,65.690186,-124.15537,-15.577473
2.769437,2.7827451,-1.3573996,60.240837,-119.17772,-15.371476
2.8980374,3.148774,-1.1684424,54.2524,-114.35084,-15.278969
2.9491866,3.4842362,-1.058106,48.26436,-109.658165,-15.852436
2.962819,3.798135,-0.99931484,42.79161,-104.833,-17.488758
2.9788465,4.1225295,-0.939787,37.72641,-98.82292,-21.135592
2.9704545,4.472802,-0.8811321,32.597443,-92.14579,-25.944145
2.933038,4.795101,-0.8664243,26.833958,-85.49345,-30.825094
2.846206,5.0684466,-0.911572,20.516895,-79.6729,-35.62555
2.7022433,5.276576,-0.99631286,13.613536,-74.89659,-40.9562
2.5523791,5.37601,-1.1137253,6.292476,-71.62306,-47.452183
2.5195875,5.296203,-1.2501639,-0.8518546,-69.52421,-54.182777
2.6311212,5.058832,-1.3676133,-7.7402997,-68.46246,-60.367947
2.8897839,4.620629,-1.4382423,-13.892851,-67.74291,-65.64269
3.2985988,4.01216,-1.4213413,-19.021349,-66.82163,-69.33449
3.7904654,3.3033478,-1.2996776,-23.305286,-65.0876,-70.56377
4.327965,2.4739144,-1.0776988,-26.506058,-62.212162,-70.391655
4.8400226,1.6153005,-0.821772,-28.229118,-57.716755,-69.0408
5.289163,0.8002278,-0.56246835,-28.580507,-51.755856,-66.54454
5.6363997,0.08635443,-0.3216044,-27.878893,-44.37437,-62.99319
5.871181,-0.49357453,-0.12459774,-26.501656,-35.713844,-58.65739
5.993293,-0.9244859,-0.01757897,-24.617008,-26.803102,-53.7353
6.0166693,-1.2342297,0.030430762,-22.584417,-18.053802,-48.442635
5.9852366,-1.4463223,0.022097548,-20.77473,-9.675958,-42.74472
5.930455,-1.5743108,-0.026094263,-19.182978,-1.6991049,-36.80513
5.8618755,-1.6258509,-0.10611056,-17.854729,5.846088,-30.645466
5.7617598,-1.5988002,-0.23992796,-16.68649,13.058289,-24.364738
5.631817,-1.5033923,-0.40596983,-15.959009,19.903065,-18.303988
5.470424,-1.3647691,-0.6102614,-15.529922,26.109674,-12.49686
5.26833,-1.1799349,-0.8464413,-15.390383,31.164825,-6.826866
5.0138264,-0.964162,-1.1092352,-15.623542,34.482952,-1.6582807
4.7358246,-0.74833,-1.3927007,-15.888478,36.858803,2.7337263
4.446111,-0.5442385,-1.6851689,-15.5595045,38.9075,6.025426
4.123029,-0.33894014,-1.9792389,-14.313276,40.75908,8.099264
3.756267,-0.09950359,-2.2659607,-12.8520565,41.62762,9.294055
3.3878117,0.16542998,-2.5444696,-12.157011,40.265675,9.564688
3.0650213,0.38870254,-2.8356552,-11.782879,37.584324,9.229296
2.7752137,0.5655458,-3.1405127,-11.293083,34.034,8.360515
2.5093524,0.70441633,-3.448046,-10.306315,29.96529,6.9783545
2.2817886,0.8311872,-3.73545,-8.878455,25.862486,5.395721
2.0684378,0.9591571,-4.000577,-6.937069,22.003748,3.6256697
1.8474506,1.0951849,-4.254285,-4.718682,18.002562,1.6945153
1.6261724,1.2368764,-4.4996533,-2.3918104,13.632337,-0.5293768
1.4303535,1.3803272,-4.728423,-0.25934178,8.802146,-2.8205411
1.278354,1.514806,-4.941628,1.3110005,3.7953603,-4.8703327
1.1629539,1.6028949,-5.167244,2.5576031,-1.4563956,-6.2820077
1.0747561,1.6349446,-5.405463,3.838416,-6.6472487,-7.4401712
0.9844663,1.6380347,-5.636032,5.3252883,-12.044083,-8.662718
0.89214885,1.6378429,-5.8285217,6.8074636,-18.414585,-10.128059
0.8232375,1.634609,-5.9508224,7.78713,-25.983532,-11.391843
0.80987775,1.6220621,-5.978801,7.532419,-34.90404,-11.6422415
0.9004836,1.5512892,-5.887033,6.5300508,-43.945484,-11.058802
1.0444525,1.4520733,-5.7202635,5.4426675,-52.29127,-10.815079
1.2525774,1.3402246,-5.482716,4.801727,-59.668255,-11.362675
1.5571445,1.2360888,-5.1776342,4.5132256,-66.24813,-12.407162
1.9839493,1.1288314,-4.815713,4.4208894,-71.44162,-12.78026
2.4575696,1.0407466,-4.4013767,4.377731,-75.05841,-12.475468
2.870532,0.9773693,-3.9862423,4.045597,-77.19513,-11.699803
3.218814,0.9137674,-3.5924783,3.6261969,-78.20624,-11.020211
3.5139012,0.849788,-3.2345593,3.4468453,-78.297775,-10.663937
3.7652206,0.799305,-2.9082766,3.4382677,-77.875946,-10.301834
3.9649127,0.7756998,-2.61183,3.5584366,-76.8559,-9.77488
4.114478,0.76757634,-2.342729,3.6230147,-75.157425,-9.1268
4.1992,0.7663029,-2.107451,3.5131385,-73.04579,-8.424681
4.225826,0.75518906,-1.9095658,3.2995477,-70.62238,-7.718152
4.208555,0.74320614,-1.7470747,2.997064,-67.68478,-7.4015408
4.16109,0.73072654,-1.6282958,2.6602256,-64.58995,-7.0681973
4.094143,0.71698284,-1.5408546,2.3072953,-61.5532,-6.6670566
4.0083375,0.69227654,-1.4738783,2.0018795,-58.605095,-6.129548
3.9218066,0.66685015,-1.4160662,1.664097,-55.729355,-5.3492193
3.8486524,0.6465778,-1.3584245,1.165115,-52.631363,-4.3147373
3.7857559,0.62156564,-1.3092053,0.5978811,-49.3449,-3.1334875
3.7367914,0.58176976,-1.2658557,-0.10032825,-45.86825,-1.7662231
3.7038777,0.5236274,-1.2237487,-0.7669434,-42.08152,-0.27990064
3.6705327,0.46225458,-1.1823751,-0.9852289,-38.414158,0.88677645
3.6488307,0.41850087,-1.1346493,-0.63213104,-34.98436,2.1120706
3.5348427,0.4054271,-1.0992033,-0.61238354,-33.891464,2.0460904
3.4244401,0.39276454,-1.0648723,-0.5932572,-32.832943,1.9821855
3.317508,0.3805,-1.0316204,-0.57473207,-31.807697,1.9202895
3.2139354,0.36862078,-0.9994132,-0.55678886,-30.81466,1.860338
3.1136146,0.35711452,-0.96821713,-0.5394091,-29.8528,1.8022687
3.0164418,0.34596935,-0.93800014,-0.5225747,-28.921125,1.7460219
2.922317,0.33517376,-0.90873086,-0.5062683,-28.018675,1.6915392
2.8311431,0.32471663,-0.8803792,-0.49047318,-27.144514,1.6387645
2.7428265,0.31458718,-0.852916,-0.47517303,-26.297749,1.5876437
2.6572762,0.30477503,-0.8263131,-0.4603521,-25.477509,1.5381242
2.5744047,0.29527012,-0.8005432,-0.44599527,-24.68295,1.4901553
2.4941273,0.28606272,-0.77557987,-0.4320878,-23.913263,1.4436879
2.4163616,0.27714342,-0.75139767,-0.41861552,-23.167658,1.3986744
2.3410285,0.26850313,-0.7279719,-0.40556467,-22.445377,1.3550689
2.268051,0.26013303,-0.70527864,-0.3929219,-21.745682,1.312827
2.1973548,0.25202456,-0.68329483,-0.38067436,-21.067862,1.2719058
2.1288683,0.24416955,-0.6619981,-0.3688096,-20.411224,1.2322633
2.0625217,0.23655996,-0.6413668,-0.3573156,-19.775105,1.1938596
1.9982477,0.22918807,-0.62138,-0.34618062,-19.158855,1.1566556
1.9359812,0.22204643,-0.6020174,-0.33539343,-18.561853,1.1206135
1.8756588,0.21512778,-0.5832594,-0.32494307,-17.983494,1.0856968
1.8172196,0.20842513,-0.565087,-0.31481895,-17.42319,1.0518701
1.7606046,0.2019317,-0.5474819,-0.30501083,-16.880373,1.0190994
1.7057564,0.1956409,-0.53042614,-0.2955088,-16.3545,0.98735136
1.6526196,0.18954642,-0.5139026,-0.28630328,-15.845033,0.95659393
1.6011406,0.18364206,-0.49789461,-0.27738497,-15.351461,0.92679614
1.5512675,0.17792189,-0.48238593,-0.26874486,-14.873286,0.8979278
1.50295,0.17238013,-0.467361,-0.26037422,-14.410026,0.8699599
1.4561392,0.16701119,-0.4528046,-0.25226462,-13.961212,0.8428642
1.4107882,0.16180967,-0.43870214,-0.24440789,-13.526394,0.81661344
1.3668511,0.15677033,-0.42503935,-0.23679616,-13.105133,0.79118115
1.3242838,0.1518881,-0.41180253,-0.2294217,-12.697005,0.7665417
1.2830435,0.14715806,-0.39897832,-0.22227713,-12.3016,0.74267036
1.2430886,0.14257546,-0.38655385,-0.21535528,-11.91852,0.7195431
1.204379,0.13813567,-0.37451664,-0.20864914,-11.547379,0.6971366
1.1668757,0.13383426,-0.36285454,-0.20215201,-11.187804,0.67542845
1.1305412,0.1296669,-0.35155588,-0.19585735,-10.839436,0.6543968
1.095339,0.12562938,-0.34060928,-0.1897588,-10.501922,0.6340204
1.0612335,0.12171766,-0.33000374,-0.1838503,-10.174924,0.614279
1.0281906,0.11792783,-0.31972864,-0.17812589,-9.858114,0.5951526
0.99617714,0.11425606,-0.30977368,-0.17257982,-9.551175,0.5766221
0.965161,0.110698685,-0.30012882,-0.16720651,-9.253798,0.5586689
0.93511105,0.10725212,-0.29078442,-0.1620006,-8.965684,0.5412749
0.90599716,0.10391291,-0.2817311,-0.15695685,-8.686545,0.5244228
0.87779015,0.10067772,-0.27295977,-0.15207021,-8.4161005,0.50809556
0.85046166,0.09754329,-0.26446164,-0.14733577,-8.15408,0.4922769
0.8239843,0.09450649,-0.25622818,-0.14274877,-7.9002204,0.4769509
0.7983317,0.09156427,-0.24825116,-0.13830465,-7.654267,0.46210223
0.77347785,0.088713676,-0.24052256,-0.13399893,-7.4159727,0.447716
0.7493981,0.08595186,-0.23303467,-0.1298273,-7.1851,0.43377778
0.7260682,0.08327605,-0.22577995,-0.12578559,-6.961417,0.42027363
0.70346487,0.08068357,-0.21875115,-0.12186973,-6.7447,0.40719002
0.68156534,0.07817181,-0.21194121,-0.11807581,-6.5347314,0.39451382
0.66034776,0.075738266,-0.20534335,-0.11440003,-6.3313007,0.38223234
0.63979083,0.07338051,-0.19895092,-0.110838704,-6.1342044,0.37033328
0.619874,0.07109615,-0.19275753,-0.10738827,-5.9432454,0.35880473
0.60057735,0.06888293,-0.186757,-0.10404528,-5.758232,0.34763512
0.58188146,0.06673862,-0.1809433,-0.10080637,-5.5789795,0.33681333
0.56376773,0.06466107,-0.1753106,-0.097668305,-5.4053082,0.32632846
0.546218,0.06264821,-0.16985327,-0.09462795,-5.2370443,0.31617004
0.5292146,0.060698017,-0.16456588,-0.09168225,-5.074019,0.3063279
0.5127406,0.058808543,-0.15944308,-0.088828266,-4.916069,0.29679218
0.49677956,0.056977894,-0.15447979,-0.08606313,-4.763037,0.28755334
0.4813154,0.05520424,-0.149671,-0.08338409,-4.6147695,0.27860215
0.46633267,0.053485803,-0.14501195,-0.08078845,-4.4711175,0.26992962
0.4518164,0.051820867,-0.14049794,-0.07827362,-4.331938,0.2615271
0.43775204,0.050207764,-0.13612445,-0.07583708,-4.1970916,0.25338617
0.42412555,0.048644878,-0.13188712,-0.0734764,-4.066443,0.24549867
0.41092327,0.047130648,-0.1277817,-0.07118921,-3.9398615,0.23785673
0.39813197,0.045663558,-0.12380409,-0.06897322,-3.817221,0.23045269
0.38573888,0.044242136,-0.11995031,-0.06682622,-3.698398,0.22327913
0.3737316,0.042864967,-0.116216496,-0.064746045,-3.5832744,0.2163289
0.36209813,0.041530672,-0.11259892,-0.06273064,-3.4717345,0.20959504
0.3508268,0.04023791,-0.10909396,-0.06077797,-3.363667,0.20307079
0.33990633,0.038985394,-0.1056981,-0.058886085,-3.2589636,0.19674966
0.32932582,0.03777187,-0.10240796,-0.057053097,-3.1575193,0.19062528
0.3190747,0.03659612,-0.099220246,-0.05527717,-3.0592332,0.18469156
0.30914265,0.03545697,-0.09613176,-0.053556524,-2.9640067,0.17894256
0.2995198,0.034353282,-0.09313941,-0.051889442,-2.8717444,0.17337252
0.2901965,0.03328395,-0.09024022,-0.050274253,-2.7823544,0.16797587
0.28116342,0.032247905,-0.08743127,-0.048709344,-2.6957467,0.16274722
