ax,ay,az,gx,gy,gz
-0.04363676,4.2200384,-3.7063975,-28.52026,125.34478,45.610416
-1.5389632,5.0638433,-4.521443,-40.755333,121.54554,48.36515
-2.2137456,5.5444417,-5.0813465,-49.163033,112.24724,46.52273
-2.5058634,5.9465523,-5.622776,-60.332375,105.62709,47.116947
-2.9423354,6.244181,-6.371406,-73.64584,96.648186,48.442078
-3.4744954,6.358339,-7.297586,-90.76034,81.239716,51.010963
-4.0617476,5.8660245,-8.717496,-103.27847,64.15645,52.572407
-4.7202673,4.9533114,-10.298559,-106.19222,46.95917,50.291775
-5.301026,3.9359403,-11.796676,-99.96946,28.90298,44.9534
-5.664803,3.0494688,-13.032296,-88.05076,9.102503,38.564648
-5.7492356,2.3584418,-13.954202,-71.52595,-13.06143,31.551685
-5.4299316,1.7797129,-14.57957,-52.980274,-34.394638,24.984257
-4.899075,1.2300348,-15.023486,-31.901218,-53.826927,19.502457
-4.2294936,0.83807606,-15.228024,-9.180131,-71.61968,15.577756
-3.3787146,0.7554989,-15.034389,12.642017,-88.03601,12.9533615
-2.3325047,0.9738898,-14.337545,29.55401,-100.90873,11.555957
-1.2897342,1.3537333,-13.225722,41.54849,-110.95864,11.927213
-0.447433,1.7610465,-12.035879,49.798923,-118.434456,12.207103
0.25811738,2.1807463,-10.845955,55.350838,-123.77178,12.182296
0.9297777,2.6322389,-9.6912365,58.582546,-127.429085,12.227913
1.5835819,3.1235778,-8.572411,59.1276,-128.5711,11.990624
2.1659112,3.6262493,-7.5330467,58.00084,-127.5781,11.282855
2.6376426,4.10349,-6.6161156,55.749367,-125.01705,10.194776
2.9967756,4.5852113,-5.805517,52.624588,-121.46426,8.103358
3.2801368,5.085329,-5.0749407,48.456604,-117.36025,4.8504944
3.5022051,5.583597,-4.432856,41.978245,-112.85105,0.6916031
3.6329997,6.0018277,-3.9471097,34.14365,-108.71233,-3.626796
3.7487686,6.3262606,-3.5738373,25.38998,-104.27526,-7.6111727
3.8169057,6.5916524,-3.2806222,16.529629,-99.15922,-12.280024
3.8062742,6.797117,-3.0735,7.6353583,-93.66827,-17.810083
3.7247584,6.9331603,-2.9529617,-1.5431957,-89.18741,-23.573877
3.6027822,6.9215164,-2.929201,-10.557448,-85.595726,-28.726503
3.490213,6.782384,-2.9441206,-18.366703,-81.85013,-34.06212
3.4043424,6.5516963,-2.9546368,-24.687359,-77.85528,-39.87976
3.3680184,6.276833,-2.9240875,-30.17825,-74.42406,-45.50357
3.432032,5.9313293,-2.8720222,-35.77252,-71.853516,-50.655743
3.7447462,5.36383,-2.8517108,-40.887936,-69.12662,-54.988907
4.2056584,4.620106,-2.8510115,-45.119366,-65.71981,-57.242638
4.694086,3.77867,-2.8489416,-48.22685,-61.541,-57.05123
5.144463,2.9080517,-2.8243716,-49.715115,-56.28672,-55.60786
5.560232,2.0725322,-2.7562554,-49.21674,-49.599365,-52.840996
5.90455,1.3730277,-2.6173894,-48.0249,-41.902252,-48.84152
6.134603,0.80573934,-2.4758115,-46.623165,-33.616676,-43.62774
6.264236,0.34324738,-2.3830922,-44.896954,-25.11602,-37.598373
6.324849,-0.026686108,-2.350923,-42.59064,-16.50999,-31.321924
6.3363566,-0.2989625,-2.3626711,-39.61745,-7.948726,-25.015932
6.3008275,-0.42888188,-2.4173903,-36.611027,0.257296,-18.713009
6.213237,-0.4627379,-2.4994173,-33.990463,8.134196,-12.450498
6.050496,-0.4241179,-2.6277685,-31.843117,15.109014,-6.141077
5.8244376,-0.33884403,-2.7987568,-30.086824,20.955915,-0.12827687
5.5706925,-0.22333333,-2.987132,-28.52863,25.794874,5.4073586
5.286099,-0.06695781,-3.1825242,-27.038567,29.966272,10.42688
4.977146,0.12215875,-3.3724265,-25.537865,33.228775,14.713224
4.6595826,0.34125483,-3.5470746,-24.306717,35.662113,18.221266
4.3451157,0.56535494,-3.7053893,-23.436794,37.101173,21.099455
4.0289583,0.7679388,-3.861836,-22.53847,37.304886,23.259348
3.729689,0.95810497,-4.0160313,-21.516342,36.579945,24.941088
3.445296,1.1426455,-4.172193,-20.409132,35.05306,26.500057
3.1642306,1.3269784,-4.323218,-19.241879,33.054466,27.674164
2.870058,1.5024489,-4.4744787,-17.75627,30.790903,27.752855
2.5844069,1.6605256,-4.621186,-15.674731,28.159094,26.49651
2.3233345,1.8158548,-4.7633724,-13.482172,25.083559,24.736399
2.074732,1.962681,-4.905884,-11.37767,21.467943,22.838242
1.8408759,2.0928922,-5.0535,-9.353732,17.3455,20.883642
1.6204537,2.211683,-5.2022257,-7.4228654,12.8991585,18.795864
1.4084871,2.3248777,-5.352938,-5.5931654,8.140137,15.948402
1.2460201,2.3960602,-5.531031,-3.5439143,3.2375562,12.710547
1.1288372,2.4478514,-5.70634,-1.3315308,-1.6849463,9.548849
1.0151463,2.5026283,-5.8612237,0.6330039,-6.898113,6.6903195
0.8767206,2.5436788,-5.987744,2.0977917,-12.732835,4.1103735
0.72571343,2.553177,-6.0941925,3.4768424,-19.206852,1.0333978
0.6326568,2.5415344,-6.148716,4.848955,-25.914364,-2.4635282
0.6426385,2.5214486,-6.120305,5.871411,-32.75094,-5.7208266
0.7591407,2.4692626,-6.0034556,6.184619,-39.42234,-7.953279
0.93549323,2.3857484,-5.8175173,5.8804173,-46.044888,-9.130209
1.1670866,2.2955685,-5.5589304,4.9468484,-52.213177,-9.656362
1.4493868,2.1948636,-5.23117,3.6964371,-57.65925,-10.120965
1.7704146,2.0708418,-4.884606,2.3401916,-62.006718,-10.516479
2.1115081,1.9251586,-4.544742,1.3900409,-65.1635,-11.030111
2.4555924,1.7858614,-4.2021637,0.7381282,-67.30022,-11.275051
2.7624817,1.6668768,-3.8679368,-0.06386244,-68.6142,-10.671788
2.9923046,1.5583678,-3.5676792,-0.8515367,-69.41316,-9.882393
3.171829,1.453033,-3.2952895,-1.1914926,-69.54512,-9.2527685
3.3263528,1.370947,-3.0320804,-1.2231038,-69.00703,-8.881303
3.4547195,1.314803,-2.7761078,-1.2767327,-67.79965,-8.496789
3.533325,1.2741135,-2.544836,-1.564374,-66.11532,-7.7700195
3.5440795,1.2293248,-2.3582,-1.8868966,-64.32767,-6.8767962
3.5145595,1.1816036,-2.1968668,-2.0976632,-62.484043,-6.02161
3.4624326,1.1334572,-2.0559688,-2.074002,-60.678055,-5.440518
3.4076064,1.086841,-1.924344,-1.8119726,-58.80129,-5.277662
3.3626027,1.0455891,-1.7945166,-1.4339893,-56.741287,-5.2308707
3.3400064,1.0152587,-1.6610084,-1.253401,-54.614735,-4.874019
3.3286119,0.9866086,-1.5315719,-1.3249775,-52.32624,-4.182669
3.329563,0.95395225,-1.4102669,-1.5929298,-49.747288,-3.26874
3.329295,0.9088456,-1.3053712,-1.9039656,-46.92527,-2.3015819
3.3279724,0.8510908,-1.2166718,-2.1765347,-43.944214,-1.1664475
3.336727,0.7710854,-1.1497475,-2.2439528,-40.92365,0.23625281
3.3480496,0.69044524,-1.0888398,-1.7980102,-37.75792,1.6672472
3.2434332,0.6688709,-1.0548168,-1.7418278,-36.5781,1.6151508
3.1421099,0.6479757,-1.0218648,-1.6874139,-35.435417,1.5646942
3.0439734,0.6277377,-0.9899492,-1.6347115,-34.328674,1.5158246
2.9489217,0.6081359,-0.95903695,-1.5836657,-33.25672,1.4684912
2.8568563,0.58914983,-0.92909575,-1.5342237,-32.218445,1.4226449
2.7676816,0.57075995,-0.9000946,-1.4863338,-31.212767,1.378238
2.6813052,0.5529471,-0.8720036,-1.439947,-30.23865,1.3352246
2.597638,0.535693,-0.84479374,-1.395015,-29.295086,1.2935604
2.5165937,0.51897985,-0.81843686,-1.3514917,-28.381104,1.2532023
2.4380894,0.5027904,-0.7929059,-1.3093323,-27.495764,1.2141091
2.3620439,0.48710808,-0.76817477,-1.2684935,-26.638155,1.1762403
2.2883797,0.47191682,-0.744218,-1.2289335,-25.8074,1.1395574
2.2170212,0.45720106,-0.72101104,-1.1906117,-25.00265,1.1040226
2.1478956,0.44294575,-0.6985303,-1.153489,-24.22308,1.0695997
2.0809321,0.42913637,-0.67675275,-1.1175275,-23.467894,1.0362536
2.0160627,0.4157588,-0.65565616,-1.0826905,-22.736324,1.0039502
1.9532214,0.40279943,-0.6352191,-1.0489427,-22.027624,0.97265667
1.892344,0.39024508,-0.61542076,-1.0162495,-21.341072,0.9423412
1.8333687,0.37808302,-0.59624106,-0.9845779,-20.675974,0.9129729
1.7762357,0.36630088,-0.5776605,-0.9538956,-20.031652,0.88452214
1.7208871,0.3548867,-0.55966026,-0.9241717,-19.407454,0.8569599
1.6672667,0.34382898,-0.542222,-0.89537585,-18.802746,0.83025825
1.6153204,0.33311644,-0.5253283,-0.86747897,-18.216915,0.80439025
1.5649955,0.32273826,-0.5089618,-0.84045285,-17.649372,0.77932966
1.5162411,0.312684,-0.49310607,-0.8142702,-17.09954,0.75505114
1.4690081,0.30294344,-0.47774512,-0.78890455,-16.566866,0.73153025
1.4232485,0.29350677,-0.4628634,-0.7643302,-16.05081,0.7087431
1.3789165,0.28436446,-0.4484459,-0.7405225,-15.550851,0.68666685
1.3359672,0.27550733,-0.43447807,-0.7174573,-15.066485,0.6652791
1.2943573,0.2669264,-0.42094585,-0.69511145,-14.597226,0.64455837
1.2540449,0.25861305,-0.4078356,-0.6734624,-14.142599,0.6244838
1.2149893,0.2505589,-0.39513412,-0.65248835,-13.7021475,0.6050351
1.1771514,0.24275585,-0.38282862,-0.6321682,-13.275427,0.5861927
1.140493,0.23519604,-0.37090674,-0.6124814,-12.862009,0.56793773
1.1049773,0.22787187,-0.35935643,-0.5934083,-12.461477,0.5502518
1.0705684,0.22077598,-0.34816614,-0.57492965,-12.073428,0.533117
1.0372319,0.21390122,-0.33732456,-0.5570269,-11.697474,0.51651627
1.0049343,0.2072407,-0.32682085,-0.53968203,-11.333234,0.50043285
0.9736431,0.20078772,-0.31664443,-0.52287763,-10.980345,0.48485056
0.9433269,0.19453582,-0.3067851,-0.50659686,-10.638451,0.4697538
0.91395515,0.1884787,-0.29723296,-0.4908233,-10.307208,0.45512742
0.8854985,0.18261027,-0.2879784,-0.47554117,-9.986286,0.44095668
0.8579284,0.17692468,-0.27901214,-0.4607351,-9.675362,0.42722744
0.8312171,0.1714162,-0.2703252,-0.4463903,-9.374123,0.41392586
0.80533785,0.1660793,-0.26190886,-0.43249232,-9.082268,0.40103865
0.78026474,0.16090862,-0.25375468,-0.4190272,-8.799502,0.3885528
0.7559725,0.15589902,-0.24585445,-0.40598154,-8.525545,0.3764559
0.7324369,0.15104543,-0.23820029,-0.39334217,-8.26012,0.36473575
0.7096343,0.14634301,-0.23078454,-0.38109645,-8.002963,0.35338062
0.6875419,0.14178704,-0.22359972,-0.3692321,-7.7538133,0.34237912
0.66613746,0.13737296,-0.21663865,-0.3577372,-7.512423,0.33172023
0.64539963,0.13309632,-0.20989436,-0.34660032,-7.27855,0.32139328
0.62530756,0.12895288,-0.2033601,-0.33581024,-7.05196,0.31138793
0.60584116,0.12493845,-0.19702931,-0.32535616,-6.832426,0.30169412
0.5869809,0.12104904,-0.19089565,-0.3152276,-6.619728,0.2923022
0.56870794,0.11728073,-0.18495299,-0.30541444,-6.413653,0.2832027
0.55100393,0.11362975,-0.17919536,-0.2959068,-6.2139945,0.27438653
0.5338512,0.11009246,-0.17361702,-0.28669524,-6.020553,0.26584488
0.5172325,0.106665306,-0.16821235,-0.2777705,-5.833134,0.2575692
0.50113124,0.10334486,-0.16297597,-0.26912358,-5.6515512,0.24955116
0.48553133,0.10012779,-0.15790261,-0.2607459,-5.4756217,0.24178277
0.4704171,0.09701089,-0.15298723,-0.2526291,-5.3051696,0.23425625
0.45577344,0.09399103,-0.14822488,-0.24476498,-5.140024,0.22696407
0.4415857,0.09106518,-0.14361079,-0.2371457,-4.980021,0.21989891
0.42783964,0.08823043,-0.13914035,-0.22976363,-4.8249984,0.21305372
0.41452155,0.08548393,-0.13480909,-0.2226114,-4.674803,0.20642163
0.4016181,0.082822934,-0.13061267,-0.21568182,-4.5292826,0.19999602
0.38911632,0.08024479,-0.1265469,-0.20896797,-4.3882933,0.19377045
0.3770038,0.0777469,-0.12260771,-0.20246314,-4.251693,0.1877387
0.36526832,0.07532677,-0.11879114,-0.19616082,-4.119345,0.18189472
0.35389817,0.07298199,-0.115093395,-0.19005468,-3.9911172,0.17623267
0.342882,0.0707102,-0.11151076,-0.18413866,-3.8668816,0.1707469
0.33220878,0.06850913,-0.108039655,-0.17840679,-3.7465134,0.16543187
0.32186782,0.06637659,-0.104676604,-0.17285335,-3.629892,0.16028233
0.31184876,0.064310424,-0.10141825,-0.16747281,-3.5169015,0.15529309
0.3021416,0.062308587,-0.09826132,-0.16225974,-3.407428,0.15045916
0.29273662,0.060369063,-0.09520267,-0.15720898,-3.3013628,0.1457757
0.2836244,0.058489915,-0.09223924,-0.15231542,-3.198599,0.14123805
0.2747959,0.056669265,-0.08936805,-0.14757422,-3.0990343,0.13684165
0.26624215,0.05490529,-0.086586244,-0.14298059,-3.002569,0.13258211
0.25795472,0.053196225,-0.083891034,-0.13852997,-2.9091065,0.12845516
0.24992524,0.051540364,-0.08127972,-0.13421789,-2.8185534,0.12445668
