ax,ay,az,gx,gy,gz
-6.3727856,0.009090992,-6.672788,30.73937,-64.919685,1.2209202
-6.9799066,-0.03383439,-7.079792,33.163933,-77.115005,-8.782942
-7.258829,-0.23780562,-7.2382107,33.038567,-85.66662,-19.21928
-7.174657,-0.68217903,-7.5138125,33.362797,-93.17399,-26.856232
-6.639034,-1.595679,-8.038491,36.87176,-99.947174,-29.650064
-5.7945333,-2.6366637,-8.5319,45.385593,-104.53767,-26.864363
-4.8179173,-3.4322734,-8.896583,57.480503,-107.25781,-20.007265
-3.8443956,-3.9401798,-8.996917,70.30663,-110.14701,-13.79608
-2.7768734,-4.3488255,-8.835933,84.06539,-111.816864,-6.1791472
-1.6395016,-4.423005,-8.385264,93.91837,-112.948456,0.26387513
-0.53815347,-4.573271,-7.8226967,102.30565,-112.87706,6.0405183
0.4704548,-4.582035,-7.098864,111.18609,-110.56143,11.167621
1.382151,-4.2910285,-6.2278666,119.22196,-106.28283,14.905972
2.21057,-3.8215947,-5.2857857,124.89764,-99.463135,19.21674
2.8580964,-3.1055534,-4.2893543,127.75699,-92.24171,23.562452
3.367925,-2.2751696,-3.3051836,128.19725,-84.51519,27.57193
3.7373388,-1.3744618,-2.3654358,126.63186,-76.28149,31.13543
3.959712,-0.42486268,-1.4953687,122.86725,-67.7699,33.956394
4.0557384,0.51977926,-0.72227234,116.19527,-59.29599,36.319736
3.9899254,1.4357466,-0.083225295,107.72126,-51.57528,37.964108
3.842642,2.2698867,0.4553178,98.08906,-44.182743,38.501987
3.634564,3.0249567,0.9084954,87.88027,-36.812603,37.13426
3.3993251,3.693716,1.295548,77.79595,-29.112871,33.401424
3.1809547,4.3031735,1.6132566,66.81992,-21.34262,27.647318
3.0111833,4.736199,1.7771424,54.847557,-14.813348,22.560307
2.9557023,5.013414,1.8322853,42.113964,-9.482018,19.350225
3.0236616,5.2048054,1.8405124,28.922457,-3.9900584,16.349066
3.2070763,5.229103,1.7729911,16.652035,3.315924,11.515241
3.4835863,5.042675,1.5627104,6.8853145,12.196478,6.8244085
3.8164263,4.697585,1.119916,-2.5884898,19.401814,5.737844
4.1702576,4.2037706,0.5240002,-11.9755745,24.662386,8.005234
4.541657,3.5348513,-0.17410249,-19.199451,30.10348,11.824425
4.8608756,2.7742646,-0.9274074,-22.429743,37.40651,15.428028
5.0290976,2.06214,-1.6852537,-20.540592,46.122715,18.711468
4.9709187,1.5405005,-2.375772,-16.452896,54.31054,22.379353
4.7771926,1.2180718,-2.980069,-11.337943,61.381695,26.114248
4.503843,1.0462043,-3.496833,-5.952798,66.8397,29.471125
4.220909,0.95721513,-3.9344597,-0.46356687,70.84941,32.614624
3.9586532,0.9059156,-4.3020563,5.0253115,73.48651,36.123302
3.7096167,0.8764467,-4.6313653,11.005774,74.97066,40.038204
3.4621649,0.89254206,-4.907384,17.19036,75.48041,44.03139
3.1836562,0.97380644,-5.1305957,23.490019,75.4286,47.634228
2.865905,1.123805,-5.310081,29.294,74.21357,50.878033
2.5339432,1.3245007,-5.4490438,33.911713,70.63589,54.153244
2.231887,1.5732348,-5.5242944,37.473732,65.839294,57.35288
1.9664365,1.864118,-5.5521536,40.097427,60.357212,59.70997
1.7137301,2.2077203,-5.5309553,41.77023,54.759956,59.823112
1.4583234,2.517508,-5.4904513,42.82663,49.0907,57.928326
1.2317551,2.7664478,-5.448295,43.607674,43.07612,55.23537
1.0545106,3.0626905,-5.354268,44.086792,37.125126,51.96374
0.90420455,3.4064493,-5.22822,43.680588,31.088913,48.10113
0.7713938,3.7562487,-5.08873,41.75778,24.621225,43.883183
0.66487855,4.040335,-4.9684396,38.543983,17.869263,39.397396
0.5776678,4.2378044,-4.8752894,34.935314,10.960991,33.815403
0.55077916,4.3695927,-4.787492,31.760086,4.3642163,27.383524
0.57933265,4.4938564,-4.686194,28.729927,-1.8547709,20.747292
0.63897204,4.6071444,-4.579317,25.284416,-8.007575,14.375088
0.7218555,4.6691127,-4.4765964,21.21929,-14.352119,8.353137
0.8564913,4.651631,-4.3703685,16.875084,-20.676771,2.5628858
1.0901201,4.5540547,-4.2295766,12.697164,-26.289593,-3.1230192
1.3794034,4.401159,-4.0665293,8.666562,-30.974916,-8.027552
1.6650718,4.199965,-3.883304,4.4744964,-34.794266,-11.676792
1.9029313,3.9363468,-3.6950085,0.23291151,-37.90482,-14.26219
2.1001694,3.5840065,-3.5317252,-3.149727,-40.28997,-16.36271
2.313415,3.178321,-3.3799036,-5.5737786,-42.023746,-18.404856
2.5653298,2.784332,-3.2040772,-7.199758,-42.90855,-19.991209
2.8292346,2.4213457,-3.002493,-8.430185,-42.78332,-20.600435
3.0355356,2.0885346,-2.801415,-9.230493,-41.68801,-20.126894
3.1543884,1.798113,-2.619935,-9.465918,-39.783535,-18.879816
3.160626,1.5727967,-2.4669757,-9.321728,-37.664474,-17.516817
3.1057143,1.3983848,-2.329301,-8.980223,-35.48385,-16.088459
3.0014973,1.2665799,-2.20761,-8.562739,-33.40859,-14.680343
2.8680503,1.1687584,-2.1033096,-8.040804,-31.475563,-13.297436
2.7138166,1.0951229,-2.017478,-7.4450994,-29.881084,-12.161408
2.5534,1.037083,-1.9473572,-6.7277884,-28.588388,-11.24828
2.409593,1.0011002,-1.876493,-5.972147,-27.546595,-10.587146
2.2889395,0.99003255,-1.799911,-5.295184,-26.627525,-10.073021
2.1929295,0.9953374,-1.7185879,-4.858071,-25.761507,-9.562104
2.1107316,1.0083274,-1.6365901,-4.7240243,-24.87736,-9.175618
2.0378466,1.0082225,-1.5658219,-4.628966,-24.075708,-8.857447
1.9912891,1.0034584,-1.4976538,-4.569677,-23.221088,-8.511113
1.9682049,0.9897815,-1.4312412,-4.445025,-22.242205,-8.062578
1.9649897,0.9789666,-1.3586587,-4.3627915,-21.11815,-7.45758
1.973164,0.9623369,-1.2826834,-4.4539685,-19.755775,-6.5860653
1.9111692,0.93210125,-1.2423829,-4.3140297,-19.135069,-6.379138
1.8511566,0.9028324,-1.2033708,-4.178565,-18.53421,-6.178827
1.7930597,0.87449783,-1.1656041,-4.0474243,-17.95253,-5.98491
1.7368145,0.84706634,-1.1290411,-3.9204636,-17.38939,-5.797174
1.6823595,0.8205079,-1.0936419,-3.7975438,-16.844173,-5.6154127
1.6296352,0.7947936,-1.0593677,-3.6785307,-16.316286,-5.4394283
1.5785847,0.7698956,-1.0261815,-3.5632956,-15.805156,-5.269031
1.5291526,0.745787,-0.9940475,-3.4517143,-15.310231,-5.104036
1.4812862,0.7224419,-0.9629313,-3.3436666,-14.830981,-4.9442663
1.4349341,0.6998354,-0.9327994,-3.2390373,-14.366893,-4.7895513
1.390047,0.6779434,-0.9036199,-3.1377149,-13.917473,-4.639726
1.3465773,0.6567427,-0.8753618,-3.0395918,-13.482244,-4.494632
1.3044789,0.6362108,-0.84799516,-2.9445643,-13.060745,-4.3541155
1.2637076,0.61632615,-0.82149124,-2.8525324,-12.6525345,-4.218028
1.2242206,0.59706783,-0.79582214,-2.7633996,-12.257181,-4.086228
1.1859765,0.5784157,-0.770961,-2.677072,-11.874271,-3.9585757
1.1489353,0.5603502,-0.7468818,-2.59346,-11.503407,-3.8349388
1.1130584,0.54285264,-0.72355956,-2.5124762,-11.144199,-3.7151885
1.0783087,0.5259047,-0.70097,-2.4340365,-10.796277,-3.5992
1.0446501,0.509489,-0.6790897,-2.35806,-10.459279,-3.4868536
1.0120476,0.49358836,-0.65789604,-2.2844672,-10.132855,-3.3780324
0.9804678,0.4781865,-0.6373671,-2.213183,-9.816671,-3.2726247
0.94987804,0.46326748,-0.61748177,-2.1441336,-9.510399,-3.1705215
0.92024684,0.44881597,-0.59821963,-2.0772479,-9.213725,-3.071618
0.8915438,0.43481714,-0.5795608,-2.0124574,-8.926344,-2.9758124
0.86373955,0.42125666,-0.56148624,-1.9496956,-8.647961,-2.8830068
0.8368056,0.40812063,-0.54397744,-1.8888983,-8.378292,-2.7931063
0.8107144,0.39539564,-0.5270165,-1.8300034,-8.117061,-2.7060184
0.7854394,0.38306868,-0.5105861,-1.7729506,-7.8640013,-2.621655
0.7609547,0.3711272,-0.49466947,-1.717682,-7.618855,-2.5399294
0.7372354,0.359559,-0.47925043,-1.6641412,-7.381372,-2.460759
0.7142575,0.34835237,-0.4643133,-1.6122738,-7.151312,-2.3840628
0.6919975,0.3374959,-0.44984287,-1.562027,-6.9284396,-2.309763
0.6704329,0.32697856,-0.43582448,-1.5133498,-6.7125297,-2.2377841
0.6495418,0.31678972,-0.42224392,-1.4661928,-6.503363,-2.1680534
0.62930304,0.306919,-0.40908742,-1.4205084,-6.300728,-2.1005
0.6096961,0.29735646,-0.39634165,-1.3762501,-6.1044188,-2.0350556
0.59070116,0.28809237,-0.38399372,-1.3333734,-5.914237,-1.9716539
0.572299,0.27911744,-0.37203115,-1.2918348,-5.7299905,-1.9102309
0.5544711,0.27042252,-0.36044186,-1.2515923,-5.551493,-1.8507245
0.5371994,0.2619989,-0.3492141,-1.2126054,-5.3785644,-1.7930746
0.5204664,0.253838,-0.33833662,-1.1748345,-5.2110305,-1.737223
0.50425535,0.24593168,-0.3277984,-1.1382418,-5.048722,-1.6831135
0.48854986,0.23827192,-0.3175888,-1.1027901,-4.8914747,-1.6306913
0.4733341,0.23085101,-0.3076976,-1.068444,-4.739131,-1.5799038
0.45859277,0.22366147,-0.29811478,-1.0351688,-4.591537,-1.5307
0.444311,0.21669607,-0.28883073,-1.002931,-4.448545,-1.48303
0.43047443,0.2099478,-0.27983606,-0.9716981,-4.31001,-1.436846
0.41706917,0.20340988,-0.27112177,-0.94143873,-4.175793,-1.3921016
0.40408167,0.19707572,-0.26267907,-0.9121224,-4.0457597,-1.3487518
0.39149895,0.19093898,-0.2544995,-0.8837198,-3.9197783,-1.3067529
0.37930834,0.18499346,-0.24657482,-0.8562023,-3.7977233,-1.2660629
0.36749762,0.17923321,-0.23889707,-0.8295422,-3.6794713,-1.2266407
0.35605487,0.17365244,-0.23145856,-0.80371284,-3.564904,-1.1884469
0.34496865,0.16824555,-0.22425179,-0.7786882,-3.453906,-1.1514431
0.3342278,0.16300711,-0.21726955,-0.7544432,-3.3463662,-1.1155921
0.32382157,0.15793185,-0.21050483,-0.7309535,-3.2421765,-1.080858
0.31373948,0.1530147,-0.20395084,-0.7081955,-3.1412325,-1.0472058
0.30397147,0.14825071,-0.197601,-0.68614644,-3.043433,-1.014602
0.2945077,0.14363512,-0.19144896,-0.6647842,-2.9486797,-0.9830137
0.28533873,0.13916329,-0.18548852,-0.64408726,-2.8568776,-0.9524092
0.2764553,0.13483074,-0.17971373,-0.624035,-2.7679348,-0.922758
0.26784858,0.13063312,-0.1741188,-0.6046072,-2.681762,-0.8940303
0.25950986,0.12656623,-0.1686981,-0.5857845,-2.598273,-0.86619717
0.25143087,0.122626,-0.16344623,-0.567548,-2.517384,-0.8392309
0.24360344,0.11880846,-0.1583579,-0.5498794,-2.4390142,-0.8131044
0.23601978,0.115109816,-0.15342803,-0.5327609,-2.3630848,-0.78779143
0.22867227,0.11152634,-0.14865167,-0.51617557,-2.2895198,-0.76326674
0.22155353,0.10805445,-0.14402404,-0.5001067,-2.2182455,-0.73950577
0.21465649,0.10469067,-0.13954051,-0.48453817,-2.1491904,-0.7164846
0.20797418,0.10143162,-0.13519658,-0.46945438,-2.0822856,-0.6941803
0.20149994,0.09827406,-0.13098791,-0.45484027,-2.0174642,-0.67257047
0.1952273,0.09521481,-0.1269103,-0.4406812,-1.954661,-0.6516335
0.18914995,0.09225081,-0.12295963,-0.42696297,-1.8938131,-0.63134843
0.18326181,0.089379095,-0.11913196,-0.41367185,-1.8348598,-0.6116949
0.177557,0.08659679,-0.11542347,-0.40079454,-1.777742,-0.5926533
0.17202982,0.08390111,-0.11183044,-0.38831818,-1.7224025,-0.5742045
0.1666747,0.08128935,-0.10834928,-0.37623024,-1.6687858,-0.55633014
0.16148633,0.07875891,-0.10497649,-0.3645186,-1.6168386,-0.5390122
0.15645947,0.07630725,-0.10170871,-0.35317165,-1.5665084,-0.5222335
0.1515891,0.07393191,-0.09854266,-0.3421779,-1.5177453,-0.5059771
0.14687036,0.07163053,-0.09547518,-0.33152643,-1.4705002,-0.4902268
0.14229853,0.06940079,-0.0925032,-0.32120657,-1.4247259,-0.47496685
0.13786903,0.06724046,-0.089623734,-0.31120795,-1.3803767,-0.46018195
0.13357742,0.06514739,-0.08683391,-0.30152062,-1.3374081,-0.44585735
0.12941942,0.06311948,-0.084130935,-0.29213488,-1.2957772,-0.43197864
0.12539084,0.061154693,-0.08151211,-0.2830413,-1.2554423,-0.418532
0.12148769,0.059251074,-0.078974806,-0.2742308,-1.216363,-0.405504
0.11770604,0.057406716,-0.076516494,-0.2656946,-1.1785002,-0.39288154
0.11404211,0.055619773,-0.07413471,-0.25742412,-1.1418161,-0.380652
0.110492244,0.05388846,-0.07182706,-0.24941109,-1.106274,-0.36880317
0.10705288,0.052211035,-0.069591254,-0.24164751,-1.0718383,-0.3573232
0.10372058,0.050585832,-0.06742504,-0.23412561,-1.0384746,-0.3462006
0.100492015,0.04901122,-0.065326266,-0.22683786,-1.0061493,-0.3354242
0.09736395,0.047485624,-0.063292824,-0.21977696,-0.97483045,-0.3249833
0.09433326,0.046007518,-0.06132268,-0.21293586,-0.94448644,-0.3148674
