ax,ay,az,gx,gy,gz
-5.0027723,-1.4227402,-5.198229,45.38859,-57.37325,-2.6082056
-5.722346,-1.985095,-5.920444,32.92298,-68.947464,-24.194443
-6.372121,-2.8666608,-6.8338904,33.033188,-77.6728,-43.22069
-6.8609724,-3.763964,-7.679483,42.5777,-89.58763,-61.23861
-6.5147023,-4.349778,-8.403705,56.443768,-102.608246,-71.88029
-5.4991403,-4.7916727,-8.917435,73.96058,-112.40455,-75.42884
-3.968513,-5.0940156,-9.244931,91.38535,-118.122406,-76.26667
-2.4036596,-5.191656,-9.27975,106.14814,-121.49472,-74.59033
-0.96982604,-5.104565,-8.985898,119.116264,-122.19763,-70.80202
0.25840956,-4.823956,-8.452718,130.55925,-120.636505,-64.90126
1.3108896,-4.34723,-7.74777,137.24818,-116.98436,-55.169827
2.220332,-3.8935277,-6.9491496,140.83086,-112.6584,-43.486267
3.0109866,-3.4494436,-6.1607814,142.98686,-107.6588,-31.163467
3.6909237,-3.0115845,-5.3813896,144.84402,-101.36814,-19.073225
4.238179,-2.5151935,-4.6389937,146.31915,-93.79203,-6.941944
4.623705,-1.8231803,-3.9153507,144.08853,-86.945816,5.820989
4.8447967,-1.0674379,-3.1808336,140.03027,-80.98302,18.26499
4.979665,-0.30887064,-2.474656,135.16776,-75.30385,29.471909
5.054552,0.454497,-1.8048133,129.39433,-69.47658,39.033417
5.092623,1.1998298,-1.2019972,122.78536,-63.346695,47.64607
5.0339117,1.9821113,-0.6897426,114.20001,-57.250114,54.403496
4.816375,2.6230018,-0.34823868,105.22347,-51.53305,58.570698
4.534274,3.168678,-0.086239815,96.66258,-46.147774,60.393215
4.2384095,3.742606,0.17896557,88.04232,-40.95046,59.892014
3.9525757,4.3461423,0.4634077,78.92523,-35.935886,57.071487
3.7122912,4.9372735,0.74568945,68.78451,-30.812809,52.00958
3.5453625,5.4382777,0.9560251,57.67071,-25.880184,46.575947
3.4245174,5.8095975,1.075445,45.84069,-21.037905,41.42725
3.345473,6.0387144,1.0903261,33.876003,-16.147272,36.51804
3.3127449,6.169391,1.0340118,22.062664,-11.158806,31.617792
3.3356578,6.186562,0.9071575,10.936769,-5.6057363,26.147636
3.4834137,6.0238233,0.6656206,0.5231377,0.1058625,20.611004
3.7329662,5.688137,0.35419497,-9.016874,5.3997617,15.931627
4.1017523,5.2318697,0.002898154,-17.430363,10.951873,12.970963
4.5159388,4.6728034,-0.40642056,-23.59415,17.258244,11.613908
4.8961973,4.0595202,-0.83155906,-27.556074,24.804173,11.734854
5.1598496,3.3912554,-1.2947483,-30.24437,32.769894,13.308647
5.283555,2.7135508,-1.7783824,-31.639135,40.644035,16.33082
5.285456,2.0941153,-2.2684462,-31.61123,48.28577,20.226986
5.182287,1.5586057,-2.7767303,-29.256865,55.42279,24.464262
4.976629,1.1307416,-3.2683766,-24.314941,60.584816,28.59481
4.7193394,0.8853929,-3.6626575,-19.153711,64.11716,32.552147
4.454015,0.7349605,-3.9855537,-14.231625,66.31905,36.42778
4.1838427,0.6475971,-4.263536,-9.527514,67.42863,40.107162
3.9005857,0.60617006,-4.513599,-4.7997103,67.71113,43.39679
3.6002564,0.5947662,-4.75019,0.31953084,66.842865,46.11372
3.2966108,0.61783093,-4.9648037,5.568907,65.09398,48.48684
2.9974442,0.687084,-5.145903,10.839527,62.499245,50.42025
2.688227,0.79727423,-5.2944555,16.00948,59.37367,51.87883
2.366533,0.9258309,-5.4246674,21.113993,55.481644,53.01908
2.0565615,1.0822974,-5.5214086,25.737633,50.40111,54.073765
1.7811681,1.3128905,-5.5572386,29.714314,44.885098,54.90144
1.5087271,1.5964208,-5.554291,32.43876,39.0364,54.81884
1.2272673,1.8528954,-5.5449343,34.287308,32.7051,53.557793
0.9744944,2.0895298,-5.5207205,35.986214,25.937944,51.28816
0.7638962,2.3844125,-5.4481263,37.145218,18.803541,47.821026
0.6083287,2.730233,-5.33553,37.21229,11.473669,44.139114
0.47798026,3.0571344,-5.2273293,35.88272,3.9165862,40.54222
0.37827355,3.316036,-5.143162,33.703476,-3.7446632,36.9685
0.31715804,3.5464222,-5.054656,31.148384,-11.0998745,33.09235
0.28028554,3.8073711,-4.9350677,28.043034,-17.866621,28.264431
0.26190686,4.099488,-4.7818575,24.055706,-24.4064,22.83634
0.27709943,4.3163595,-4.6364303,19.546196,-30.724724,17.4155
0.33265245,4.441164,-4.522273,15.064548,-36.755886,12.134678
0.45650244,4.494407,-4.4385147,10.742655,-42.73905,6.5795727
0.7185607,4.459652,-4.3576155,6.5153756,-48.049606,1.0004712
1.1755474,4.260613,-4.2648807,2.5783296,-51.978832,-3.9002297
1.6647009,3.9583764,-4.163346,-0.9445694,-54.490562,-7.8875527
2.1060817,3.599806,-4.047179,-4.0020857,-55.89645,-10.818822
2.4769874,3.2181582,-3.9213161,-6.817153,-56.714237,-12.665301
2.7768865,2.819965,-3.785796,-9.136167,-56.898453,-13.468864
3.015548,2.4237292,-3.6392565,-10.7902,-56.273117,-13.923609
3.1966567,2.0570083,-3.487082,-11.777115,-54.8932,-14.121069
3.327779,1.7512399,-3.3218422,-12.336635,-52.99544,-13.82808
3.4094229,1.5169027,-3.1524913,-12.715368,-50.761677,-13.020706
3.4391873,1.3471626,-2.9882388,-12.998642,-48.19152,-11.809033
3.4082325,1.2334775,-2.837501,-13.305488,-45.498783,-10.461311
3.3486598,1.1546316,-2.6961834,-13.854888,-42.745205,-8.980096
3.2753057,1.1047552,-2.5572104,-14.858301,-40.005867,-7.531542
3.2111044,1.067055,-2.4156415,-16.308405,-37.139664,-6.2106767
3.1583326,1.0326829,-2.2768166,-18.192402,-33.923756,-4.9555526
3.058907,1.0001737,-2.2051418,-17.619698,-32.855824,-4.79955
2.9626782,0.9687096,-2.135771,-17.065407,-31.822227,-4.648563
2.869537,0.9382552,-2.0686264,-16.528904,-30.821796,-4.502421
2.7793794,0.90877616,-2.0036323,-16.009583,-29.853407,-4.3609595
2.692104,0.8802397,-1.9407164,-15.5068655,-28.915981,-4.2240214
2.607615,0.8526142,-1.8798087,-15.020197,-28.008478,-4.091454
2.5258186,0.82586914,-1.8208424,-14.549039,-27.129902,-3.9631124
2.4466255,0.79997534,-1.7637527,-14.092877,-26.279287,-3.8388553
2.3699496,0.77490455,-1.7084776,-13.651214,-25.455708,-3.7185476
2.2957077,0.7506296,-1.6549572,-13.223571,-24.658272,-3.602059
2.2238195,0.7271243,-1.6031337,-12.809486,-23.88612,-3.4892635
2.1542082,0.7043634,-1.5529515,-12.408516,-23.138422,-3.3800404
2.0867991,0.6823226,-1.5043569,-12.020231,-22.41438,-3.274273
2.0215206,0.66097844,-1.457298,-11.644218,-21.71322,-3.1718483
1.9583033,0.6403082,-1.4117252,-11.280079,-21.034203,-3.0726578
1.8970805,0.6202901,-1.3675902,-10.927427,-20.376606,-2.9765966
1.8377876,0.6009031,-1.3248464,-10.585893,-19.739738,-2.8835638
1.7803622,0.5821267,-1.2834489,-10.2551155,-19.12293,-2.793461
1.7247446,0.5639413,-1.2433546,-9.93475,-18.52554,-2.7061944
1.6708761,0.5463279,-1.2045213,-9.624461,-17.946938,-2.6216729
1.6187011,0.5292682,-1.1669087,-9.323927,-17.386524,-2.539808
1.5681652,0.5127444,-1.1304778,-9.032833,-16.843716,-2.4605153
1.5192161,0.49673942,-1.0951906,-8.750879,-16.31795,-2.3837118
1.4718028,0.48123673,-1.061011,-8.477774,-15.808684,-2.3093188
1.4258769,0.46622026,-1.0279032,-8.213234,-15.315392,-2.237259
1.3813907,0.45167458,-0.9958335,-7.956988,-14.8375635,-2.1674583
1.3382986,0.4375847,-0.96476877,-7.7087717,-14.37471,-2.0998452
1.2965564,0.4239362,-0.93467706,-7.468331,-13.926355,-2.0343497
1.2561212,0.41071504,-0.90552765,-7.235419,-13.492039,-1.9709052
1.2169515,0.39790773,-0.8772906,-7.009797,-13.071317,-1.9094466
1.1790075,0.38550118,-0.84993714,-6.791235,-12.66376,-1.849911
1.1422505,0.37348267,-0.82343924,-6.5795097,-12.268951,-1.7922376
1.1066428,0.36184,-0.79776996,-6.374405,-11.886488,-1.7363678
1.0721483,0.35056132,-0.7729032,-6.1757126,-11.515982,-1.6822445
1.0387319,0.33963513,-0.74881357,-5.9832296,-11.157055,-1.6298128
1.0063597,0.32905033,-0.7254766,-5.796761,-10.809343,-1.5790194
0.97499865,0.3187962,-0.70286876,-5.6161175,-10.472493,-1.5298127
0.9446171,0.3088623,-0.6809669,-5.441116,-10.146164,-1.4821428
0.9151842,0.29923862,-0.659749,-5.271579,-9.830024,-1.4359614
0.8866702,0.28991535,-0.6391934,-5.107334,-9.523754,-1.3912216
0.85904616,0.2808831,-0.6192795,-4.9482164,-9.227044,-1.3478785
0.8322843,0.27213275,-0.5999871,-4.7940645,-8.939593,-1.3058879
0.80635744,0.26365542,-0.5812966,-4.6447225,-8.661112,-1.2652076
0.78123945,0.2554426,-0.56318927,-4.5000396,-8.391319,-1.2257966
0.756905,0.24748592,-0.5456468,-4.3598704,-8.129942,-1.1876149
0.7333296,0.23977745,-0.5286514,-4.2240725,-7.8767176,-1.150624
0.7104894,0.23230936,-0.5121861,-4.09251,-7.63139,-1.1147869
0.68836135,0.22507414,-0.4962342,-3.96505,-7.3937125,-1.080067
0.6669233,0.21806452,-0.48077968,-3.841564,-7.1634455,-1.0464299
0.64615357,0.21127342,-0.46580696,-3.7219276,-6.940357,-1.0138413
0.62603134,0.20469403,-0.45130098,-3.6060207,-6.724223,-0.9822687
0.60653627,0.1983197,-0.43724713,-3.4937267,-6.5148263,-0.9516801
0.5876488,0.19214407,-0.4236313,-3.3849325,-6.3119555,-0.92204493
0.56935,0.18616088,-0.41043985,-3.279529,-6.1154075,-0.8933334
0.5516214,0.18036415,-0.39765945,-3.1774101,-5.924984,-0.8655165
0.5344452,0.17474805,-0.3852773,-3.0784733,-5.7404943,-0.83856636
0.51780427,0.16930693,-0.37328094,-2.982619,-5.561753,-0.812456
0.50168175,0.16403534,-0.36165836,-2.8897514,-5.388581,-0.78715914
0.48606154,0.15892798,-0.35039788,-2.799777,-5.2208033,-0.7626504
0.47092795,0.15397973,-0.33948818,-2.7126055,-5.058253,-0.73890513
0.45626578,0.14918563,-0.32891834,-2.6281495,-4.900766,-0.7158996
0.44206032,0.14454086,-0.31867775,-2.5463243,-4.7481847,-0.69361067
0.42829734,0.14004077,-0.30875614,-2.4670477,-4.600356,-0.672016
0.41496304,0.13568084,-0.29914355,-2.3902404,-4.457132,-0.65109396
0.40204406,0.1314567,-0.28983036,-2.3158255,-4.318369,-0.63082355
0.3895274,0.12736413,-0.2808072,-2.243728,-4.183927,-0.6111844
0.3774006,0.12339902,-0.27206507,-2.173876,-4.0536723,-0.59215695
0.36565143,0.11955738,-0.2635952,-2.1061993,-3.9274743,-0.573722
0.35426816,0.11583538,-0.2553891,-2.04063,-3.805206,-0.5558612
0.34323937,0.11222929,-0.2474385,-1.9771029,-3.6867454,-0.5385566
0.332554,0.10873549,-0.23973551,-1.9155538,-3.5719738,-0.5217908
0.32220137,0.10535047,-0.23227239,-1.8559213,-3.4607759,-0.5055471
0.3121711,0.10207087,-0.22504166,-1.7981457,-3.3530402,-0.4898092
0.30245316,0.09889338,-0.21803606,-1.742169,-3.2486594,-0.47456133
0.2930378,0.09581483,-0.21124859,-1.6879354,-3.1475286,-0.45978823
0.28391558,0.09283213,-0.20467247,-1.6353903,-3.0495467,-0.44547513
0.2750774,0.08994231,-0.19830109,-1.5844812,-2.9546156,-0.43160766
0.2665144,0.08714245,-0.19212809,-1.5351572,-2.8626401,-0.41817197
0.258218,0.08442978,-0.18614729,-1.4873688,-2.7735283,-0.4051546
0.25017992,0.08180155,-0.18035269,-1.4410684,-2.6871908,-0.39254248
0.24239206,0.079255156,-0.1747385,-1.3962095,-2.6035414,-0.38032305
0.23484668,0.07678803,-0.1692991,-1.3527471,-2.5224962,-0.36848402
0.22753622,0.07439772,-0.16402903,-1.3106378,-2.443974,-0.3570136
0.22045334,0.07208183,-0.15892304,-1.2698395,-2.3678968,-0.34590027
0.21359096,0.06983803,-0.15397602,-1.2303114,-2.2941878,-0.33513293
0.20694223,0.06766409,-0.14918299,-1.1920139,-2.2227733,-0.3247008
0.20050047,0.06555782,-0.14453919,-1.1549085,-2.1535823,-0.31459343
0.19425927,0.06351713,-0.14003995,-1.1189584,-2.0865452,-0.30480072
0.18821235,0.061539963,-0.13568078,-1.0841273,-2.0215952,-0.29531285
0.18235368,0.059624348,-0.1314573,-1.0503806,-1.9586669,-0.28612036
0.17667739,0.057768364,-0.12736532,-1.0176845,-1.8976977,-0.27721402
0.1711778,0.055970162,-0.1234007,-0.98600614,-1.8386265,-0.26858494
0.16584942,0.054227933,-0.11955952,-0.9553139,-1.7813941,-0.2602245
0.16068691,0.05253994,-0.1158379,-0.9255772,-1.7259434,-0.2521243
0.1556851,0.050904498,-0.11223214,-0.8967662,-1.6722188,-0.24427627
0.150839,0.049319964,-0.10873862,-0.868852,-1.6201667,-0.23667254
0.14614375,0.047784753,-0.10535386,-0.84180677,-1.5697349,-0.2293055
0.14159466,0.046297334,-0.10207446,-0.81560344,-1.520873,-0.22216779
0.13718718,0.044856217,-0.09889714,-0.7902158,-1.4735321,-0.21525228
