ax,ay,az,gx,gy,gz
-4.8327713,0.17818344,-6.0946007,51.714104,27.52116,55.375957
-5.6195273,0.01133259,-6.00188,49.495625,16.094929,34.981762
-6.141593,-0.26766708,-5.964432,55.51277,10.91331,13.459635
-6.696427,-0.5407091,-6.2005653,69.1021,3.89362,-5.091064
-7.2057915,-0.6719762,-6.5784955,77.49378,-5.6297636,-20.693367
-7.5884385,-0.83482224,-7.0300355,81.32541,-18.465366,-34.40977
-7.775063,-1.2586048,-7.5161595,84.51873,-31.675863,-46.433434
-7.781213,-1.8094472,-8.0201845,89.27596,-45.574127,-56.644093
-7.581072,-2.3666887,-8.462894,96.63397,-59.622547,-64.23987
-7.1997633,-2.863645,-8.799485,105.156876,-72.87952,-69.4036
-6.611218,-3.3039374,-9.036546,115.348145,-84.54998,-72.215324
-5.86227,-3.6187465,-9.155132,125.7289,-94.686676,-73.46064
-4.934322,-3.7904835,-9.141653,136.01418,-102.484406,-73.59479
-3.821716,-3.8662708,-9.010001,146.65628,-106.75903,-71.401024
-2.4751375,-3.8091302,-8.684945,157.14656,-107.67319,-65.9995
-1.125112,-3.502123,-8.166016,165.78375,-105.79854,-56.533363
0.15002418,-2.8404217,-7.4669986,170.07889,-101.8464,-43.202183
1.2616875,-2.0140939,-6.705182,169.59541,-96.971306,-28.17016
2.1644783,-1.2114496,-5.9580593,167.57953,-90.84268,-12.548694
2.8392425,-0.1871326,-5.1694613,163.7809,-84.71257,2.4009538
3.3572874,0.90670174,-4.384639,157.28253,-78.43545,15.794213
3.7321062,1.9862773,-3.628659,149.23128,-71.37191,26.611547
3.9489746,2.9843755,-2.942989,140.7654,-62.4297,33.853962
3.9913795,3.9026654,-2.358501,131.4949,-51.13766,35.5893
3.8462274,4.7160587,-1.9132186,121.44103,-40.0327,34.313637
3.616389,5.4195232,-1.5501913,110.383224,-30.222157,31.79487
3.3378336,6.0394783,-1.2517879,98.30329,-22.089663,28.626362
3.0700896,6.5898323,-1.009523,84.83845,-15.480468,24.568275
2.8624747,7.018024,-0.85826004,70.03788,-10.064259,19.034079
2.7479124,7.333162,-0.8384131,54.38776,-5.2861814,12.012434
2.7888756,7.378463,-0.9761006,38.700214,-0.6133289,4.047913
3.0455472,7.0683117,-1.245377,24.643631,4.4307075,-2.2708144
3.4962783,6.5514326,-1.5812153,12.389358,10.521264,-4.2244306
3.9847226,5.9431314,-1.9910507,1.2540101,18.786497,-2.1002471
4.390056,5.2105784,-2.5732656,-6.597762,28.230299,0.8754685
4.6845746,4.4533386,-3.1975026,-10.355015,37.345715,3.6617877
4.8983245,3.6593966,-3.7845998,-10.8959875,46.508415,7.2861233
5.0004864,2.9446516,-4.3221664,-9.111088,55.19212,12.588537
4.9987316,2.375543,-4.802224,-5.0100174,63.76903,19.473923
4.867214,1.9637563,-5.2628345,0.33977127,71.89548,26.682497
4.644397,1.6695219,-5.7183437,7.1116123,79.14162,33.55688
4.321615,1.5210688,-6.134579,14.169075,84.16483,39.387688
3.9353414,1.4853642,-6.4638433,20.612707,86.758545,44.033817
3.5442154,1.5109576,-6.719912,26.25348,86.70375,47.66022
3.169593,1.5721408,-6.9138203,31.38026,85.1388,50.9034
2.8246448,1.6395507,-7.0867767,36.47028,82.18871,54.06365
2.5264738,1.715087,-7.2473183,41.93601,78.33225,57.413746
2.2532067,1.8121814,-7.4009957,47.878933,73.4434,61.105057
1.99398,1.975385,-7.52585,53.939827,67.29146,64.74436
1.7362385,2.2528465,-7.6019707,59.417957,60.055916,67.83027
1.4748102,2.7096202,-7.5770135,62.50269,51.665344,68.68801
1.1999792,3.2933395,-7.4287033,62.254745,43.290295,66.24548
0.9269765,3.7639349,-7.3090487,60.389095,34.803394,61.92816
0.6823967,4.09999,-7.265373,57.3247,24.80019,57.198566
0.5071383,4.421196,-7.1896973,53.223774,14.495663,52.29506
0.3637427,4.72236,-7.109877,47.95247,4.1233044,47.3263
0.24274057,4.934018,-7.0652256,41.392166,-6.555266,42.37012
0.16311103,5.0431514,-7.060597,34.498817,-17.140038,37.22697
0.13510962,5.0783315,-7.0797544,28.157473,-27.383497,31.42859
0.16735314,5.117115,-7.0728245,22.07924,-37.44789,25.235863
0.27648214,5.1142526,-7.042654,16.108274,-47.02653,19.190102
0.48037663,5.0305614,-7.009361,10.356213,-56.062252,13.850336
0.76796407,4.8834634,-6.9632955,5.155239,-64.19402,9.088757
1.101625,4.705946,-6.897831,0.85421944,-70.79915,4.2673044
1.4754057,4.4947877,-6.821841,-2.9908078,-76.60802,-0.54768395
1.8941915,4.218496,-6.7370777,-6.708501,-81.9011,-4.4614387
2.358561,3.8669133,-6.6369576,-9.955717,-86.441376,-6.6794033
2.84781,3.4948955,-6.49412,-12.622702,-89.529816,-7.2799535
3.3111603,3.1300488,-6.3058147,-14.227329,-89.89266,-6.8915033
3.665769,2.847912,-6.058506,-15.461022,-88.43923,-6.0333796
3.8926349,2.6048818,-5.798868,-16.912086,-85.88182,-4.8326893
3.9984624,2.370075,-5.552425,-18.08989,-82.68348,-3.4195433
4.0109906,2.1694496,-5.318986,-18.895403,-79.23035,-2.0221183
3.9648132,2.0100336,-5.089906,-19.618246,-75.73609,-0.77912474
3.8822637,1.8907294,-4.85634,-20.497173,-72.03364,0.4056741
3.7651694,1.7865314,-4.647694,-20.945606,-68.26693,1.5594254
3.612695,1.7044791,-4.4621997,-20.945272,-64.7659,2.6176534
3.4468944,1.6273702,-4.2919617,-20.638435,-61.652493,3.5874796
3.2831602,1.5547196,-4.1340313,-19.78881,-58.87891,4.548969
3.1262388,1.4963379,-3.9729204,-18.799269,-56.223946,5.47357
2.983583,1.4482843,-3.8135464,-17.885908,-53.512432,6.3375373
2.8596895,1.4020936,-3.6595902,-17.203732,-50.588524,7.069911
2.7697277,1.3579859,-3.5444648,-16.662527,-48.99708,6.8475018
2.6826527,1.3152933,-3.4330335,-16.138689,-47.456703,6.632229
2.5983665,1.2739681,-3.3251712,-15.631627,-45.965664,6.423851
2.5167754,1.2339643,-3.2207575,-15.1407795,-44.522297,6.222136
2.4377885,1.1952374,-3.119677,-14.6656,-43.125004,6.0268598
2.3613193,1.1577449,-3.0218182,-14.2055645,-41.772247,5.8378077
2.287284,1.1214457,-2.9270737,-13.760172,-40.462547,5.6547728
2.2156017,1.0863001,-2.835341,-13.328936,-39.194473,5.4775553
2.146195,1.0522703,-2.7465198,-12.911388,-37.966652,5.305963
2.0789888,1.0193194,-2.660515,-12.507079,-36.77776,5.1398115
2.013911,0.98741204,-2.577234,-12.115575,-35.62652,4.978922
1.950892,0.9565141,-2.4965878,-11.736457,-34.5117,4.8231225
1.8898649,0.92659277,-2.4184904,-11.369321,-33.432117,4.6722474
1.8307648,0.89761627,-2.342859,-11.013779,-32.386623,4.526136
1.7735292,0.86955386,-2.2696137,-10.669453,-31.374115,4.3846345
1.7180978,0.8423761,-2.1986773,-10.33598,-30.393522,4.2475934
1.6644125,0.8160544,-2.1299753,-10.013012,-29.443817,4.114869
1.612417,0.7905612,-2.0634358,-9.700211,-28.524004,3.9863224
1.5620569,0.7658699,-1.9989892,-9.397246,-27.633123,3.861819
1.5132799,0.74195474,-1.9365684,-9.1038065,-26.770248,3.7412293
1.4660352,0.7187909,-1.8761086,-8.819586,-25.934479,3.6244278
1.4202739,0.6963543,-1.8175472,-8.544289,-25.124952,3.511294
1.3759487,0.6746218,-1.7608235,-8.27763,-24.340828,3.40171
1.3330137,0.653571,-1.7058789,-8.019336,-23.5813,3.2955635
1.2914248,0.63318014,-1.6526569,-7.7691393,-22.845583,3.1927445
1.2511392,0.61342824,-1.6011027,-7.526783,-22.132921,3.0931478
1.2121154,0.5942951,-1.5511634,-7.2920184,-21.442583,2.9966707
1.1743137,0.575761,-1.5027878,-7.0646048,-20.77386,2.9032147
1.1376951,0.5578071,-1.4559265,-6.84431,-20.12607,2.8126838
1.1022222,0.5404149,-1.4105314,-6.6309075,-19.49855,2.7249858
1.067859,0.5235668,-1.3665563,-6.4241805,-18.890657,2.6400309
1.0345705,0.50724554,-1.3239564,-6.223918,-18.301775,2.5577326
1.0023224,0.49143448,-1.2826881,-6.029916,-17.7313,2.478007
0.9710824,0.4761176,-1.2427096,-5.841977,-17.178658,2.4007733
0.9408184,0.4612793,-1.2039803,-5.6599107,-16.64328,2.3259528
0.91149986,0.44690454,-1.1664609,-5.483532,-16.12463,2.2534695
0.88309693,0.43297872,-1.1301132,-5.3126616,-15.622175,2.18325
0.8555809,0.4194877,-1.0949006,-5.147127,-15.135411,2.115223
0.82892394,0.4064179,-1.0607872,-4.98676,-14.663843,2.04932
0.80309904,0.39375606,-1.0277387,-4.8313985,-14.206995,1.9854738
0.77808005,0.38148937,-0.99572146,-4.680886,-13.764404,1.9236202
0.75384176,0.36960542,-0.9647033,-4.5350695,-13.335623,1.8636967
0.7303596,0.35809225,-0.93465286,-4.3938026,-12.920219,1.8056427
0.70761,0.3469382,-0.9055399,-4.2569423,-12.517774,1.7493997
0.68557,0.33613208,-0.87733483,-4.1243505,-12.127881,1.6949109
0.6642173,0.32566294,-0.85000944,-3.995894,-11.750147,1.6421213
0.6435304,0.31552026,-0.82353616,-3.8714428,-11.3841915,1.5909779
0.62348855,0.3056938,-0.7978882,-3.7508721,-11.029647,1.541429
0.6040715,0.2961737,-0.77303994,-3.6340601,-10.686155,1.493425
0.58525974,0.28695038,-0.7489662,-3.5208898,-10.353371,1.4469173
0.5670343,0.27801454,-0.72564286,-3.4112468,-10.030959,1.4018593
0.54937696,0.2693572,-0.70304644,-3.305021,-9.718597,1.3582056
0.5322699,0.26096967,-0.68115425,-3.2021058,-9.415969,1.3159124
0.5156959,0.25284353,-0.6599443,-3.1023977,-9.122772,1.274937
0.49963838,0.24497059,-0.63939524,-3.0057964,-8.838711,1.2352387
0.48408118,0.23734297,-0.61948645,-2.9122052,-8.5635,1.1967771
0.46900868,0.22995298,-0.6001979,-2.82153,-8.296865,1.159514
0.45440578,0.22279324,-0.5815103,-2.7336798,-8.038536,1.1234117
0.4402578,0.21585654,-0.5634049,-2.6485662,-7.788255,1.088434
0.4265505,0.20913592,-0.5458635,-2.566104,-7.5457706,1.054546
0.41327024,0.20262465,-0.5288685,-2.4862106,-7.3108397,1.0217136
0.4004036,0.1963162,-0.5124029,-2.4088056,-7.083226,0.98990387
0.38793772,0.19020423,-0.4964501,-2.3338115,-6.862702,0.9590849
0.3758601,0.18428262,-0.48099416,-2.2611532,-6.6490464,0.92922586
0.36415863,0.17854545,-0.46601963,-2.190758,-6.4420447,0.90029675
0.3528216,0.17298694,-0.45151144,-2.122555,-6.2414904,0.8722686
0.3418376,0.16760154,-0.43745506,-2.056476,-6.0471816,0.8451133
0.3311957,0.16238385,-0.42383644,-1.9924549,-5.8589234,0.81880367
0.32088518,0.15732865,-0.4106419,-1.9304273,-5.6765285,0.7933133
0.31089574,0.15243086,-0.39785823,-1.8703313,-5.4998126,0.76861674
0.30121735,0.14768559,-0.38547263,-1.8121066,-5.3286,0.74468917
0.2918403,0.14308807,-0.37347272,-1.755695,-5.1627183,0.72150666
0.28275526,0.13863371,-0.36184642,-1.7010398,-5.002002,0.699046
0.2739531,0.13431804,-0.35058215,-1.6480864,-4.846289,0.6772847
0.265425,0.13013676,-0.3396686,-1.5967818,-4.6954255,0.656201
0.25716242,0.12608565,-0.32909486,-1.5470747,-4.5492587,0.6357737
0.2491571,0.12216067,-0.3188503,-1.4989152,-4.407643,0.6159824
0.24140102,0.118357904,-0.30892473,-1.452255,-4.2704363,0.59680736
0.23388642,0.114673525,-0.29930818,-1.4070476,-4.1375012,0.57822925
0.22660579,0.111103855,-0.28999105,-1.3632476,-4.008705,0.5602296
0.21955182,0.107645325,-0.28096396,-1.3208114,-3.883919,0.5427903
0.21271744,0.104294464,-0.27221793,-1.2796962,-3.7630177,0.5258939
0.20609586,0.101047926,-0.26374415,-1.2398611,-3.6458802,0.50952363
0.1996804,0.09790246,-0.2555342,-1.2012662,-3.5323896,0.49366292
0.19346468,0.09485492,-0.24757984,-1.1638727,-3.422432,0.478296
0.18744247,0.09190225,-0.23987313,-1.1276433,-3.3158977,0.4634075
0.18160772,0.0890415,-0.2324063,-1.0925419,-3.2126799,0.44898248
0.17595463,0.08626981,-0.22517195,-1.0585332,-3.1126754,0.43500653
0.17047751,0.083584405,-0.2181628,-1.0255831,-3.015784,0.42146564
0.16517091,0.080982596,-0.21137184,-0.9936589,-2.9219089,0.4083463
0.16002949,0.07846178,-0.20479229,-0.96272844,-2.8309562,0.39563534
0.15504813,0.07601944,-0.19841757,-0.93276083,-2.7428348,0.3833201
0.15022184,0.07365313,-0.19224128,-0.90372616,-2.6574566,0.37138823
0.14554578,0.071360484,-0.18625726,-0.8755953,-2.5747364,0.3598278
0.14101529,0.069139205,-0.18045953,-0.8483401,-2.494591,0.3486272
0.13662583,0.06698707,-0.17484227,-0.8219334,-2.4169405,0.3377753
0.13237302,0.06490193,-0.16939986,-0.79634863,-2.3417072,0.3272612
0.12825258,0.0628817,-0.16412687,-0.7715603,-2.2688158,0.3170744
