ax,ay,az,gx,gy,gz
-3.8982174,1.6181965,-6.794607,-39.00763,44.278587,13.982854
-4.3869686,1.6428791,-7.645288,-30.454746,36.006363,8.367284
-4.784796,1.6548753,-8.221077,-19.7645,24.370335,0.29806247
-5.1070127,1.6867309,-8.728299,-7.3056273,10.470075,-9.860735
-5.338058,1.7033578,-9.145546,7.382882,-6.5649076,-24.570286
-5.376442,1.6708626,-9.469982,21.756527,-21.811342,-39.028763
-5.271617,1.530724,-9.711051,34.31431,-36.4347,-50.663208
-5.006008,1.2757831,-9.818991,44.452473,-49.66595,-58.094925
-4.6379266,0.98766154,-9.798081,53.631607,-61.140865,-61.87703
-4.2156806,0.76806307,-9.63396,61.728928,-71.35819,-63.26481
-3.6894515,0.62637204,-9.267858,68.31939,-79.79455,-63.284603
-3.1736996,0.51347935,-8.8041935,73.223625,-86.623344,-62.14957
-2.6844683,0.3783605,-8.2756405,77.03188,-92.37141,-60.2596
-2.1851225,0.24290174,-7.657592,79.881516,-97.19444,-57.72892
-1.6409742,0.14421844,-6.9193525,81.94499,-99.61324,-54.260487
-1.0817696,0.07663612,-6.047973,82.66937,-100.47047,-50.267136
-0.5550742,0.045313526,-5.1027074,82.56285,-99.891846,-46.06209
-0.066543795,0.070409335,-4.1142077,82.20476,-97.98264,-42.41249
0.39506754,0.15692812,-3.1092563,81.790535,-94.76252,-39.286125
0.82629174,0.3206091,-2.103192,79.69629,-89.925545,-35.83468
1.1804427,0.56872404,-1.1537403,75.787704,-84.14886,-32.1315
1.4643341,0.7870583,-0.35535774,70.73668,-77.710526,-28.36093
1.679232,0.9518333,0.27237377,65.29118,-70.92125,-24.826597
1.8422556,1.0568271,0.7416231,59.901566,-63.891773,-21.694786
1.9549679,1.1101413,1.0728959,54.89424,-56.468517,-18.934496
1.9947969,1.1478856,1.2623471,50.42011,-48.961292,-16.615658
1.9954815,1.2020134,1.3705317,46.311245,-41.535046,-14.886362
1.9775956,1.2760679,1.4285468,42.20819,-34.2475,-13.699572
1.9528081,1.3744229,1.4445,37.888317,-27.153133,-12.799469
1.9022977,1.4862462,1.4025278,33.623188,-20.5101,-11.860025
1.8147757,1.6147465,1.3020334,29.361666,-14.478758,-10.921438
1.7201014,1.7704333,1.1699959,24.526188,-9.161111,-10.082167
1.624648,1.9322596,1.0027097,19.169815,-4.4196577,-9.395326
1.5176399,2.0759566,0.79651856,13.772697,-0.22185473,-8.938539
1.397925,2.2086582,0.56080776,8.871711,3.4038687,-9.070208
1.2600534,2.3438258,0.3094307,4.470387,6.5867105,-9.88718
1.111939,2.5020432,0.06315304,0.72081536,9.317836,-11.664748
0.9620068,2.685536,-0.16687429,-2.6865249,11.565364,-14.476926
0.8150423,2.8490725,-0.3953627,-6.247866,13.282914,-17.69052
0.6718493,2.960449,-0.6414369,-10.007634,14.009076,-20.793068
0.5371697,3.0214756,-0.88656956,-13.512499,14.012332,-23.765984
0.41078994,3.0720365,-1.1170565,-16.837332,13.4440155,-26.944159
0.30379763,3.0858326,-1.34382,-20.147486,12.499294,-29.960026
0.20667,3.059703,-1.5782689,-23.369917,11.175832,-32.558678
0.10297378,3.0161023,-1.8164759,-26.615171,8.998745,-34.79014
-0.01732947,2.9352357,-2.0661373,-29.894062,6.2978177,-36.78596
-0.11731084,2.765064,-2.326314,-32.944996,2.8698368,-38.678402
-0.14151445,2.4714723,-2.5560644,-34.72694,-0.504722,-40.722164
-0.07992246,2.0680854,-2.7252045,-34.95176,-3.4570322,-42.565506
0.055828627,1.5771111,-2.824097,-33.903305,-6.1293178,-42.875103
0.25745612,1.030388,-2.8322895,-32.146404,-8.621349,-41.799572
0.48649997,0.49778315,-2.7675726,-29.604927,-10.693878,-39.54249
0.72123545,0.021070115,-2.6417086,-26.36891,-12.053487,-36.363945
0.93647045,-0.3719642,-2.4760036,-22.655632,-12.63111,-32.559795
1.116603,-0.671605,-2.2904556,-18.777159,-12.329944,-28.405792
1.2510968,-0.8831569,-2.0980093,-14.970938,-11.637015,-24.291912
1.3690461,-1.0493768,-1.914323,-11.225235,-10.774683,-20.034973
1.475032,-1.1565974,-1.7377322,-7.534872,-9.785477,-15.669826
1.5626832,-1.2160363,-1.5687089,-3.7992153,-8.6024,-11.237721
1.6272855,-1.2295854,-1.413965,0.22516178,-7.0200005,-6.72454
1.6487144,-1.1386485,-1.2679257,4.4704285,-5.201967,-2.8522446
1.638227,-0.9609918,-1.1190939,8.828111,-3.146992,0.018379608
1.5993408,-0.7197691,-0.9723662,12.580605,-1.0175142,2.428238
1.5198487,-0.43041992,-0.8475061,15.132882,0.81601864,4.650543
1.3998113,-0.113103606,-0.7515783,16.201298,1.8403829,6.1465335
1.2546842,0.20105505,-0.68580025,16.655087,2.2477067,6.770332
1.1039084,0.47971073,-0.652637,16.901789,1.8529165,6.647257
0.99482286,0.7275205,-0.61429167,15.738227,1.5671456,7.6334925
0.963051,0.7042856,-0.5946729,15.235593,1.5170954,7.3897004
0.93234235,0.68182814,-0.57571065,14.749777,1.46872,7.1540656
0.9026568,0.6601189,-0.55738014,14.280148,1.4219563,6.926282
0.87395626,0.63913,-0.5396579,13.826101,1.3767443,6.7060566
0.84620446,0.6188349,-0.5225215,13.387065,1.3330269,6.493111
0.81936675,0.59920835,-0.50594956,12.962488,1.2907494,6.2871795
0.79341,0.580226,-0.48992154,12.551849,1.2498597,6.088008
0.7683026,0.5618648,-0.47441804,12.154648,1.2103081,5.8953533
0.7440144,0.54410267,-0.45942032,11.770405,1.1720467,5.7089844
0.72051626,0.5269183,-0.4449105,11.398662,1.1350302,5.5286784
0.69778055,0.5102916,-0.43087146,11.03898,1.0992146,5.3542223
0.6757807,0.4942029,-0.4172868,10.690939,1.0645581,5.1854124
0.6544912,0.47863376,-0.40414077,10.354136,1.0310208,5.0220537
0.6338876,0.46356618,-0.39141828,10.028184,0.9985638,4.8639574
0.6139464,0.44898307,-0.37910482,9.712712,0.96715045,4.710944
0.5946451,0.43486786,-0.3671865,9.407362,0.93674505,4.562841
0.57596195,0.42120478,-0.35564986,9.111793,0.9073135,4.4194813
0.55787617,0.40797853,-0.3444821,8.825674,0.878823,4.2807055
0.5403677,0.3951745,-0.33367085,8.548688,0.8512419,4.1463594
0.52341735,0.38277856,-0.32320416,8.28053,0.8245399,4.016295
0.5070064,0.37077716,-0.31307063,8.020907,0.7986878,3.8903706
0.4911171,0.35915717,-0.30325916,7.7695365,0.7736573,3.7684484
0.47573218,0.34790608,-0.29375914,7.526145,0.7494214,3.6503966
0.46083504,0.33701172,-0.28456032,7.29047,0.725954,3.5360875
0.4464097,0.3264624,-0.27565286,7.0622597,0.7032297,3.4253988
0.43244073,0.31624678,-0.26702717,6.841269,0.6812244,3.318212
0.41891328,0.30635405,-0.25867411,6.6272626,0.65991455,3.214413
0.40581298,0.2967737,-0.25058484,6.420014,0.63927764,3.1138914
0.39312595,0.2874956,-0.24275075,6.2193036,0.6192918,3.016541
0.38083887,0.27850997,-0.23516361,6.0249205,0.5999359,2.9222596
0.3689388,0.2698074,-0.22781546,5.83666,0.58118975,2.8309479
0.35741332,0.26137874,-0.22069861,5.654325,0.5630336,2.7425103
0.34625036,0.25321516,-0.2138056,5.4777255,0.5454486,2.6568544
0.33543828,0.24530824,-0.20712927,5.3066773,0.52841634,2.573891
0.3249659,0.23764971,-0.20066269,5.1410027,0.51191914,2.493534
0.3148223,0.23023163,-0.19439915,4.98053,0.4959399,2.4157
0.30499703,0.22304635,-0.18833216,4.825093,0.48046216,2.3403087
0.29547992,0.21608643,-0.18245545,4.674531,0.46546987,2.2672818
0.2862612,0.20934471,-0.176763,4.5286894,0.45094758,2.1965444
0.27733135,0.20281427,-0.17124891,4.3874183,0.4368804,2.1280239
0.26868123,0.19648837,-0.16590758,4.250572,0.42325386,2.0616496
0.26030198,0.19036056,-0.16073348,4.118011,0.410054,1.9973538
0.252185,0.18442455,-0.15572132,3.9895995,0.3972673,1.9350704
0.24432199,0.17867428,-0.15086602,3.8652055,0.3848807,1.8747358
0.23670493,0.17310388,-0.14616257,3.7447028,0.37288156,1.8162885
0.22932607,0.16770768,-0.14160621,3.6279683,0.36125764,1.759669
0.2221779,0.16248016,-0.1371923,3.5148833,0.3499971,1.7048193
0.21525311,0.15741603,-0.13291632,3.4053323,0.3390885,1.651684
0.20854472,0.15251014,-0.12877396,3.2992046,0.32852072,1.600209
0.20204587,0.14775749,-0.12476099,3.1963918,0.31828308,1.550342
0.19575,0.14315327,-0.12087337,3.0967903,0.3083652,1.5020323
0.18965071,0.13869283,-0.11710713,3.000299,0.298757,1.4552312
0.18374184,0.13437162,-0.11345847,2.9068198,0.28944874,1.4098911
0.17801741,0.1301853,-0.1099237,2.8162584,0.28043103,1.3659663
0.17247163,0.12612964,-0.10649924,2.7285235,0.27169475,1.3234123
0.16709888,0.12220052,-0.10318164,2.643526,0.26323107,1.2821862
0.16189377,0.11839399,-0.09996754,2.5611806,0.25503144,1.2422462
0.15685102,0.11470619,-0.096853696,2.4814036,0.2470876,1.203552
0.15196556,0.11113342,-0.09383698,2.404115,0.23939152,1.1660649
0.14723246,0.107672065,-0.09091435,2.3292365,0.23193546,1.1297467
0.14264694,0.10431865,-0.08808284,2.2566931,0.22471188,1.094561
0.1382044,0.101069786,-0.08533962,2.1864114,0.21771353,1.0604724
0.13390034,0.09792221,-0.082681924,2.118321,0.21093337,1.0274465
0.12973048,0.09487276,-0.08010708,2.052353,0.20436457,0.9954502
0.12569058,0.09191835,-0.07761248,1.9884413,0.1980005,0.9644512
0.12177659,0.08905603,-0.07519564,1.9265215,0.1918348,0.9344183
0.117984585,0.08628291,-0.072854124,1.8665315,0.18586124,0.9053214
0.11431075,0.08359621,-0.07058557,1.8084109,0.18007386,0.8771312
0.11075138,0.08099322,-0.0683877,1.7521013,0.17446679,0.8498195
0.10730293,0.07847134,-0.066258326,1.6975464,0.16903442,0.8233587
0.103961915,0.076028034,-0.06419528,1.644691,0.16377132,0.7977224
0.10072499,0.07366085,-0.06219652,1.5934824,0.15867218,0.7728847
0.0975889,0.071367405,-0.06026002,1.543869,0.1537319,0.74882084
0.094550505,0.06914541,-0.058383845,1.4958012,0.14894551,0.7255066
0.09160675,0.066992626,-0.056566115,1.4492308,0.14430822,0.7029185
0.0887547,0.064906895,-0.054805003,1.4041108,0.13981538,0.6810341
0.08599147,0.062886134,-0.053098742,1.3603963,0.13546246,0.6598313
0.08331431,0.060928307,-0.051445626,1.3180432,0.13124512,0.63928884
0.08072053,0.059031457,-0.049843997,1.2770092,0.12715913,0.6193862
0.07820752,0.05719368,-0.048292246,1.2372532,0.1232004,0.6001034
0.075772785,0.055413138,-0.04678882,1.1987352,0.119364955,0.5814211
0.073413864,0.053688046,-0.045332216,1.1614169,0.11564894,0.5633206
0.0711284,0.05201667,-0.043920968,1.1252606,0.11204865,0.5457837
0.06891411,0.050397344,-0.042553667,1.0902301,0.10856047,0.528793
0.066768765,0.048828438,-0.041228943,1.0562905,0.10518091,0.51233125
0.064690225,0.04730839,-0.03994547,1.0234078,0.10190658,0.49638218
0.06267641,0.04583567,-0.03870196,0.9915489,0.098734215,0.4809297
0.060725287,0.044408806,-0.037497167,0.960682,0.09566062,0.46595836
0.05883492,0.04302637,-0.036329888,0.9307761,0.09268272,0.45145318
0.057003416,0.041686974,-0.035198953,0.90180147,0.08979754,0.43739963
0.05522893,0.040389284,-0.03410323,0.8737289,0.087002195,0.4237836
0.053509694,0.039131995,-0.03304162,0.8465303,0.08429389,0.41059154
0.051843986,0.03791385,-0.032013062,0.8201786,0.08166989,0.3978102
0.050230138,0.03673363,-0.03101653,0.7946473,0.079127595,0.38542676
0.04866653,0.035590157,-0.030051023,0.7699109,0.07666444,0.37342888
0.047151607,0.03448228,-0.029115573,0.74594456,0.07427798,0.36180454
0.045683842,0.0334089,-0.028209247,0.7227243,0.07196581,0.35054207
0.044261776,0.03236893,-0.027331136,0.700227,0.069725625,0.33963025
0.042883977,0.031361338,-0.026480364,0.67843014,0.06755518,0.3290581
0.041549075,0.030385114,-0.025656076,0.6573118,0.06545231,0.3188151
0.04025573,0.029439282,-0.024857448,0.6368509,0.063414894,0.30889097
0.039002646,0.028522894,-0.024083685,0.6170269,0.06144091,0.2992758
0.03778857,0.027635032,-0.023334008,0.5978201,0.05952838,0.28995994
0.03661229,0.026774812,-0.02260767,0.57921124,0.057675388,0.2809341
0.03547263,0.02594137,-0.021903941,0.5611816,0.055880077,0.27218923
0.034368448,0.025133872,-0.02122212,0.5437133,0.054140653,0.26371658
0.033298634,0.024351513,-0.020561524,0.5267888,0.05245538,0.25550768
0.032262128,0.023593508,-0.019921493,0.51039106,0.050822567,0.24755433
0.031257886,0.022859098,-0.019301385,0.4945038,0.04924058,0.23984855
0.030284904,0.022147551,-0.01870058,0.4791111,0.047707845,0.23238266
0.02934221,0.021458153,-0.018118476,0.46419758,0.046222817,0.22514917
0.028428862,0.020790216,-0.017554495,0.4497483,0.04478402,0.21814086
