ax,ay,az,gx,gy,gz
3.6236694,10.736462,0.07818253,-31.73847,-36.122147,-48.21862
4.4848027,11.5052595,0.093342505,-49.070683,-35.632748,-50.835556
5.0041943,11.649954,0.11585344,-61.438347,-34.27553,-54.999695
5.401469,11.857807,0.27011812,-70.97719,-31.024601,-59.719658
5.706612,12.187349,0.55007464,-79.92625,-25.938873,-67.38553
5.9398518,12.483519,0.8073991,-89.10262,-18.878597,-76.87976
6.1568184,12.854535,1.1060703,-99.191635,-12.028746,-86.72712
6.3747454,13.114721,1.2762128,-110.41941,-5.861483,-96.23083
6.5554414,13.1864805,1.265621,-121.66526,-0.4335378,-106.29965
6.762601,13.067243,1.1060283,-131.39989,5.2873635,-117.51879
6.9941473,12.820507,0.8788071,-140.26477,11.381097,-129.07898
7.1620474,12.397451,0.53222954,-148.57771,17.162827,-139.94366
7.276441,11.799854,0.09410172,-154.96645,21.29157,-150.80688
7.444346,11.082468,-0.3566442,-159.87859,24.444744,-160.76
7.608193,10.271916,-0.80607766,-163.9585,26.414467,-168.39781
7.738833,9.372804,-1.2431886,-166.30922,27.88942,-174.4612
7.866833,8.3427305,-1.6478736,-166.95029,28.894745,-179.35722
8.011102,7.2778535,-1.9960917,-166.47151,29.352348,-182.43935
8.123602,6.1736603,-2.2914927,-165.06955,29.221527,-183.41396
8.23475,5.042835,-2.514443,-163.06573,29.065685,-182.64767
8.326059,3.8719075,-2.6876068,-159.31812,29.681559,-179.57948
8.365288,2.6697257,-2.8049085,-153.87569,30.671986,-175.35349
8.423398,1.5158416,-2.846208,-146.78316,32.09003,-169.8435
8.50029,0.47359574,-2.8098867,-138.68298,34.199883,-162.88322
8.53354,-0.43585542,-2.7150786,-129.93408,36.8133,-155.03806
8.543621,-1.2182459,-2.580501,-120.52645,40.105686,-146.16199
8.541387,-1.8614924,-2.4317539,-110.86446,43.73034,-136.93692
8.554439,-2.3758965,-2.2754703,-101.09564,47.838116,-127.65103
8.581507,-2.7757492,-2.1376886,-91.724434,52.427906,-117.89848
8.583469,-3.0683615,-2.023455,-82.84309,57.44848,-107.89957
8.546052,-3.249661,-1.9321162,-74.71304,62.849712,-97.7485
8.479075,-3.3029776,-1.901798,-67.56788,67.90424,-87.59732
8.39731,-3.2931733,-1.9114912,-61.229088,72.95192,-77.5404
8.276642,-3.2231846,-1.9685292,-55.49261,78.02837,-68.0683
8.129898,-3.0829437,-2.0483537,-50.673298,82.89837,-59.067696
7.977393,-2.870062,-2.1394393,-47.128044,87.3241,-50.248528
7.777374,-2.6111279,-2.289275,-44.493717,90.78748,-41.48484
7.5328755,-2.3331163,-2.4812794,-42.51158,93.359375,-33.18964
7.2389517,-2.0368185,-2.7064638,-40.86395,95.09924,-25.733576
6.8991847,-1.7170212,-2.941711,-39.421066,96.0118,-19.315792
6.530387,-1.3816475,-3.1699257,-38.539635,95.67579,-14.055371
6.167215,-1.050427,-3.3965974,-38.11612,94.36969,-9.485495
5.827112,-0.7438853,-3.6266844,-38.147587,92.14252,-5.382538
5.4953547,-0.46902683,-3.8638186,-38.209995,89.18539,-2.0087965
5.1888037,-0.23336464,-4.1072564,-37.76132,85.824554,0.15078896
4.9147034,-0.023045562,-4.3501496,-36.924217,81.7329,1.5114634
4.677347,0.16800186,-4.5907893,-36.09845,77.15906,2.573745
4.47539,0.32930452,-4.835752,-35.182716,72.404655,3.477742
4.287244,0.46897882,-5.09065,-33.99982,67.50759,4.2831283
4.085741,0.60219043,-5.3564053,-32.464222,62.166454,4.690419
3.8859491,0.73746413,-5.620847,-30.519094,56.109085,4.5754623
3.6866274,0.8842478,-5.883809,-28.304686,49.475597,4.0900426
3.4948828,1.0446273,-6.1343694,-26.109177,42.331688,3.3478343
3.3103452,1.2126496,-6.3804345,-24.142382,34.711216,2.4223719
3.1287282,1.3883703,-6.626393,-22.424633,26.413727,1.2623949
2.9739935,1.5603282,-6.867554,-21.050106,17.321918,-0.36650077
2.8816903,1.7396959,-7.0659537,-20.044827,8.212357,-2.275196
2.8267732,1.9277893,-7.218906,-19.67794,-1.1981521,-4.2409387
2.8310275,2.08461,-7.3096323,-20.508629,-10.925561,-5.701562
2.877215,2.1339052,-7.339155,-22.001648,-20.593609,-6.893578
2.934052,2.070503,-7.277012,-22.369457,-29.748264,-9.960699
3.2237813,1.9155293,-7.0242133,-22.269592,-38.97002,-13.988241
3.8605216,1.6850511,-6.5809946,-22.59337,-46.567318,-16.410158
4.568903,1.4108474,-6.022402,-23.098812,-52.066017,-17.08547
5.1244273,1.1676147,-5.4258776,-23.977692,-55.98951,-16.814611
5.538974,0.95927125,-4.8411107,-24.673698,-58.38371,-16.0905
5.8256764,0.77056384,-4.290298,-25.1368,-59.65599,-15.077991
6.007778,0.6082886,-3.786434,-25.344076,-60.053543,-13.9630165
6.1229186,0.48158473,-3.3320503,-25.209106,-59.743767,-12.83094
6.184016,0.3908479,-2.9198787,-24.897665,-58.747597,-11.773701
6.1921988,0.32628167,-2.5500636,-24.460546,-57.30463,-10.747801
6.1575036,0.26827753,-2.2360482,-23.929256,-55.59903,-9.748184
6.0976624,0.20749113,-1.963405,-23.041496,-53.50017,-8.930857
6.020224,0.15324223,-1.7232748,-21.704834,-50.829697,-8.297252
5.9279046,0.10685648,-1.5152618,-20.116234,-47.784782,-7.657359
5.8284473,0.05591276,-1.3408586,-18.123768,-44.644413,-6.8935666
5.715291,-0.013158639,-1.2045166,-15.706212,-41.60457,-6.0388947
5.5991516,-0.102501586,-1.0922548,-13.028041,-38.528694,-5.0693984
5.4224715,-0.09926718,-1.057789,-12.616944,-37.31293,-4.909435
5.25151,-0.09613745,-1.0244386,-12.219152,-36.136517,-4.754648
5.086069,-0.09310877,-0.99216515,-11.834206,-34.99809,-4.60486
4.9259577,-0.09017768,-0.9609314,-11.461661,-33.896336,-4.4598975
4.770994,-0.08734082,-0.9307019,-11.101093,-32.830006,-4.3195953
4.6210027,-0.08459499,-0.90144235,-10.752096,-31.797892,-4.1837955
4.475816,-0.0819371,-0.87312,-10.414276,-30.798836,-4.052345
4.335271,-0.079364195,-0.8457032,-10.087257,-29.831722,-3.9250972
4.199212,-0.07687342,-0.81916153,-9.7706785,-28.895481,-3.8019116
4.06749,-0.074462034,-0.79346585,-9.464189,-27.989079,-3.6826522
3.9399605,-0.072127394,-0.768588,-9.167455,-27.111526,-3.5671885
3.8164842,-0.06986696,-0.7445009,-8.880152,-26.261866,-3.4553947
3.6969275,-0.06767828,-0.72117835,-8.601968,-25.439177,-3.3471496
3.5811615,-0.065559,-0.6985953,-8.332605,-24.64257,-3.2423368
3.4690619,-0.06350683,-0.6767274,-8.071773,-23.871193,-3.1408432
3.3605087,-0.061519586,-0.65555143,-7.8191924,-23.124222,-3.0425606
3.2553864,-0.059595153,-0.6350447,-7.5745955,-22.400858,-2.947384
3.1535835,-0.057731483,-0.6151855,-7.3377213,-21.700335,-2.8552132
3.0549924,-0.055926614,-0.5959528,-7.1083207,-21.021912,-2.76595
2.9595091,-0.054178637,-0.5773264,-6.8861513,-20.364876,-2.6795008
2.8670335,-0.05248572,-0.5592867,-6.67098,-19.728537,-2.5957744
2.7774687,-0.05084609,-0.5418148,-6.4625816,-19.112225,-2.5146835
2.6907208,-0.049258027,-0.5248925,-6.260738,-18.515299,-2.4361434
2.6067,-0.04771989,-0.5085021,-6.0652394,-17.937138,-2.360072
2.5253186,-0.046230074,-0.49262667,-5.875882,-17.37714,-2.2863903
2.4464927,-0.04478703,-0.47724968,-5.6924706,-16.834724,-2.2150223
2.37014,-0.043389276,-0.4623552,-5.5148144,-16.30933,-2.1458938
2.2961826,-0.04203536,-0.44792792,-5.3427305,-15.800415,-2.0789335
2.2245436,-0.040723894,-0.43395296,-5.176042,-15.307455,-2.0140724
2.1551495,-0.03945352,-0.4204159,-5.014577,-14.829944,-1.951244
2.0879292,-0.038222946,-0.4073029,-4.8581696,-14.36739,-1.8903837
2.0228138,-0.0370309,-0.39460048,-4.7066593,-13.919318,-1.831429
1.9597363,-0.035876166,-0.38229567,-4.5598917,-13.485273,-1.7743195
1.8986328,-0.034757566,-0.37037587,-4.4177165,-13.064809,-1.7189971
1.8394405,-0.033673953,-0.35882893,-4.279989,-12.657496,-1.6654053
1.7820991,-0.03262423,-0.34764308,-4.1465673,-12.262921,-1.6134892
1.7265505,-0.03160732,-0.33680692,-4.0173173,-11.880682,-1.5631961
1.6727378,-0.03062219,-0.3263094,-3.8921068,-11.510388,-1.5144749
1.6206067,-0.029667845,-0.3161399,-3.7708087,-11.151665,-1.467276
1.5701039,-0.02874331,-0.3062881,-3.6532996,-10.804147,-1.4215515
1.5211785,-0.027847651,-0.296744,-3.5394604,-10.4674835,-1.3772551
1.4737808,-0.026979959,-0.28749788,-3.429176,-10.141332,-1.3343418
1.4278628,-0.026139354,-0.2785404,-3.3223345,-9.825362,-1.2927682
1.383378,-0.02532499,-0.26986256,-3.218828,-9.519256,-1.2524923
1.3402816,-0.02453604,-0.2614555,-3.1185517,-9.222702,-1.2134734
1.29853,-0.023771707,-0.2533108,-3.0214043,-8.935401,-1.1756719
1.2580808,-0.02303122,-0.24542019,-2.9272878,-8.657064,-1.1390499
1.2188935,-0.022313831,-0.23777571,-2.8361073,-8.38741,-1.1035702
1.1809285,-0.021618819,-0.23036967,-2.7477705,-8.126165,-1.069197
1.1441474,-0.020945482,-0.2231946,-2.6621888,-7.873069,-1.035896
1.1085132,-0.02029314,-0.21624327,-2.5792756,-7.6278644,-1.0036333
1.0739901,-0.019661138,-0.20950867,-2.4989476,-7.390305,-0.9723765
1.0405432,-0.01904884,-0.20298402,-2.421124,-7.1601515,-0.9420942
1.008139,-0.018455628,-0.19666277,-2.3457263,-6.937173,-0.91275585
0.9767449,-0.017880905,-0.19053856,-2.2726786,-6.7211447,-0.884332
0.9463292,-0.017324097,-0.18460521,-2.2019076,-6.511849,-0.856794
0.9168614,-0.016784642,-0.17885679,-2.1333425,-6.3090763,-0.83011425
0.8883119,-0.016261997,-0.1732875,-2.0669138,-6.1126223,-0.8042659
0.860652,-0.015755637,-0.16789174,-2.0025551,-5.9222903,-0.779223
0.83385396,-0.015265055,-0.1626641,-1.9402018,-5.7378883,-0.7549604
0.80789083,-0.014789758,-0.15759934,-1.879791,-5.5592318,-0.7314538
0.7827366,-0.014329269,-0.15269238,-1.8212624,-5.3861413,-0.70867944
0.758366,-0.013883124,-0.14793828,-1.7645571,-5.218443,-0.6866146
0.7347545,-0.013450879,-0.14333227,-1.7096182,-5.0559683,-0.66523707
0.71187854,-0.013032096,-0.13886975,-1.6563908,-4.8985553,-0.64452547
0.68971515,-0.012626359,-0.13454622,-1.6048212,-4.746045,-0.624459
0.66824204,-0.012233259,-0.13035735,-1.5548579,-4.598285,-0.6050176
0.64743775,-0.011852403,-0.12629895,-1.5064507,-4.4551272,-0.58618164
0.6272814,-0.0114834085,-0.12236695,-1.4595511,-4.316428,-0.56793237
0.6077528,-0.0111259045,-0.11855741,-1.4141121,-4.1820483,-0.55025136
0.5888324,-0.010779535,-0.1148665,-1.3700882,-4.0518537,-0.53312105
0.5705011,-0.010443952,-0.11129054,-1.3274354,-3.9257133,-0.5165242
0.55274075,-0.01011882,-0.10782593,-1.2861106,-3.8035011,-0.5004442
0.53553337,-0.009803811,-0.1044692,-1.2460729,-3.6850946,-0.4848649
0.5188619,-0.009498612,-0.10121701,-1.2072818,-3.5703752,-0.46977073
0.5027095,-0.009202916,-0.09806608,-1.1696986,-3.4592278,-0.45514655
0.48706004,-0.008916427,-0.09501326,-1.1332856,-3.3515413,-0.44097775
0.47189787,-0.008638859,-0.0920555,-1.0980065,-3.2472079,-0.42725012
0.45720777,-0.008369933,-0.08918983,-1.0638257,-3.146123,-0.4139499
0.44297507,-0.0081093805,-0.08641338,-1.0307093,-3.0481853,-0.40106383
0.4291855,-0.00785694,-0.08372339,-0.99862385,-2.9532971,-0.38857892
0.41582528,-0.0076123592,-0.08111714,-0.96753746,-2.8613632,-0.37648275
0.40288103,-0.0073753935,-0.07859203,-0.9374189,-2.7722914,-0.36476317
0.39033976,-0.007145805,-0.076145545,-0.908238,-2.685993,-0.3534085
0.37818894,-0.0069233645,-0.073775224,-0.8799656,-2.6023812,-0.3424073
0.3664164,-0.006707849,-0.0714787,-0.85257345,-2.5213723,-0.3317486
0.3550104,-0.006499043,-0.06925367,-0.826034,-2.4428856,-0.32142174
0.34395945,-0.006296738,-0.06709791,-0.80032086,-2.3668425,-0.31141636
0.33325255,-0.006100731,-0.06500926,-0.7754082,-2.2931664,-0.3017225
0.322879,-0.005910826,-0.06298564,-0.75127107,-2.221784,-0.29233038
0.31282836,-0.005726833,-0.06102501,-0.72788537,-2.1526241,-0.2832307
0.30309063,-0.0055485675,-0.059125416,-0.70522773,-2.085617,-0.27441427
0.29365602,-0.005375852,-0.057284962,-0.6832754,-2.020696,-0.2658723
0.2845151,-0.005208513,-0.0555018,-0.66200644,-1.957796,-0.25759625
0.2756588,-0.005046383,-0.05377415,-0.6413996,-1.896854,-0.24957784
0.26707813,-0.0048893,-0.05210028,-0.6214343,-1.8378092,-0.24180903
0.2587646,-0.0047371075,-0.050478518,-0.6020905,-1.7806023,-0.23428206
0.25070986,-0.0045896526,-0.04890724,-0.5833488,-1.7251765,-0.22698942
0.24290587,-0.0044467878,-0.047384877,-0.56519055,-1.6714758,-0.21992378
0.23534481,-0.00430837,-0.0459099,-0.5475976,-1.6194469,-0.2130781
0.22801912,-0.0041742614,-0.04448084,-0.5305522,-1.5690376,-0.20644552
0.22092146,-0.0040443274,-0.043096267,-0.5140375,-1.5201974,-0.20001939
