ax,ay,az,gx,gy,gz
1.944563,-0.45273137,-0.61727834,-44.500404,25.080227,2.7745707
0.99993724,-0.6315345,-2.0217705,-28.560963,28.834202,-2.444444
0.005576022,-1.1943167,-3.3061059,-16.707571,20.896536,-12.443701
-0.39409104,-1.95045,-4.4508004,-8.045158,5.784674,-19.034975
-0.15769826,-3.0120747,-5.3211646,-2.7004523,-9.145547,-16.399143
0.30231375,-4.2778945,-6.082226,1.2513561,-21.025646,-7.0894856
0.5357708,-5.2367516,-6.661381,6.604434,-32.607586,3.1041646
0.6662405,-5.743467,-6.916937,14.104106,-43.65051,11.741648
0.7688577,-5.8153663,-6.851625,21.260525,-53.914764,19.74007
0.8641212,-5.577869,-6.5065255,25.511326,-63.313774,28.268158
1.0227711,-5.096021,-5.798797,28.340895,-70.177734,35.88463
1.1700267,-4.438929,-4.938489,30.6791,-74.39082,41.364174
1.2799326,-3.612419,-3.9917648,32.178043,-75.898766,44.404152
1.333615,-2.7190187,-3.0684595,32.465794,-75.314415,45.428135
1.3363992,-1.7957405,-2.2280753,31.957018,-72.94575,43.68797
1.3506888,-0.8157586,-1.4922513,31.195173,-69.184586,40.438633
1.3643152,0.16287416,-0.8983831,29.304882,-64.55288,35.760258
1.3639927,1.1164566,-0.46740395,25.975718,-59.86303,29.973457
1.3620183,1.9921365,-0.2020607,21.34379,-55.37925,23.287176
1.3554345,2.6847713,-0.1240681,15.536003,-51.183273,14.973949
1.3075334,3.1113312,-0.23798238,10.817973,-47.554005,4.861478
1.3007594,3.3695407,-0.37389484,7.288738,-44.26587,-6.08075
1.3109194,3.488475,-0.50607413,3.3320205,-41.931705,-15.863196
1.3156023,3.5008318,-0.6043301,-1.3908263,-40.54244,-24.392374
1.3208333,3.363287,-0.67567337,-5.9695067,-39.9344,-32.172985
1.4177564,2.9326925,-0.6972867,-9.519216,-39.443478,-39.054024
1.6646061,2.2695467,-0.63031846,-11.987233,-38.016457,-43.913303
1.9421431,1.4596686,-0.5272081,-13.984291,-35.77164,-45.869877
2.1251585,0.6393157,-0.4313389,-15.63987,-33.403225,-45.179825
2.2052977,-0.100368656,-0.33438152,-16.860252,-31.529814,-42.222076
2.2368436,-0.71909225,-0.18833673,-17.253973,-29.392357,-38.547287
2.246493,-1.2476398,-0.023166006,-15.97825,-26.4729,-34.520195
2.2287843,-1.6142435,0.16333695,-13.697302,-22.667858,-30.207481
2.1784735,-1.8240223,0.35486788,-11.416334,-18.429226,-25.21959
2.104474,-1.9077889,0.53658277,-9.56501,-13.887832,-19.634682
2.0166898,-1.8627454,0.6820968,-7.830717,-9.245233,-14.273907
1.9215783,-1.7159287,0.7846295,-5.953226,-4.8441386,-10.2967005
1.842628,-1.532512,0.8565088,-3.956159,-0.31784615,-7.430205
1.7786013,-1.3287681,0.8738212,-1.9898183,4.279243,-5.290365
1.703583,-1.1146476,0.7801097,-0.44408125,7.9034476,-3.7556148
1.6145322,-0.9067676,0.5373831,0.89346707,10.383989,-2.6915083
1.540834,-0.70241857,0.1888821,2.0218098,11.664515,-2.087027
1.4753385,-0.48395914,-0.26517826,3.048147,11.903031,-2.2472236
1.3969909,-0.3009776,-0.83507156,4.240882,10.790037,-3.0462673
1.3241543,-0.16601478,-1.4915116,5.286644,7.432256,-4.1081862
1.271329,-0.12365413,-2.1847892,6.140079,2.480282,-4.8032126
1.2181977,-0.13226055,-2.8702834,7.116326,-3.8031857,-5.0987997
1.1711686,-0.13791075,-3.4800205,8.574179,-10.9095545,-5.4640102
1.123908,-0.13044712,-3.950011,9.73229,-18.934261,-5.4899898
1.1149943,-0.13121177,-4.228028,9.423003,-27.772078,-4.6726875
1.1893969,-0.20166093,-4.2126136,8.609097,-36.432365,-3.3643491
1.3452444,-0.2511088,-3.9369833,7.930944,-44.07531,-2.2333727
1.5851666,-0.25805387,-3.4161997,7.6986327,-49.969826,-1.3757648
1.8741806,-0.22226141,-2.7255929,7.4912853,-53.83998,-0.538218
2.1464176,-0.144204,-1.9550904,7.036864,-55.05898,-0.08565395
2.3508475,-0.05258542,-1.2023587,6.123819,-54.476704,0.26563442
2.4925795,0.002316079,-0.5740126,4.607838,-52.723473,0.5599521
2.5728867,-0.0038883502,-0.10745775,2.9046054,-50.223446,0.8336398
2.604678,-0.057241317,0.20043473,1.5136155,-47.25469,0.97589463
2.6038415,-0.13860032,0.38422891,1.1899521,-43.703514,0.7771062
2.580037,-0.20825532,0.45600733,1.4922987,-39.869156,0.44260025
2.5350683,-0.23578496,0.46757302,1.5883154,-35.945583,0.31159753
2.4738553,-0.22089322,0.42896658,1.3357708,-32.12688,0.43959057
2.399957,-0.1864602,0.35944983,0.72788423,-28.445986,0.7521115
2.32274,-0.18046097,0.3478848,0.7044651,-27.530756,0.72791284
2.248159,-0.17466654,0.33671454,0.68184537,-26.646769,0.70454025
2.17611,-0.16906883,0.3259235,0.6599936,-25.792793,0.6819611
2.1064944,-0.16366018,0.31549695,0.6388799,-24.96766,0.6601447
2.0392191,-0.15843335,0.30542088,0.61847585,-24.170265,0.6390615
1.9741948,-0.15338139,0.29568195,0.5987546,-23.399551,0.6186838
1.9113369,-0.14849776,0.28626752,0.5796904,-22.654514,0.5989851
1.8505647,-0.1437762,0.27716547,0.5612588,-21.9342,0.57994
1.7918015,-0.13921069,0.26836428,0.54343647,-21.237698,0.56152445
1.7349738,-0.13479556,0.259853,0.5262011,-20.564135,0.5437155
1.6800115,-0.13052538,0.25162113,0.5095316,-19.912683,0.5264911
1.6268477,-0.12639491,0.2436586,0.49340755,-19.282549,0.50983036
1.5754185,-0.12239921,0.23595585,0.47780952,-18.672972,0.49371314
1.5256622,-0.11853349,0.22850369,0.4627189,-18.083225,0.47812027
1.4775203,-0.1147932,0.22129332,0.44811794,-17.512615,0.46303332
1.4309366,-0.11117396,0.21431631,0.43398952,-16.96047,0.44843465
1.385857,-0.10767158,0.20756458,0.4203173,-16.426155,0.43430734
1.3422297,-0.104282044,0.20103037,0.40708557,-15.909054,0.4206352
1.3000051,-0.10100148,0.19470625,0.39427924,-15.408578,0.4074026
1.2591354,-0.097826175,0.18858504,0.38188383,-14.924161,0.39459464
1.2195746,-0.09475258,0.1826599,0.36988544,-14.455259,0.38219687
1.1812788,-0.09177726,0.1769242,0.35827067,-14.00135,0.37019554
1.1442055,-0.088896915,0.1713716,0.34702668,-13.561931,0.35857728
1.1083137,-0.08610837,0.16599596,0.33614105,-13.136517,0.34732935
1.0735643,-0.08340858,0.16079143,0.32560188,-12.724642,0.33643937
1.0399193,-0.0807946,0.1557523,0.31539768,-12.325858,0.32589555
1.0073423,-0.078263596,0.15087314,0.30551744,-11.9397335,0.3156864
0.97579837,-0.07581284,0.14614868,0.2959504,-11.565851,0.30580097
0.9452533,-0.0734397,0.14157385,0.2866864,-11.20381,0.29622862
0.9156746,-0.07114164,0.13714375,0.27771547,-10.853223,0.28695908
0.88703084,-0.06891621,0.13285367,0.26902807,-10.513716,0.27798253
0.8592915,-0.066761054,0.12869905,0.260615,-10.18493,0.2692894
0.83242726,-0.06467389,0.124675505,0.25246733,-9.866516,0.26087058
0.8064099,-0.06265252,0.12077879,0.2445765,-9.55814,0.2527171
0.78121203,-0.060694817,0.11700483,0.23693423,-9.259477,0.24482046
0.7568073,-0.058798738,0.11334964,0.2295325,-8.970215,0.23717237
0.7331702,-0.056962296,0.10980943,0.22236359,-8.690051,0.22976485
0.7102761,-0.055183586,0.10638051,0.21542004,-8.4186945,0.22259018
0.6881013,-0.05346075,0.1030593,0.2086946,-8.155862,0.2156409
0.66662264,-0.051792007,0.09984238,0.20218034,-7.901283,0.20890981
0.64581805,-0.050175633,0.0967264,0.19587052,-7.6546917,0.20238996
0.625666,-0.04860996,0.09370816,0.18975858,-7.4158354,0.1960746
0.60614574,-0.04709337,0.09078454,0.18383828,-7.184468,0.18995725
0.58723724,-0.045624305,0.08795255,0.17810349,-6.96035,0.18403158
0.56892097,-0.04420126,0.08520926,0.17254835,-6.743253,0.17829153
0.5511782,-0.042822767,0.08255187,0.16716714,-6.5329537,0.17273122
0.53399086,-0.04148743,0.079977654,0.16195437,-6.329237,0.16734494
0.51734126,-0.04019387,0.07748399,0.15690471,-6.131894,0.16212721
0.50121254,-0.038940776,0.075068325,0.15201302,-5.940725,0.1570727
0.4855881,-0.037726864,0.0727282,0.14727427,-5.755533,0.15217623
0.47045213,-0.036550906,0.070461236,0.14268368,-5.576131,0.14743283
0.4557892,-0.035411697,0.068265125,0.13823655,-5.4023356,0.14283769
0.44158444,-0.034308083,0.06613763,0.13392839,-5.2339706,0.13838613
0.42782342,-0.033238947,0.06407659,0.1297548,-5.0708656,0.13407362
0.4144922,-0.0322032,0.062079925,0.12571156,-4.912854,0.1298958
0.4015772,-0.031199794,0.060145605,0.12179457,-4.7597766,0.12584844
0.38906544,-0.030227715,0.058271673,0.11799987,-4.6114783,0.12192743
0.37694418,-0.029285979,0.05645623,0.11432361,-4.4678087,0.118128814
0.36520123,-0.02837363,0.05469745,0.11076208,-4.328623,0.11444874
0.3538247,-0.027489752,0.052993543,0.10731168,-4.19378,0.1108835
0.3428031,-0.026633449,0.0513428,0.10396893,-4.063144,0.10742948
0.33212528,-0.025803857,0.049743548,0.10073046,-3.9365835,0.10408322
0.32178053,-0.02500014,0.048194177,0.09759299,-3.81397,0.10084132
0.31175837,-0.024221487,0.046693128,0.09455337,-3.6951804,0.09770053
0.30204874,-0.023467116,0.045238882,0.091608524,-3.580095,0.09465767
0.29264185,-0.022736264,0.04382998,0.0887555,-3.468598,0.09170969
0.28352824,-0.022028198,0.042465,0.08599143,-3.3605769,0.08885361
0.2746987,-0.021342205,0.04114257,0.08331352,-3.255923,0.086086564
0.2661444,-0.020677593,0.039861362,0.080719076,-3.1545312,0.08340577
0.2578567,-0.020033697,0.038620085,0.078205496,-3.0562997,0.08080853
0.24982728,-0.019409867,0.037417494,0.07577025,-2.9611294,0.07829222
0.24204808,-0.018805476,0.036252376,0.07341089,-2.8689249,0.07585434
0.23451129,-0.01821992,0.035123564,0.07112506,-2.7795935,0.073492415
0.22720933,-0.017652607,0.034029927,0.06891044,-2.6930454,0.07120409
0.22013487,-0.01710297,0.03297036,0.066764824,-2.609194,0.06898706
0.21328083,-0.016570456,0.031943806,0.06468605,-2.527955,0.0668391
0.20664029,-0.016054533,0.03094923,0.06267205,-2.4492466,0.064758055
0.20020662,-0.015554681,0.029985636,0.060720775,-2.3729904,0.06274183
0.19397335,-0.015070399,0.029052058,0.058830284,-2.2991092,0.06078842
0.18793425,-0.014601202,0.02814756,0.05699868,-2.2275295,0.058895852
0.18208323,-0.014146619,0.027271235,0.055224124,-2.158179,0.05706223
0.17641446,-0.013706194,0.026422203,0.05350484,-2.0909889,0.05528572
0.17092223,-0.013279486,0.025599614,0.0518391,-2.025891,0.053564537
0.16560106,-0.012866067,0.024802644,0.050225236,-1.9628208,0.05189696
0.1604456,-0.012465524,0.024030492,0.048661634,-1.9017147,0.050281312
0.15545069,-0.012077453,0.023282386,0.047146726,-1.8425114,0.04871598
0.15061133,-0.011701467,0.022557577,0.04567899,-1.7851518,0.04719939
0.14592266,-0.01133719,0.02185534,0.044256963,-1.7295784,0.045730032
0.14137998,-0.010984255,0.021174967,0.042879213,-1.6757355,0.044306424
0.13697876,-0.010642311,0.020515783,0.041544363,-1.623569,0.042927146
0.13271458,-0.010311013,0.01987712,0.04025108,-1.573027,0.041590817
0.12858318,-0.009990032,0.019258346,0.038998064,-1.5240587,0.040296093
0.12458041,-0.009679044,0.01865884,0.037784062,-1.4766151,0.039041683
0.120702274,-0.009377739,0.018077996,0.036607858,-1.4306487,0.037826333
0.11694488,-0.009085815,0.017515238,0.035468277,-1.3861134,0.03664882
0.11330447,-0.008802981,0.016970003,0.034364175,-1.3429646,0.03550797
0.109777406,-0.008528952,0.016441742,0.03329445,-1.3011594,0.03440264
0.10636015,-0.008263455,0.015929926,0.032258026,-1.2606556,0.03333172
0.103049286,-0.008006223,0.015434047,0.031253874,-1.2214129,0.032294143
0.0998415,-0.007756999,0.014953605,0.030280981,-1.1833919,0.03128887
0.09673357,-0.007515535,0.014488121,0.029338377,-1.1465546,0.03031489
0.0937224,-0.007281588,0.014037128,0.028425118,-1.1108642,0.029371234
0.09080498,-0.007054924,0.013600175,0.02754029,-1.0762848,0.028456956
0.08797838,-0.006835317,0.013176825,0.02668301,-1.0427818,0.02757114
0.085239775,-0.006622546,0.012766655,0.025852418,-1.010322,0.026712902
0.08258642,-0.0064163986,0.012369254,0.02504768,-0.9788726,0.02588138
0.080015674,-0.006216669,0.0119842235,0.024267998,-0.9484023,0.025075745
0.07752495,-0.006023157,0.011611179,0.023512585,-0.9188805,0.024295188
0.07511177,-0.005835669,0.011249749,0.022780688,-0.89027774,0.023538932
0.0727737,-0.005654018,0.010899569,0.022071578,-0.86256534,0.022806218
0.07050843,-0.005478021,0.01056029,0.02138454,-0.83571565,0.022096312
0.068313666,-0.0053075035,0.010231573,0.02071889,-0.8097018,0.021408506
0.066187225,-0.0051422934,0.009913089,0.02007396,-0.78449774,0.02074211
0.064126976,-0.0049822265,0.009604519,0.019449107,-0.76007825,0.02009646
0.06213087,-0.004827142,0.009305554,0.018843705,-0.7364189,0.019470908
0.06019689,-0.004676886,0.009015896,0.018257149,-0.7134961,0.018864827
