ax,ay,az,gx,gy,gz
-0.6700061,-0.50000453,-4.528223,1.9418358,-22.194746,-30.129364
-0.15923057,-1.2718788,-4.575287,6.3382745,-22.757574,-30.314535
0.33916578,-1.73146,-4.6895947,5.789127,-22.78001,-22.391626
0.75994956,-2.216556,-5.009413,6.4339194,-21.611052,-15.75939
0.87439805,-2.7931771,-5.512861,10.029674,-22.164095,-11.97554
0.77321786,-3.272572,-6.0259027,15.319117,-27.122156,-10.246247
0.7153822,-3.545813,-6.3453403,16.843712,-33.896397,-7.433628
0.76974744,-3.7472787,-6.45714,15.486307,-41.38728,-3.3240304
0.9231239,-3.9823287,-6.4063077,13.690392,-48.13872,1.7980676
1.1152391,-4.2527614,-6.2479696,13.7320175,-53.14579,8.087549
1.2169802,-4.463586,-6.056665,15.229363,-57.713127,14.825237
1.2448955,-4.477234,-5.7306905,17.840033,-61.14908,20.473246
1.210272,-4.350392,-5.3537726,20.882023,-63.831036,25.447311
1.1384817,-4.0780725,-4.94284,22.980013,-66.28795,30.171782
1.0572898,-3.6618857,-4.4713154,24.078117,-68.53139,34.321243
1.0156595,-3.1070354,-3.9304852,24.022985,-69.830605,37.1863
1.0015659,-2.4227045,-3.3236952,23.143652,-70.307556,38.687122
0.9954046,-1.7044625,-2.722353,21.776674,-69.870926,38.920975
0.99956304,-0.9681849,-2.1351209,20.036781,-68.567154,37.70967
1.0236313,-0.24468222,-1.584336,18.084776,-66.33212,35.258663
1.0532053,0.44676113,-1.1081195,15.430499,-63.440105,31.389662
1.0846945,1.0687284,-0.76799715,12.06735,-60.249268,26.751717
1.1321338,1.5979908,-0.52967215,8.342749,-56.685932,21.329683
1.1714116,2.0178366,-0.4014535,4.271128,-53.07226,15.304231
1.1909614,2.313799,-0.35409632,-0.2750925,-49.74776,8.847046
1.1894401,2.451474,-0.3746287,-4.7918053,-47.11952,2.2502933
1.1942832,2.3751316,-0.44245628,-8.921027,-45.107773,-3.6580448
1.2198359,2.1544127,-0.50320274,-12.334073,-43.370018,-8.948957
1.2526146,1.8291763,-0.5453966,-14.941245,-41.678425,-13.549691
1.2859721,1.4229954,-0.5508665,-16.657343,-39.940014,-17.277096
1.3225013,0.95898294,-0.5086288,-17.810236,-37.92696,-19.539257
1.3387972,0.45948437,-0.4271843,-18.344679,-35.88209,-20.564611
1.3398058,0.0031093024,-0.31183738,-18.699955,-33.83539,-20.430437
1.3345333,-0.4076846,-0.1617135,-18.703857,-31.638704,-19.420961
1.3256193,-0.7657571,0.008645258,-18.112597,-29.056564,-17.920101
1.3173592,-1.064386,0.18721765,-16.691536,-25.708096,-15.889139
1.285083,-1.2747772,0.35135844,-14.813636,-22.011751,-13.455227
1.2365344,-1.4061463,0.4945153,-12.854934,-18.28089,-10.790032
1.1867752,-1.4684076,0.61699724,-10.823637,-14.544668,-8.007281
1.13007,-1.4770223,0.69733226,-9.001762,-11.176208,-5.2818437
1.0836155,-1.4425899,0.74417037,-7.7388816,-7.9695015,-3.1105962
1.0490496,-1.3906633,0.7564322,-6.4388475,-4.8308387,-1.4489204
1.0240138,-1.3260629,0.73924136,-4.9835987,-1.6704217,-0.13640676
1.0022514,-1.2428225,0.68516326,-3.5054293,1.4173783,1.0911596
0.9718618,-1.1464012,0.5819748,-2.40432,4.1128917,2.2279143
0.9219657,-1.052354,0.42740813,-1.536013,6.020943,3.348845
0.87281615,-0.92107755,0.22699435,-0.5771246,7.342596,3.9769027
0.83564365,-0.7924923,0.0066652247,0.29047784,8.350966,4.0854244
0.80602777,-0.6809528,-0.24449667,1.1816205,9.052629,3.904505
0.7817851,-0.586632,-0.5394153,1.6857936,9.151304,3.7700565
0.76121867,-0.5127816,-0.87144643,1.9788908,8.1077385,3.6470175
0.7534921,-0.48399296,-1.228126,2.3897576,6.3402495,3.4529293
0.7548454,-0.47116485,-1.5902555,3.0541675,3.967096,3.1153188
0.7571124,-0.46457335,-1.95454,3.7930927,1.0172242,2.78634
0.7610509,-0.46551505,-2.312897,4.158786,-2.6944053,2.6434824
0.76104915,-0.4945393,-2.6528478,3.8684466,-7.578664,2.8785353
0.7552272,-0.5580521,-2.9330187,3.4943843,-13.079625,3.3980412
0.73594934,-0.62366164,-3.1408308,3.3298519,-18.821869,4.0027976
0.72111905,-0.6589558,-3.230808,3.374614,-24.76521,4.869036
0.7398771,-0.6591527,-3.173877,3.2149873,-30.505312,6.1140327
0.790456,-0.6337141,-2.9885697,2.6506078,-35.50176,7.097043
0.85306567,-0.5874597,-2.6520703,2.3847988,-39.917942,7.434624
0.96498144,-0.4897469,-2.188399,1.5916846,-43.505974,7.399506
1.126266,-0.3849302,-1.6384667,0.060432673,-45.68495,7.6863637
1.296942,-0.30095756,-1.0801635,-2.12325,-46.141506,8.238302
1.4470539,-0.26332706,-0.5725456,-3.977606,-44.348324,8.751813
1.4006786,-0.25488797,-0.55419666,-3.8501318,-42.92705,8.471334
1.3558699,-0.2467339,-0.5364675,-3.726963,-41.55378,8.20033
1.3125672,-0.23885392,-0.51933426,-3.6079345,-40.22667,7.938435
1.2707136,-0.23123762,-0.5027743,-3.4928887,-38.943966,7.685303
1.2302543,-0.22387506,-0.48676607,-3.381676,-37.704002,7.4406047
1.1911377,-0.21675682,-0.47128904,-3.2741535,-36.50518,7.204026
1.153314,-0.20987387,-0.45632362,-3.1701853,-35.345985,6.975268
1.1167362,-0.20321764,-0.44185114,-3.0696416,-34.22497,6.7540445
1.0813591,-0.1967799,-0.42785373,-2.9723983,-33.14076,6.5400834
1.0471396,-0.19055283,-0.41431436,-2.8783371,-32.092026,6.333123
1.0140365,-0.1845289,-0.4012167,-2.7873447,-31.077503,6.1329145
0.9820103,-0.17870095,-0.3885451,-2.6993122,-30.095985,5.9392195
0.9510232,-0.17306209,-0.37628466,-2.6141362,-29.146315,5.751809
0.92103904,-0.16760573,-0.36442104,-2.5317168,-28.22738,5.570464
0.892023,-0.16232555,-0.35294047,-2.4519587,-27.338118,5.3949747
0.86394185,-0.15721549,-0.34182978,-2.3747702,-26.477503,5.2251387
0.83676344,-0.1522697,-0.3310763,-2.3000634,-25.64456,5.0607634
0.81045717,-0.14748263,-0.3206679,-2.2277536,-24.838343,4.9016623
0.78499347,-0.14284888,-0.31059283,-2.15776,-24.057947,4.7476573
0.7603439,-0.13836329,-0.3008399,-2.0900042,-23.302504,4.5985765
0.7364812,-0.13402088,-0.29139832,-2.0244112,-22.571177,4.454254
0.7133791,-0.12981687,-0.28225768,-1.960909,-21.863157,4.314532
0.6910122,-0.12574668,-0.27340794,-1.8994278,-21.177673,4.1792564
0.6693562,-0.12180585,-0.26483947,-1.8399007,-20.513975,4.048281
0.64838773,-0.11799011,-0.256543,-1.7822633,-19.871347,3.921463
0.628084,-0.11429535,-0.24850959,-1.7264533,-19.249094,3.7986658
0.60842335,-0.11071761,-0.24073058,-1.6724108,-18.646547,3.6797576
0.5893847,-0.10725306,-0.23319769,-1.6200781,-18.063063,3.5646114
0.57094777,-0.103898,-0.22590289,-1.5693994,-17.49802,3.4531045
0.553093,-0.10064889,-0.21883841,-1.5203209,-16.950819,3.3451185
0.53580153,-0.097502284,-0.21199682,-1.4727907,-16.420883,3.2405393
0.5190552,-0.09445487,-0.2053709,-1.4267589,-15.907651,3.139257
0.5028363,-0.09150344,-0.19895369,-1.382177,-15.410585,3.0411646
0.48712787,-0.08864491,-0.19273846,-1.3389984,-14.929165,2.9461598
0.47191358,-0.08587629,-0.18671872,-1.2971779,-14.462888,2.8541436
0.45717755,-0.08319471,-0.18088822,-1.256672,-14.011268,2.7650197
0.44290444,-0.08059736,-0.17524087,-1.2174387,-13.573834,2.6786957
0.42907947,-0.07808157,-0.16977085,-1.1794372,-13.150137,2.5950818
0.41568837,-0.07564473,-0.16447248,-1.1426282,-12.739735,2.5140922
0.40271726,-0.07328432,-0.15934029,-1.1069738,-12.342205,2.4356427
0.3901528,-0.07099791,-0.15436901,-1.072437,-11.957139,2.3596525
0.3779821,-0.06878315,-0.14955351,-1.0389827,-11.584139,2.286044
0.36619264,-0.06663776,-0.14488886,-1.0065763,-11.222823,2.214741
0.35477233,-0.06455956,-0.14037026,-0.9751845,-10.872822,2.1456707
0.34370947,-0.062546395,-0.1359931,-0.9447754,-10.533774,2.0787623
0.33299276,-0.06059623,-0.13175291,-0.9153178,-10.205337,2.0139475
0.3226113,-0.058707066,-0.12764534,-0.8867816,-9.887173,1.9511601
0.31255445,-0.056876976,-0.12366622,-0.8591377,-9.578957,1.8903362
0.302812,-0.0551041,-0.1198115,-0.83235806,-9.280377,1.8314136
0.29337406,-0.053386632,-0.116077244,-0.8064154,-8.991129,1.7743326
0.284231,-0.05172283,-0.112459674,-0.78128326,-8.710919,1.7190353
0.27537355,-0.050110996,-0.108955115,-0.75693625,-8.439462,1.6654652
0.26679274,-0.048549507,-0.105560005,-0.7333497,-8.176483,1.6135683
0.25847986,-0.047036774,-0.10227091,-0.7104995,-7.9217157,1.5632918
0.25042653,-0.04557127,-0.0990845,-0.6883628,-7.674902,1.514585
0.24262454,-0.044151507,-0.09599754,-0.666917,-7.4357924,1.4673984
0.23506604,-0.042776052,-0.093006924,-0.6461405,-7.204145,1.4216845
0.2277434,-0.04144352,-0.090109624,-0.6260123,-6.9797254,1.3773971
0.22064921,-0.040152557,-0.08730272,-0.60651207,-6.7623076,1.3344913
0.21377632,-0.038901865,-0.08458337,-0.58762014,-6.551672,1.2929238
0.2071178,-0.03769018,-0.08194884,-0.56931746,-6.3476057,1.2526529
0.20066692,-0.036516286,-0.07939647,-0.55158556,-6.149904,1.213638
0.19441721,-0.035378996,-0.07692368,-0.53440654,-5.958367,1.1758394
0.18836235,-0.034277167,-0.074528,-0.5177632,-5.7728014,1.1392195
0.18249626,-0.033209685,-0.07220701,-0.5016387,-5.5930214,1.1037413
0.17681304,-0.032175485,-0.06995837,-0.48601687,-5.4188457,1.0693691
0.17130695,-0.031173516,-0.06777981,-0.47088197,-5.250099,1.0360681
0.16597247,-0.030202778,-0.06566916,-0.45621878,-5.0866117,1.0038052
0.16080426,-0.029262291,-0.063624285,-0.44201255,-4.92822,0.9725476
0.15579708,-0.028351113,-0.06164313,-0.42824903,-4.774763,0.94226414
0.15094593,-0.02746833,-0.059723713,-0.4149144,-4.6260886,0.9129243
0.14624594,-0.02661305,-0.057864103,-0.40199524,-4.4820466,0.88449866
0.14169239,-0.025784418,-0.05606243,-0.3894786,-4.342492,0.8569586
0.1372807,-0.024981601,-0.054316886,-0.3773519,-4.207286,0.8302766
0.13300644,-0.024203796,-0.05262572,-0.365603,-4.076291,0.80442584
0.12886533,-0.02345022,-0.050987236,-0.3542201,-3.9493773,0.7793803
0.124853216,-0.022720117,-0.049399793,-0.34319174,-3.8264167,0.755115
0.12096608,-0.022012755,-0.047861796,-0.3325069,-3.7072864,0.73160547
0.11720001,-0.021327427,-0.046371702,-0.32215488,-3.5918663,0.70882815
0.11355124,-0.020663442,-0.044928014,-0.31212527,-3.4800413,0.6867603
0.1100161,-0.020020138,-0.043529294,-0.30240804,-3.3716989,0.66537976
0.10659106,-0.019396868,-0.042174134,-0.29299343,-3.2667305,0.64466506
0.10327269,-0.01879301,-0.04086118,-0.283872,-3.1650314,0.62459546
0.100057654,-0.018207954,-0.039589107,-0.27503464,-3.0664992,0.6051509
0.096942745,-0.017641118,-0.03835665,-0.2664725,-2.9710355,0.5863118
0.09392482,-0.017091934,-0.037162572,-0.25817695,-2.8785443,0.5680594
0.09100088,-0.01655985,-0.036005676,-0.25013974,-2.7889333,0.5503753
0.08816798,-0.016044335,-0.034884803,-0.24235277,-2.7021127,0.53324187
0.0854233,-0.015544872,-0.033798832,-0.23480828,-2.6179953,0.5166419
0.08276407,-0.01506096,-0.032746676,-0.2274987,-2.536497,0.5005589
0.08018764,-0.014592116,-0.03172728,-0.22041671,-2.4575365,0.4849766
0.07769143,-0.014137869,-0.03073962,-0.21355523,-2.3810344,0.46987945
0.07527294,-0.013697765,-0.029782714,-0.20690738,-2.306914,0.45525238
0.07292975,-0.013271363,-0.0288556,-0.2004665,-2.2351015,0.44108072
0.07065951,-0.012858238,-0.027957352,-0.19422616,-2.165525,0.42735025
0.06845996,-0.012457974,-0.027087068,-0.1881801,-2.0981143,0.4140473
0.066328876,-0.0120701725,-0.026243879,-0.18232228,-2.0328026,0.40115848
0.06426415,-0.011694443,-0.025426941,-0.17664681,-1.969524,0.38867095
0.062263694,-0.011330412,-0.024635438,-0.17114806,-1.9082155,0.37657216
0.060325522,-0.010977713,-0.023868574,-0.16582048,-1.8488157,0.36485004
0.05844769,-0.010635995,-0.023125585,-0.16065876,-1.7912651,0.3534929
0.056628313,-0.010304916,-0.022405725,-0.15565774,-1.7355062,0.34248927
0.054865576,-0.009984142,-0.021708276,-0.15081239,-1.681483,0.3318282
0.053157717,-0.009673355,-0.02103254,-0.1461179,-1.6291417,0.32149902
0.051503025,-0.009372243,-0.020377839,-0.14156954,-1.5784298,0.3114914
0.049899843,-0.009080505,-0.019743519,-0.13716277,-1.5292965,0.30179533
0.048346568,-0.008797849,-0.019128947,-0.13289319,-1.4816928,0.29240108
0.046841647,-0.00852399,-0.018533504,-0.12875652,-1.4355711,0.2832993
0.045383573,-0.008258658,-0.0179566,-0.124748625,-1.390885,0.27448085
0.04397089,-0.0080015855,-0.017397651,-0.120865494,-1.34759,0.26593688
0.04260218,-0.007752516,-0.016856104,-0.11710324,-1.3056427,0.25765893
0.041276082,-0.007511199,-0.016331416,-0.113458104,-1.2650013,0.24963863
0.03999126,-0.007277394,-0.01582306,-0.10992644,-1.225625,0.241868
0.038746435,-0.0070508677,-0.015330529,-0.10650471,-1.1874745,0.23433927
