ax,ay,az,gx,gy,gz
-3.8673081,1.1354648,0.09090992,-21.251102,-121.68293,-30.29573
-3.4745524,0.48486593,1.0529397,-31.598965,-127.363884,-34.76369
-2.3888595,-0.2580492,2.2157102,-31.348198,-116.48131,-26.862707
-1.4843298,-0.6166803,2.9022217,-28.70937,-103.95369,-16.26726
-0.7060825,-0.70454544,3.4692407,-26.814154,-91.52355,-8.62587
0.0649486,-0.7019728,4.0219374,-23.01299,-76.53902,-5.0671964
0.7427677,-0.6297567,4.516068,-15.294302,-56.223927,-5.2238827
1.2513659,-0.44053477,4.813887,-8.709005,-36.77906,-6.101421
1.5711746,-0.22742878,4.9199166,-4.4567447,-20.91034,-6.8769956
1.81422,-0.03464601,4.9607754,-1.7084049,-6.941712,-7.332968
2.0033617,0.15205808,4.899794,-0.23396476,5.188711,-7.707938
2.1049051,0.32987323,4.74689,-0.056061503,15.5160885,-8.34272
2.1663203,0.48676905,4.539348,0.3007641,25.589632,-8.936295
2.1692991,0.6514215,4.2352014,0.7639072,34.954266,-9.768381
2.0944118,0.83102775,3.840426,0.91703916,41.90689,-11.498474
2.0221338,1.0085082,3.4432867,0.24323268,46.620514,-13.734465
2.0259402,1.16406,3.096876,-1.685403,50.168144,-15.197385
2.0763555,1.3009747,2.7531016,-4.467483,53.363663,-16.204502
2.0935853,1.4227166,2.3875258,-8.004781,55.95752,-17.312334
2.0624797,1.5365922,1.990856,-11.450043,57.65044,-19.022835
1.9876549,1.6242557,1.583822,-14.642537,58.268528,-21.129519
1.9016318,1.6864638,1.1892259,-17.829243,57.848312,-22.9185
1.7794232,1.7382853,0.7850063,-21.35814,56.33731,-24.631012
1.6525815,1.7463622,0.41160974,-24.746677,54.13284,-26.366686
1.5339067,1.7109973,0.078999184,-27.732866,51.475323,-28.015158
1.3979527,1.6457411,-0.21373129,-30.416182,48.33922,-29.440453
1.2251407,1.554843,-0.47107345,-32.52592,44.49173,-30.525045
1.0051252,1.4464294,-0.69393957,-34.0758,40.157207,-31.547955
0.77451265,1.3202767,-0.8816577,-35.34193,35.258034,-32.752068
0.5653269,1.1670215,-1.0245756,-36.145504,30.109583,-34.0333
0.3956779,0.9884809,-1.129373,-36.84009,24.502186,-35.078266
0.2923407,0.77146643,-1.1675241,-37.032345,19.161654,-35.240364
0.23925966,0.5096325,-1.159499,-36.498055,14.337537,-34.91946
0.19515604,0.2340535,-1.1368219,-35.105583,9.890821,-34.483868
0.15747987,-0.06661045,-1.0921296,-32.715916,5.9536023,-33.758587
0.12302158,-0.3802621,-1.0255433,-29.376936,2.4122844,-32.357754
0.09665858,-0.66702133,-0.9322907,-25.050098,-0.6476683,-29.748816
0.09715717,-0.9142704,-0.798004,-20.407358,-3.107436,-26.210115
0.120432094,-1.1172463,-0.6500418,-16.197857,-4.9841795,-22.151577
0.17884836,-1.2651823,-0.48681083,-12.242252,-5.9691443,-17.947044
0.26350266,-1.3423661,-0.32921448,-8.309694,-6.042528,-13.984732
0.35893747,-1.344003,-0.19365011,-4.7275147,-5.860822,-10.444198
0.4676819,-1.267798,-0.061344117,-1.5902939,-5.569948,-7.0798316
0.5809818,-1.1432652,0.061338577,1.281576,-5.1668444,-3.9734294
0.69498044,-0.9751115,0.17945488,3.8152032,-4.5437984,-1.3220937
0.80187184,-0.78509516,0.28862327,5.962671,-3.3954253,0.7451465
0.8863368,-0.5984641,0.36819556,7.821401,-1.3716708,2.0318966
0.9363658,-0.44074667,0.39806226,9.613038,1.1685874,3.017277
0.95094573,-0.27236313,0.38483152,11.226826,3.5322628,3.7946537
0.94369197,-0.060345843,0.35930714,12.002974,5.370116,4.344766
0.926063,0.18182775,0.32975167,11.849279,6.6052732,4.482314
0.9110588,0.43025783,0.30374962,10.720285,7.4016514,3.9058127
0.9015692,0.65695024,0.26994994,9.0714655,8.139227,2.741546
0.88987505,0.8466158,0.22085586,7.2917295,8.968857,1.1175432
0.86148876,1.0084902,0.14314318,5.4427185,9.551279,-0.91919583
0.81662375,1.1361234,0.05047055,3.5308583,9.896761,-3.2173402
0.7516916,1.2337828,-0.05628416,1.5321496,9.78809,-5.798965
0.6702939,1.2940264,-0.17520756,-0.6423673,9.125256,-8.599374
0.5946217,1.3027157,-0.2795472,-3.0301049,8.097334,-11.305443
0.52645916,1.2574813,-0.37346935,-5.3707833,6.7759094,-13.694676
0.47716862,1.1771694,-0.45553684,-7.5555816,5.24931,-15.78554
0.4412343,1.0730058,-0.5285111,-9.385084,3.368817,-17.601501
0.40037653,0.9291574,-0.599433,-10.900449,1.1295924,-19.332642
0.36060765,0.758163,-0.65878004,-12.089944,-1.3058395,-21.002016
0.32423118,0.55793715,-0.6991659,-13.030432,-3.9797208,-22.274347
0.2926284,0.3344278,-0.7120684,-13.576241,-6.7896605,-22.68013
0.25302896,0.11222525,-0.7010417,-13.358274,-9.658706,-21.943502
0.19777997,-0.08730844,-0.67004126,-12.598996,-12.391815,-20.903723
0.13768129,-0.26866964,-0.6234117,-11.274595,-14.863468,-19.850157
0.08048638,-0.44565237,-0.5594335,-9.622804,-16.939066,-18.701458
0.01987981,-0.62664074,-0.48434153,-8.070717,-18.615143,-17.217901
-0.038556702,-0.81593144,-0.394985,-6.3857803,-19.911509,-14.623065
-0.08261387,-0.9732757,-0.28336942,-4.5239744,-20.847162,-11.27674
-0.09699319,-1.0837,-0.16087282,-2.227939,-21.475185,-7.7754316
-0.048587885,-1.1188098,0.0065783886,0.17446859,-21.235718,-4.6404004
0.07952921,-1.088247,0.23320076,2.1023235,-19.528454,-2.0039256
0.2679253,-1.034181,0.488753,4.2297025,-15.40713,0.27447617
0.45155048,-0.92641455,0.70121884,6.14714,-10.51197,2.259003
0.584063,-0.786046,0.8572501,8.934524,-5.401997,3.7323248
0.6623459,-0.62048924,0.9528676,11.094829,-0.98081005,4.596065
0.7207741,-0.46935117,1.0036556,13.243063,2.8976524,4.9588895
0.7566688,-0.3099551,0.99208164,14.142328,5.3657546,4.8546615
0.7871941,-0.1808191,0.94221723,14.277307,7.37241,4.855553
0.7952361,-0.07434382,0.85286325,14.00498,9.042202,5.107764
0.7786709,0.021054937,0.72954816,13.50743,10.351675,5.3595943
0.75318366,0.10740588,0.5939415,12.866712,11.462118,5.2909646
0.7170862,0.1785095,0.45845821,12.210039,12.4700775,5.025299
0.66291046,0.22109163,0.33240613,11.562817,13.455478,4.950006
0.5927757,0.24792728,0.21397159,10.69126,14.13395,5.1985755
0.5142147,0.25726873,0.114877075,9.889463,14.597682,5.492804
0.44084156,0.24920942,0.042172372,9.21637,14.977838,5.745207
0.38836405,0.23270032,-0.010409431,8.893353,15.282873,5.9819665
0.3649696,0.21881133,-0.04138619,8.660827,15.5343,6.255145
0.35742924,0.20836578,-0.05730163,8.554065,15.888545,6.586552
0.35866708,0.2048508,-0.063736215,8.527035,16.346178,7.052569
0.3631494,0.21220441,-0.06759094,8.56578,16.852345,7.614574
0.35179618,0.20557022,-0.06547783,8.297986,16.325485,7.376518
0.34080085,0.19914517,-0.06343133,8.038634,15.815235,7.145966
0.33015186,0.19292249,-0.061449293,7.7874513,15.321057,6.9226766
0.31983808,0.18689567,-0.059529644,7.5441747,14.842434,6.7064147
0.30984867,0.18105842,-0.057670377,7.30855,14.378865,6.496956
0.30017328,0.17540465,-0.055869553,7.0803323,13.929869,6.2940807
0.29080185,0.16992852,-0.0541253,6.859284,13.494978,6.0975795
0.2817247,0.16462432,-0.05243582,6.645176,13.073741,5.9072475
0.27293235,0.15948656,-0.05079935,6.437787,12.665723,5.7228885
0.2644158,0.15450996,-0.049214214,6.2369027,12.270503,5.544312
0.25616625,0.14968938,-0.04767877,6.0423164,11.887673,5.371334
0.2481752,0.14501986,-0.046191443,5.8538284,11.516841,5.203777
0.24043448,0.14049661,-0.04475071,5.671244,11.157624,5.041468
0.23293614,0.13611498,-0.043355085,5.494377,10.809655,4.8842416
0.2256725,0.13187052,-0.042003144,5.323046,10.472579,4.7319365
0.21863614,0.12775886,-0.040693507,5.1570764,10.146049,4.5843973
0.21181989,0.12377582,-0.039424833,4.996298,9.829733,4.4414725
0.20521678,0.119917326,-0.038195834,4.840547,9.523308,4.3030176
0.19882008,0.11617946,-0.037005257,4.6896653,9.226463,4.168891
0.19262332,0.11255841,-0.035851885,4.543499,8.938895,4.038956
0.18662018,0.109050505,-0.034734555,4.4019003,8.660313,3.9130814
0.18080457,0.10565218,-0.033652127,4.2647243,8.390433,3.7911386
0.17517059,0.102359995,-0.032603506,4.131833,8.128982,3.6730044
0.16971253,0.0991706,-0.03158763,4.003091,7.8756948,3.558559
0.16442485,0.09608079,-0.030603467,3.8783684,7.630315,3.4476864
0.15930223,0.09308741,-0.029650023,3.7575388,7.392594,3.3402746
0.15433949,0.09018746,-0.028726334,3.64048,7.1622925,3.2362149
0.14953159,0.08737799,-0.027831467,3.5270739,6.9391766,3.135402
0.1448737,0.08465617,-0.02696452,3.4172058,6.723022,3.0377345
0.1403611,0.08201926,-0.026124615,3.310765,6.51361,2.9431136
0.13598925,0.07946459,-0.025310908,3.207644,6.3107295,2.851444
0.13175374,0.0769896,-0.024522576,3.107739,6.114176,2.7626333
0.1276503,0.07459178,-0.023758829,3.0109494,5.923752,2.6765919
0.12367481,0.07226872,-0.023018891,2.9171774,5.7392645,2.5932329
0.11982326,0.07001808,-0.022302024,2.826329,5.5605288,2.5124729
0.116091765,0.0678376,-0.021607503,2.7383125,5.387365,2.4342306
0.11247659,0.065725096,-0.02093463,2.6530395,5.219599,2.3584268
0.108974084,0.06367842,-0.020282729,2.5704243,5.057061,2.2849858
0.10558073,0.06169554,-0.019651143,2.4903836,4.899589,2.2138336
0.102293134,0.059774444,-0.01903924,2.4128375,4.747024,2.1448984
0.09910797,0.057913214,-0.018446404,2.3377075,4.5992136,2.0781116
0.096022055,0.056109976,-0.017872041,2.2649186,4.456008,2.0134056
0.093032286,0.05436292,-0.017315572,2.1943972,4.3172646,1.9507155
0.09013566,0.05267029,-0.016776439,2.1260731,4.182843,1.8899786
0.08732927,0.051030394,-0.016254101,2.0598776,4.05261,1.8311338
0.084610306,0.04944158,-0.015748037,1.995744,3.9264333,1.7741222
0.081976034,0.047902256,-0.015257734,1.9336082,3.8041873,1.7188864
0.079423815,0.046410885,-0.014782704,1.8734078,3.6857488,1.6653711
0.076951094,0.04496596,-0.014322471,1.8150826,3.5709994,1.6135226
0.07455538,0.04356604,-0.013876571,1.7585738,3.4598238,1.563289
0.07223429,0.042209722,-0.013444559,1.703825,3.3521109,1.51462
0.06998548,0.04089564,-0.013026001,1.6507813,3.2477527,1.4674666
0.067806706,0.039622486,-0.012620478,1.5993894,3.146644,1.4217818
0.065695785,0.03838898,-0.012227584,1.5495981,3.0486844,1.3775195
0.06365059,0.037193883,-0.011846924,1.5013572,2.9537752,1.3346357
0.061669093,0.036036003,-0.011478119,1.4546186,2.8618214,1.2930872
0.05974929,0.03491418,-0.011120797,1.4093354,2.772731,1.2528325
0.05788927,0.033827286,-0.010774601,1.3654621,2.6864147,1.2138313
0.056087166,0.032774236,-0.010439186,1.322955,2.602786,1.1760445
0.05434117,0.031753972,-0.010114214,1.2817714,2.5217614,1.1394342
0.052649543,0.03076548,-0.00979936,1.2418702,2.4432595,1.1039639
0.051010583,0.029807761,-0.00949431,1.2032112,2.3672018,1.069598
0.04942265,0.028879862,-0.009198758,1.1657559,2.293512,1.036302
0.047884163,0.027980855,-0.008912408,1.1294668,2.2221167,1.0040426
0.04639357,0.027109835,-0.008634972,1.0943075,2.1529443,0.9727877
0.044949386,0.026265934,-0.008366174,1.0602429,2.0859253,0.94250584
0.043550167,0.025448307,-0.008105746,1.0272387,2.020993,0.91316676
0.042194504,0.024656134,-0.007853424,0.99526215,1.958082,0.88474107
0.04088105,0.023888623,-0.007608958,0.964281,1.8971297,0.8572003
0.039608486,0.023145007,-0.007372103,0.9342645,1.8380749,0.830517
0.038375538,0.022424541,-0.0071426216,0.90518236,1.7808588,0.8046644
0.037180975,0.021726504,-0.006920284,0.8770056,1.7254237,0.77961653
0.036023602,0.021050198,-0.0067048683,0.849706,1.6717144,0.7553485
0.034902256,0.020394946,-0.006496159,0.8232563,1.6196772,0.73183596
0.033815816,0.019760093,-0.0062939464,0.79763,1.5692599,0.7090554
0.0327632,0.019145003,-0.0060980287,0.7728014,1.5204121,0.686984
0.031743355,0.018549059,-0.0059082103,0.7487458,1.4730849,0.66559964
0.030755254,0.017971668,-0.005724301,0.725439,1.4272311,0.644881
0.029797914,0.01741225,-0.0055461167,0.70285773,1.3828046,0.62480736
0.028870374,0.016870249,-0.005373479,0.68097943,1.3397611,0.60535854
0.02797171,0.01634512,-0.0052062157,0.6597822,1.2980577,0.5865152
0.02710102,0.015836336,-0.005044159,0.6392448,1.2576523,0.5682584
0.026257431,0.01534339,-0.004887147,0.6193467,1.2185048,0.55056995
0.025440104,0.01486579,-0.0047350223,0.60006803,1.1805758,0.5334321
