ax,ay,az,gx,gy,gz
-1.0700097,-5.8636894,-10.327366,11.707379,7.0464277,41.725834
-0.86131257,-6.5742497,-11.608412,40.503433,0.43190935,29.784222
-0.052650433,-6.5774007,-11.934676,64.45667,3.6652138,27.082159
0.50028443,-5.8504686,-11.71198,80.60794,6.398928,31.270044
0.73956275,-4.9180965,-11.134662,86.27187,9.519958,40.50286
0.55858916,-4.3623657,-10.866293,94.91328,13.297934,47.89052
-0.010120339,-3.7956862,-10.763345,105.34903,13.673601,49.209103
-0.5350107,-3.2627776,-10.663899,116.86905,12.423152,48.003075
-0.94502443,-2.5645292,-10.455924,127.35551,8.686569,46.895004
-1.1904281,-1.7929077,-10.128316,135.39752,3.6855838,46.53856
-1.3489562,-0.9704149,-9.6544485,140.90071,-0.66044575,46.074646
-1.5283308,-0.20284055,-9.154119,145.2046,-4.6682525,45.44421
-1.7571794,0.60867125,-8.59599,148.0277,-9.808423,44.355213
-1.929909,1.473612,-7.9456334,148.41585,-15.794037,43.004784
-2.0272624,2.3169603,-7.2414665,145.39265,-22.336363,40.956974
-2.0164742,3.0569966,-6.455442,139.80644,-27.587486,38.07003
-1.9792488,3.6804144,-5.6765394,132.6365,-31.219873,34.143738
-1.9474459,4.186629,-4.9553957,124.464386,-34.05792,29.732399
-1.9271492,4.5643597,-4.29097,115.35277,-37.3229,25.502651
-1.8743671,4.781404,-3.6610327,105.30505,-40.841904,21.95868
-1.7599995,4.8088408,-3.0549552,95.02863,-43.852192,18.712519
-1.585219,4.695356,-2.513491,84.845665,-45.846123,15.733336
-1.3584374,4.45852,-2.0797687,75.1591,-46.538635,12.707635
-1.0802089,4.0986967,-1.7813456,66.447525,-45.974926,9.619153
-0.72724265,3.6464398,-1.6415967,59.221252,-44.50217,7.040607
-0.28714344,3.1347525,-1.6660749,53.87982,-42.054035,6.4058294
0.12868859,2.640906,-1.7774235,49.99993,-39.011684,7.230419
0.4567361,2.1736987,-1.9516523,47.759537,-35.358753,8.789562
0.6649614,1.7745093,-2.1468327,46.81202,-31.617674,10.47437
0.78693324,1.4306078,-2.3316944,47.087738,-27.900509,12.389286
0.7872259,1.1386904,-2.5141811,48.436344,-24.427061,14.76794
0.6862671,0.916337,-2.6883638,50.667515,-21.570562,17.42783
0.52245176,0.7638048,-2.8477514,53.62282,-19.246578,19.925365
0.3104784,0.67582273,-2.9997041,57.303623,-17.328947,21.732864
0.054070015,0.6250332,-3.1534252,62.23182,-16.499546,22.517263
-0.22022596,0.6454507,-3.283047,67.73922,-16.861202,23.015463
-0.4820994,0.7855655,-3.3402326,72.612816,-18.598906,23.322298
-0.717312,1.0013648,-3.3298347,76.0304,-21.453045,23.061995
-0.9307441,1.2050393,-3.3077426,78.85272,-24.573511,22.106007
-1.1241863,1.4718946,-3.2454073,80.64057,-28.080513,20.054558
-1.2704141,1.8337015,-3.1164644,81.342834,-31.969633,17.313118
-1.3573507,2.2296567,-2.9373794,80.49833,-36.370773,14.419504
-1.3810567,2.6118314,-2.7262468,78.36725,-40.88977,12.029363
-1.382148,2.95195,-2.5060446,75.08871,-45.36976,10.098152
-1.3667774,3.2423897,-2.2950575,70.3734,-49.49207,8.257868
-1.3216103,3.4283576,-2.136318,65.0434,-53.15735,6.0917377
-1.235679,3.50573,-2.0245788,59.51825,-56.43128,3.5683196
-1.0649554,3.4605005,-1.9410094,53.92025,-59.2059,0.7078001
-0.7418445,3.2920911,-1.9053464,48.642056,-61.082863,-2.0403025
-0.2903432,3.0424151,-1.906284,44.197174,-61.38957,-3.4155614
0.2278207,2.7643871,-1.9129862,40.409187,-60.385387,-3.2571254
0.6947382,2.5294752,-1.8942256,37.188896,-58.18872,-1.8450093
0.67152894,2.4449728,-1.8309449,35.946518,-56.2448,-1.7833728
0.6491921,2.3636463,-1.7700427,34.75084,-54.373947,-1.724053
0.6276859,2.2853441,-1.7114054,33.59963,-52.572666,-1.6669391
0.6069714,2.2099247,-1.6549265,32.49079,-50.837696,-1.6119279
0.5870122,2.137255,-1.6005071,31.422388,-49.165985,-1.5589223
0.5677741,2.0672112,-1.548054,30.392586,-47.554676,-1.507832
0.5492252,1.9996763,-1.4974798,29.399675,-46.001087,-1.4585719
0.53133535,1.9345412,-1.4487027,28.442045,-44.5027,-1.4110621
0.5140764,1.8717029,-1.4016454,27.518183,-43.05715,-1.3652276
0.4974216,1.8110644,-1.3562356,26.626661,-41.662205,-1.3209976
0.4813458,1.752534,-1.3124045,25.766136,-40.315758,-1.2783053
0.46582535,1.6960255,-1.2700875,24.935335,-39.015823,-1.2370877
0.45083776,1.6414571,-1.2292234,24.133059,-37.760517,-1.1972853
0.43636176,1.5887514,-1.1897541,23.358168,-36.54806,-1.1588416
0.42237723,1.5378351,-1.1516248,22.609585,-35.376766,-1.121703
0.40886506,1.4886385,-1.1147835,21.886288,-34.245037,-1.0858189
0.3958071,1.4410957,-1.0791805,21.187302,-33.15135,-1.0511409
0.383186,1.3951436,-1.0447688,20.511705,-32.094257,-1.0176233
0.37098548,1.3507226,-1.0115036,19.858616,-31.072382,-0.9852224
0.35918975,1.3077755,-0.9793422,19.2272,-30.084415,-0.9538967
0.34778398,1.2662481,-0.948244,18.616655,-29.129108,-0.92360646
0.33675388,1.2260885,-0.91817003,18.02622,-28.205269,-0.8943139
0.32608584,1.1872473,-0.8890833,17.455168,-27.311752,-0.8659829
0.3157669,1.149677,-0.8609484,16.902802,-26.447475,-0.838579
0.30578458,1.1133324,-0.8337313,16.368454,-25.611395,-0.81206906
0.29612702,1.0781702,-0.8073997,15.851492,-24.802513,-0.7864216
0.28678283,1.0441488,-0.7819224,15.351302,-24.019876,-0.7616063
0.27774104,1.0112286,-0.7572697,14.867301,-23.26257,-0.73759407
0.2689912,0.9793712,-0.733413,14.398928,-22.529716,-0.71435726
0.26052326,0.9485402,-0.7103249,13.945644,-21.820473,-0.691869
0.25232756,0.9187005,-0.68797904,13.506935,-21.134031,-0.6701038
0.24439487,0.8898183,-0.6663503,13.082302,-20.469616,-0.649037
0.23671623,0.8618611,-0.64541423,12.671269,-19.826483,-0.62864494
0.22928311,0.83479786,-0.62514764,12.273379,-19.203913,-0.6089049
0.22208726,0.80859846,-0.60552794,11.88819,-18.601215,-0.58979493
0.21512078,0.7832341,-0.58653355,11.515279,-18.017727,-0.5712941
0.208376,0.75867707,-0.5681437,11.154235,-17.45281,-0.5533821
0.20184562,0.73490053,-0.5503384,10.804667,-16.905848,-0.5360394
0.19552252,0.7118788,-0.5330983,10.466196,-16.37625,-0.5192472
0.1893999,0.6895869,-0.5164048,10.138456,-15.8634405,-0.50298744
0.18347119,0.66800106,-0.50023997,9.821096,-15.366874,-0.4872426
0.17773005,0.64709806,-0.48458657,9.513777,-14.886017,-0.47199592
0.17217036,0.6268558,-0.4694279,9.21617,-14.420358,-0.4572311
0.16678622,0.60725266,-0.4547479,8.92796,-13.969402,-0.44293252
0.16157195,0.588268,-0.44053102,8.648844,-13.532674,-0.42908502
0.15652205,0.5698818,-0.42676228,8.378526,-13.109713,-0.41567403
0.1516312,0.55207473,-0.41342726,8.116722,-12.700073,-0.4026855
0.14689432,0.5348281,-0.40051198,7.863159,-12.3033285,-0.39010575
0.14230642,0.51812404,-0.38800293,7.617572,-11.919063,-0.37792173
0.13786273,0.501945,-0.3758871,7.3797045,-11.546877,-0.3661207
0.13355865,0.48627427,-0.36415187,7.1493096,-11.186382,-0.35469037
0.1293897,0.47109553,-0.3527851,6.926149,-10.837207,-0.34361896
0.1253516,0.45639315,-0.34177506,6.709991,-10.498989,-0.33289498
0.121440135,0.4421519,-0.33111036,6.500613,-10.17138,-0.32250735
0.1176513,0.42835712,-0.32077998,6.2977996,-9.854041,-0.3124454
0.1139812,0.41499466,-0.31077334,6.1013412,-9.546647,-0.30269873
0.11042607,0.40205073,-0.30108014,5.9110374,-9.248882,-0.29325742
0.106982246,0.38951212,-0.29169047,5.7266917,-8.960441,-0.28411168
0.103646226,0.37736598,-0.2825947,5.5481167,-8.681027,-0.27525225
0.10041459,0.3655999,-0.27378353,5.375129,-8.410357,-0.26667002
0.097284034,0.35420185,-0.26524797,5.2075524,-8.148153,-0.25835624
0.09425137,0.34316024,-0.25697935,5.045216,-7.8941493,-0.25030243
0.091313526,0.3324638,-0.2489692,4.8879547,-7.6480856,-0.24250041
0.08846749,0.32210165,-0.2412094,4.7356086,-7.4097123,-0.23494223
0.085710384,0.3120633,-0.23369206,4.588022,-7.178787,-0.22762021
0.0830394,0.3023385,-0.22640955,4.4450464,-6.9550757,-0.22052692
0.080451846,0.29291746,-0.2193545,4.306536,-6.7383513,-0.21365516
0.07794508,0.2837906,-0.21251972,4.172351,-6.528394,-0.20699798
0.07551658,0.27494863,-0.20589833,4.0423546,-6.3249917,-0.20054863
0.07316388,0.26638266,-0.19948362,3.916416,-6.127938,-0.19430059
0.0708846,0.25808406,-0.1932691,3.7944076,-5.937034,-0.18824753
0.06867644,0.25004435,-0.18724848,3.6762066,-5.752087,-0.18238334
0.06653718,0.2422555,-0.1814157,3.561693,-5.57291,-0.17670213
0.06446464,0.2347096,-0.17576489,3.4507515,-5.399322,-0.17119811
0.062456757,0.22739907,-0.1702903,3.3432705,-5.2311487,-0.16586578
0.060511485,0.22031651,-0.16498646,3.2391412,-5.0682197,-0.16069974
0.058626868,0.21345481,-0.159848,3.1382592,-4.9103713,-0.1556948
0.056801017,0.20680706,-0.15486977,3.0405223,-4.757445,-0.15084589
0.055032086,0.20036656,-0.1500467,2.9458325,-4.6092854,-0.14614816
0.053318296,0.19412681,-0.14537401,2.8540945,-4.465745,-0.14159687
0.051657926,0.18808156,-0.14084697,2.765216,-4.3266783,-0.13718744
0.05004931,0.18222474,-0.136461,2.6791077,-4.1919465,-0.13291545
0.04849082,0.17655043,-0.13221174,2.5956829,-4.0614133,-0.12877658
0.0469809,0.17105295,-0.1280949,2.5148578,-3.9349477,-0.1247667
0.045518026,0.16572678,-0.12410633,2.436551,-3.8124228,-0.12088177
0.044100735,0.16056655,-0.120242044,2.3606844,-3.6937158,-0.11711788
0.0427276,0.15556711,-0.11649815,2.2871814,-3.5787072,-0.11347127
0.041397247,0.15072341,-0.1128709,2.2159684,-3.4672816,-0.10993826
0.040108338,0.14603062,-0.10935665,2.1469738,-3.3593273,-0.10651532
0.03885958,0.141484,-0.10595187,2.0801287,-3.2547357,-0.103199
0.03764972,0.13707902,-0.102653146,2.0153656,-3.1534023,-0.09998599
0.036477543,0.13281125,-0.099457175,1.9526198,-3.0552251,-0.09687305
0.035341877,0.1286764,-0.09636074,1.8918283,-2.9601061,-0.09385708
0.034241583,0.124670334,-0.09336076,1.8329303,-2.8679495,-0.09093504
0.033175558,0.12078903,-0.090454206,1.7758666,-2.7786632,-0.088104
0.032142732,0.11702861,-0.08763817,1.7205801,-2.6921573,-0.08536114
0.03114207,0.1133853,-0.084909834,1.6670153,-2.6083455,-0.08270369
0.030172572,0.10985544,-0.082266465,1.6151186,-2.527144,-0.080129
0.029233264,0.106435515,-0.07970541,1.564838,-2.4484708,-0.07763448
0.028323205,0.10312208,-0.077224106,1.5161232,-2.3722477,-0.07521765
0.027441485,0.09991182,-0.07482007,1.4689252,-2.298398,-0.07287607
0.026587218,0.09680152,-0.072490886,1.4231969,-2.226848,-0.07060741
0.025759554,0.093788065,-0.07023423,1.3788925,-2.1575255,-0.06840939
0.024957659,0.09086844,-0.068047844,1.3359677,-2.0903618,-0.066279806
0.024180733,0.088039726,-0.065929525,1.2943792,-2.0252893,-0.06421653
0.023427995,0.08529909,-0.063877165,1.2540857,-1.962243,-0.062217493
0.022698695,0.08264378,-0.061888706,1.2150468,-1.9011594,-0.0602807
0.021992102,0.08007114,-0.059962157,1.1772232,-1.8419777,-0.058404204
0.021307508,0.07757859,-0.05809559,1.1405773,-1.7846386,-0.056586135
0.020644227,0.07516365,-0.056287132,1.1050724,-1.7290846,-0.054824665
0.020001596,0.0728239,-0.05453498,1.0706728,-1.6752603,-0.05311804
0.019378971,0.07055698,-0.05283738,1.0373441,-1.6231116,-0.051464543
0.018775733,0.06836064,-0.051192626,1.005053,-1.5725864,-0.049862526
0.018191272,0.06623268,-0.049599078,0.9737673,-1.5236342,-0.04831038
0.017625008,0.064170964,-0.04805514,0.9434555,-1.4762061,-0.04680656
0.017076373,0.062173437,-0.046559267,0.91408736,-1.4302543,-0.045349553
0.016544817,0.060238093,-0.04510996,0.8856335,-1.3857331,-0.043937903
0.016029809,0.058362994,-0.043705776,0.8580654,-1.342598,-0.042570204
0.015530832,0.056546275,-0.042345304,0.8313556,-1.3008056,-0.041245077
0.01504739,0.054786105,-0.04102718,0.8054772,-1.2603141,-0.039961204
0.014578997,0.053080734,-0.039750095,0.78040445,-1.2210833,-0.038717296
0.014125185,0.05142845,-0.038512763,0.7561122,-1.1830736,-0.037512112
0.0136855,0.049827598,-0.03731395,0.7325762,-1.1462473,-0.036344446
0.013259503,0.04827658,-0.036152452,0.70977277,-1.1105673,-0.03521313
0.012846767,0.046773847,-0.035027113,0.6876793,-1.0759981,-0.03411703
0.0124468785,0.045317892,-0.033936806,0.66627353,-1.0425049,-0.033055052
0.012059438,0.04390726,-0.03288044,0.6455341,-1.0100543,-0.03202613
0.011684059,0.04254054,-0.031856954,0.62544024,-0.9786139,-0.03102924
