ax,ay,az,gx,gy,gz
-1.2181929,-5.9946,-6.755516,-31.73847,0.61000556,-28.686625
-0.12699161,-6.5150924,-7.1278677,-25.311659,-4.973237,-17.810015
0.9501177,-6.6162133,-7.365114,-17.131794,-2.1826227,-5.2692337
1.8548979,-6.51579,-7.7374387,-9.9046335,6.256048,3.7605526
2.4584827,-6.3092504,-8.173599,3.6106856,14.342701,8.835201
2.802291,-5.888368,-8.456157,20.659012,17.292278,13.8476925
2.9077249,-5.2399054,-8.466269,34.924026,18.474304,21.018211
2.82859,-4.54951,-8.406544,46.719006,18.492111,29.345043
2.6154778,-3.8448837,-8.300691,56.384315,18.04622,36.99063
2.353418,-3.17092,-8.173587,64.0582,17.899096,43.276386
2.0843732,-2.5591347,-8.044533,70.22078,17.965965,48.804123
1.7156055,-2.0059338,-7.929042,76.039154,17.143808,52.928783
1.3378929,-1.4845368,-7.788266,81.53968,15.143191,55.897923
1.0057781,-0.9474242,-7.5746636,86.10827,12.283496,58.36843
0.71375257,-0.39060017,-7.282434,89.18568,8.852066,60.485718
0.43520287,0.13392588,-6.942827,90.64657,4.919822,61.976105
0.15441361,0.57296157,-6.5886884,91.4027,1.0561701,62.48672
-0.124907784,0.94550055,-6.251113,91.500694,-2.6994174,62.024723
-0.39029098,1.2885635,-5.9146943,91.05348,-6.7222285,60.815117
-0.60103536,1.6488556,-5.5358667,89.72959,-10.916619,59.009144
-0.76723546,2.0063615,-5.129638,87.13164,-15.000329,56.369625
-0.9196372,2.3544507,-4.7201576,83.322655,-19.144032,53.56153
-1.0767972,2.6200821,-4.380396,78.74431,-23.784286,50.778767
-1.2001678,2.8137705,-4.088522,73.93357,-28.655045,47.673172
-1.2394404,2.9704297,-3.8036304,69.250435,-33.20282,44.014526
-1.2094225,3.126813,-3.5004408,64.64048,-36.929455,39.529816
-1.1082275,3.318907,-3.1348908,59.742947,-39.831432,34.715836
-0.9685116,3.4994507,-2.739671,54.26199,-41.94346,30.008438
-0.8031673,3.640121,-2.3523684,48.424206,-43.559414,25.470087
-0.6139587,3.7205572,-1.9903673,42.240982,-44.750313,21.25249
-0.38679963,3.7329586,-1.6603994,35.53715,-45.247818,17.558922
-0.12086386,3.6478386,-1.3659977,28.751709,-45.117825,14.393272
0.15015064,3.4828799,-1.112747,22.097725,-44.233055,11.797161
0.40934604,3.2449617,-0.91033715,15.822842,-42.70653,9.752192
0.6497223,2.9435246,-0.77296406,10.209379,-40.68774,8.176447
0.8744926,2.5966537,-0.7046603,5.658586,-38.23114,7.238929
1.0938814,2.2072477,-0.7069803,2.0602965,-35.33542,7.020545
1.2647483,1.8150246,-0.76049703,-0.52806497,-32.15359,7.4014153
1.3929125,1.4407952,-0.85530144,-2.0603042,-28.89715,8.246601
1.4868531,1.1004487,-0.9806378,-2.6232593,-25.711353,9.480527
1.548046,0.79811525,-1.1310129,-2.062026,-22.694397,11.203463
1.5635766,0.5607524,-1.291105,-0.9590264,-19.855118,13.157377
1.5443892,0.3679198,-1.4548191,0.59654295,-17.124077,15.267952
1.4907645,0.21788223,-1.6223953,2.6270778,-14.629995,17.532316
1.4067705,0.11578864,-1.7876909,4.953412,-12.3982315,19.734283
1.300687,0.04740817,-1.9540493,7.7379074,-10.726614,21.83122
1.1869332,0.022646138,-2.1133733,10.748841,-9.616939,23.84798
1.0768051,0.025470698,-2.2637565,13.959845,-8.973102,25.847717
0.96699375,0.05167323,-2.4110527,17.346138,-8.735836,27.782003
0.8625002,0.10165958,-2.5478556,20.892614,-8.768695,29.714426
0.7535105,0.18619165,-2.6646242,24.62209,-9.063751,31.336897
0.62545514,0.3167741,-2.755388,28.302303,-9.640385,32.47293
0.48994046,0.4737285,-2.819851,31.695827,-10.502978,33.259907
0.3450502,0.6480008,-2.8583076,34.768906,-11.739187,33.804153
0.19746482,0.84577286,-2.8577673,37.535633,-13.416732,34.069336
0.06841405,1.0845784,-2.7974155,39.519688,-15.397088,33.80307
-0.045869082,1.3730447,-2.6656053,40.6326,-17.433714,32.864117
-0.15130366,1.6865484,-2.478518,40.67915,-19.520763,31.184963
-0.23280418,1.9966295,-2.2538655,39.689163,-21.53305,29.167164
-0.29753274,2.2889826,-2.014753,37.766155,-23.37641,26.980515
-0.3525404,2.5565722,-1.7802064,34.554886,-24.962473,24.652882
-0.39149714,2.777602,-1.5783631,30.61564,-26.42971,22.270306
-0.41688317,2.9539752,-1.4138517,26.156485,-27.869623,19.899563
-0.4305906,3.0801463,-1.2903302,21.453829,-29.403446,17.321388
-0.40180779,3.1482546,-1.1964672,16.712309,-30.890528,14.401688
-0.30147305,3.1428843,-1.1293122,12.199303,-32.013268,11.4621105
-0.1111568,3.0309763,-1.0917418,8.177909,-32.704727,9.103501
0.11115213,2.86085,-1.0562084,4.7609444,-32.871025,7.4279046
0.34553397,2.6573195,-1.0102441,2.01828,-32.48008,6.3758664
0.57896084,2.4344838,-0.950576,0.03493885,-31.403513,5.689888
0.80582047,2.2017195,-0.8726139,-1.0816482,-29.443632,5.269702
1.0224179,1.9629753,-0.7599743,-1.4043212,-26.916115,5.1351523
0.9899518,1.9006425,-0.73584193,-1.3597281,-26.061415,4.97209
0.9585551,1.8403629,-0.7125044,-1.3166038,-25.234867,4.814398
0.928189,1.782062,-0.68993294,-1.2748951,-24.435452,4.661883
0.8988166,1.7256689,-0.6681001,-1.2345512,-23.662193,4.514358
0.8704024,1.6711155,-0.6469795,-1.1955235,-22.914164,4.371646
0.84291255,1.6183368,-0.6265461,-1.1577654,-22.190468,4.233577
0.8163147,1.5672706,-0.6067756,-1.1212324,-21.490253,4.0999875
0.79057765,1.5178572,-0.58764493,-1.0858818,-20.812702,3.9707217
0.7656716,1.4700392,-0.56913203,-1.0516727,-20.157028,3.8456297
0.741568,1.423762,-0.5512155,-1.0185657,-19.522478,3.724568
0.71823937,1.3789724,-0.5338751,-0.98652303,-18.908329,3.6073983
0.6956592,1.3356202,-0.51709104,-0.9555086,-18.313885,3.4939885
0.6738024,1.2936563,-0.5008446,-0.9254875,-17.738482,3.384211
0.6526443,1.2530342,-0.48511758,-0.89642626,-17.181477,3.2779436
0.6321617,1.2137089,-0.46989262,-0.86829275,-16.642252,3.1750681
0.6123318,1.175637,-0.4551529,-0.8410559,-16.120213,3.0754719
0.59313315,1.1387768,-0.4408823,-0.81468594,-15.61479,2.9790454
0.57454467,1.103088,-0.42706528,-0.7891541,-15.12543,2.8856835
0.5565463,1.0685323,-0.41368687,-0.7644328,-14.651606,2.7952855
0.5391185,1.0350722,-0.40073264,-0.74049526,-14.192803,2.7077537
0.52224267,1.0026717,-0.38818866,-0.7173158,-13.748531,2.622994
0.5059008,0.9712963,-0.37604153,-0.6948697,-13.3183155,2.5409157
0.49007535,0.94091254,-0.36427835,-0.673133,-12.901696,2.4614317
0.47474965,0.9114882,-0.35288656,-0.65208274,-12.498233,2.3844573
0.45990747,0.88299215,-0.3418542,-0.6316965,-12.107498,2.3099117
0.44553313,0.85539436,-0.3311696,-0.61195296,-11.72908,2.2377157
0.43161157,0.8286659,-0.32082155,-0.5928313,-11.362582,2.167794
0.41812822,0.8027787,-0.31079924,-0.5743115,-11.00762,2.1000729
0.40506896,0.77770585,-0.30109215,-0.5563742,-10.663822,2.034482
0.3924202,0.75342107,-0.2916902,-0.5390008,-10.3308325,1.9709531
0.38016883,0.7298992,-0.28258362,-0.52217317,-10.008304,1.9094198
0.3683021,0.7071159,-0.27376297,-0.50587386,-9.695901,1.8498186
0.3568078,0.68504757,-0.26521912,-0.49008608,-9.393302,1.7920877
0.345674,0.66367143,-0.25694323,-0.4747935,-9.100194,1.7361676
0.33488926,0.64296544,-0.24892682,-0.45998034,-8.816276,1.6820005
0.32444248,0.6229083,-0.24116161,-0.44563136,-8.541254,1.629531
0.31432295,0.60347944,-0.23363966,-0.43173188,-8.274848,1.5787051
0.30452028,0.5846589,-0.22635323,-0.4182676,-8.016784,1.5294706
0.29502442,0.5664275,-0.21929486,-0.4052248,-7.766796,1.4817772
0.2858257,0.5487666,-0.21245734,-0.39259008,-7.5246315,1.4355761
0.27691472,0.5316581,-0.20583372,-0.3803506,-7.2900414,1.3908201
0.26828238,0.5150846,-0.19941722,-0.36849383,-7.062787,1.3474637
0.25991994,0.49902922,-0.1932013,-0.35700774,-6.8426375,1.3054628
0.25181884,0.48347563,-0.18717967,-0.34588063,-6.6293683,1.2647746
0.24397084,0.46840802,-0.18134618,-0.3351012,-6.4227624,1.2253575
0.23636802,0.45381108,-0.17569491,-0.32465848,-6.222611,1.1871719
0.22900264,0.43967006,-0.17022015,-0.3145419,-6.028711,1.1501789
0.22186725,0.42597058,-0.16491634,-0.30474126,-5.8408647,1.114341
0.21495463,0.41269878,-0.1597781,-0.29524654,-5.658883,1.0796219
0.20825776,0.39984125,-0.15480025,-0.2860482,-5.482582,1.0459867
0.2017699,0.38738498,-0.14997776,-0.27713695,-5.311783,1.0134009
0.19548447,0.3753174,-0.14530574,-0.26850373,-5.146313,0.981832
0.18939516,0.36362627,-0.14077948,-0.26013985,-4.9860063,0.95124805
0.18349579,0.35229987,-0.13639441,-0.2520369,-4.8306994,0.9216181
0.1777804,0.3413267,-0.1321461,-0.24418665,-4.680237,0.8929123
0.17224328,0.3306958,-0.1280303,-0.23658125,-4.5344667,0.86510175
0.1668788,0.32039636,-0.12404283,-0.22921298,-4.393242,0.8381584
0.16168159,0.31041807,-0.12017968,-0.22207446,-4.2564206,0.8120551
0.15664642,0.30075082,-0.11643698,-0.21515849,-4.1238647,0.78676564
0.1517682,0.29138497,-0.11281094,-0.20845811,-3.9954407,0.76226443
0.14704202,0.28231102,-0.10929793,-0.20196657,-3.8710198,0.738527
0.14246315,0.2735199,-0.10589441,-0.19567737,-3.7504768,0.7155294
0.13802698,0.26500276,-0.10259695,-0.18958415,-3.6336906,0.69324845
0.13372906,0.25675103,-0.099402264,-0.18368083,-3.5205438,0.6716619
0.12956506,0.24875642,-0.096307114,-0.17796145,-3.4109225,0.65074795
0.12553081,0.24101092,-0.09330841,-0.17242028,-3.3047168,0.6304857
0.12162224,0.23350672,-0.09040313,-0.16705175,-3.2018201,0.6108547
0.11783545,0.22623633,-0.08758837,-0.16185048,-3.1021292,0.5918353
0.114166625,0.21919243,-0.084861286,-0.15681124,-3.005544,0.5734084
0.11061209,0.21236795,-0.08221916,-0.15192898,-2.9119675,0.5555556
0.10716827,0.20575605,-0.07965934,-0.1471988,-2.8213058,0.5382588
0.10383172,0.1993501,-0.07717925,-0.14261596,-2.733468,0.5215008
0.1005991,0.19314368,-0.0747764,-0.13817586,-2.6483665,0.5052648
0.09746717,0.18713057,-0.0724484,-0.13387404,-2.565915,0.48953444
0.09443277,0.18130472,-0.0701929,-0.1297062,-2.4860318,0.474294
0.09149288,0.17566033,-0.06800765,-0.12566818,-2.4086363,0.45952824
0.088644534,0.17019169,-0.06589045,-0.1217559,-2.333651,0.4452223
0.0858849,0.16489337,-0.063839175,-0.11796545,-2.261001,0.43136185
0.0832112,0.15976004,-0.06185179,-0.11429305,-2.1906133,0.41793305
0.08062076,0.15478657,-0.059926283,-0.110735,-2.1224174,0.4049224
0.07811098,0.14996795,-0.05806074,-0.10728774,-2.0563452,0.39231688
0.07567935,0.14529939,-0.05625328,-0.10394783,-1.9923303,0.3801039
0.073323436,0.14077619,-0.054502107,-0.10071191,-1.9303086,0.36827117
0.071040876,0.13639383,-0.052805457,-0.09757675,-1.8702182,0.3568069
0.06882939,0.13214791,-0.051161632,-0.09453921,-1.8119986,0.34569958
0.06668676,0.1280342,-0.049568992,-0.09159624,-1.7555919,0.33493808
0.06461084,0.12404857,-0.048025936,-0.0887449,-1.7009412,0.32451165
0.06259955,0.12018703,-0.046530925,-0.08598234,-1.6479923,0.31440985
0.06065088,0.11644571,-0.045082457,-0.08330578,-1.5966917,0.30462253
0.058762882,0.11282088,-0.04367909,-0.080712564,-1.5469884,0.29513997
0.056933664,0.1093089,-0.04231941,-0.07820007,-1.4988323,0.2859526
0.055161394,0.105906256,-0.04100206,-0.07576581,-1.4521757,0.27705127
0.053444296,0.102609545,-0.039725725,-0.07340733,-1.4069716,0.26842704
0.05178066,0.099415466,-0.038489126,-0.07112227,-1.3631747,0.26007134
0.050168812,0.09632083,-0.037291024,-0.06890835,-1.3207413,0.25197574
0.048607145,0.09332253,-0.036130216,-0.06676336,-1.2796289,0.24413218
0.04709409,0.09041757,-0.03500555,-0.06468513,-1.2397964,0.23653279
0.045628145,0.08760305,-0.033915896,-0.06267161,-1.201204,0.22916998
0.04420783,0.084876135,-0.03286016,-0.060720768,-1.1638129,0.22203638
0.042831734,0.08223412,-0.031837292,-0.058830656,-1.1275858,0.21512485
0.041498475,0.07967435,-0.030846266,-0.056999385,-1.0924865,0.20842847
0.04020672,0.077194266,-0.029886091,-0.055225123,-1.0584798,0.20194057
0.038955178,0.07479139,-0.028955806,-0.053506088,-1.0255318,0.19565462
0.037742592,0.072463304,-0.02805448,-0.05184057,-0.99360937,0.18956435
0.03656776,0.07020769,-0.02718121,-0.050226897,-0.9626807,0.18366367
0.035429493,0.0680223,-0.026335126,-0.04866346,-0.9327148,0.17794667
0.03432666,0.06590494,-0.02551538,-0.047148686,-0.90368176,0.17240763
0.03325816,0.06385349,-0.024721151,-0.04568107,-0.8755524,0.16704102
