ax,ay,az,gx,gy,gz
-4.7936797,-2.6927516,-4.06731,-28.132074,39.839455,-38.507626
-5.6400375,-3.1240726,-4.774239,-18.770416,9.079483,-61.571663
-5.473595,-3.7535763,-4.657176,-14.992472,-0.95562094,-82.04983
-4.979428,-4.1830726,-4.6803894,-13.174904,-1.25952,-98.72029
-4.074292,-4.670014,-5.05796,-8.829218,3.3244386,-101.26807
-3.170338,-5.282159,-5.896504,-1.1156974,4.067085,-90.943306
-2.6270697,-5.5650215,-6.68657,8.277568,0.31562945,-76.33413
-2.192886,-5.5915346,-7.340588,17.944706,-6.228238,-62.515415
-1.6832752,-5.4766884,-7.8349686,27.94935,-11.497921,-50.82786
-1.185202,-5.195659,-8.169209,38.33339,-12.191973,-42.205452
-0.9148714,-4.7663445,-8.367772,48.045452,-11.128731,-35.291286
-0.8475968,-4.264559,-8.472641,57.062634,-11.063881,-28.059908
-0.95000166,-3.7389433,-8.514195,65.33704,-13.171465,-21.20617
-1.1103575,-3.2286763,-8.484978,73.25724,-16.732668,-15.38492
-1.2575192,-2.6212168,-8.301243,79.75438,-20.421274,-11.548732
-1.3706102,-1.8804997,-7.916492,84.28387,-23.705849,-9.171436
-1.4371414,-1.0961252,-7.4201427,86.760124,-26.979612,-7.5948396
-1.4570912,-0.29693225,-6.8355775,87.02867,-30.356306,-6.497258
-1.4380349,0.43879184,-6.222311,85.47639,-33.52787,-6.144684
-1.3781185,1.0960774,-5.6039586,81.92356,-35.93405,-6.7961183
-1.2989069,1.6794728,-4.9729524,76.93763,-37.886345,-8.0052
-1.2069029,2.158486,-4.3662567,70.784836,-39.369522,-9.6010475
-1.118842,2.519315,-3.8038888,63.610676,-40.240257,-11.317198
-1.0556828,2.7510092,-3.3183477,55.926067,-40.852173,-13.127631
-1.0065616,2.8498971,-2.912827,47.89118,-41.62342,-15.018801
-0.9311725,2.75834,-2.5988753,40.219257,-42.39254,-16.928366
-0.8172911,2.531793,-2.365055,33.31033,-43.113804,-18.925348
-0.6252982,2.1873116,-2.2009697,27.413275,-43.357185,-20.960901
-0.3545857,1.738874,-2.1014504,22.713312,-42.81479,-22.571022
-0.034062196,1.2294744,-2.059396,19.642435,-41.358162,-22.7441
0.30819324,0.69300735,-2.0783477,17.651022,-39.210545,-21.46595
0.6295885,0.17861553,-2.1458366,16.749025,-36.216904,-18.913687
0.8713698,-0.27760467,-2.257781,17.212105,-32.823112,-15.628604
1.0133288,-0.65188205,-2.3854594,18.77779,-29.487852,-12.148355
1.0717242,-0.93522805,-2.5115395,21.485502,-26.377705,-8.647311
1.0330426,-1.0964624,-2.6333034,24.794012,-23.732779,-5.2974353
0.93769073,-1.1748128,-2.753605,28.53555,-21.637049,-2.255329
0.79643804,-1.1881241,-2.8824766,32.72222,-20.180643,0.23766205
0.62255543,-1.1500573,-3.01697,37.151688,-19.373997,2.4234397
0.41641402,-1.0682943,-3.1596506,41.973038,-20.009108,4.283194
0.22114193,-0.90677017,-3.2588668,46.669598,-21.640314,6.0395956
0.051000483,-0.6608824,-3.2974687,50.76239,-23.397194,7.2591896
-0.123172,-0.35969412,-3.2931848,54.244404,-25.01776,7.343993
-0.3046323,-0.018251866,-3.253499,57.097343,-26.985611,6.770673
-0.47719976,0.35871696,-3.1689193,58.71133,-30.16413,6.119247
-0.593466,0.7602967,-3.009733,59.084774,-33.714176,5.4442215
-0.6704205,1.1489362,-2.8164873,58.237797,-37.10726,4.476835
-0.7304616,1.5104719,-2.61305,56.22363,-40.308098,3.0484385
-0.7672337,1.834523,-2.4140053,53.224632,-43.27884,1.0716313
-0.76603913,2.1027915,-2.2213597,49.005123,-46.103363,-1.3134378
-0.6895106,2.2757185,-2.036387,44.0607,-48.57701,-3.3400283
-0.56551623,2.3580215,-1.8845406,38.61615,-50.621593,-5.098161
-0.37621397,2.3281548,-1.7833656,33.08699,-51.92375,-6.8567424
-0.10647969,2.1897435,-1.7267404,27.773775,-52.253227,-8.573605
0.22567402,1.9647158,-1.7093239,23.226316,-51.707077,-9.460279
0.60701585,1.6727949,-1.7118212,19.450518,-50.697594,-9.198438
0.9736643,1.377674,-1.7024225,16.514877,-49.11477,-7.780034
1.2781351,1.1126505,-1.6690459,14.297403,-46.87105,-5.596771
1.5027663,0.8983826,-1.6091938,12.554177,-43.810406,-3.1627033
1.6626738,0.73290026,-1.535573,11.167124,-39.530487,-0.55470616
1.7609758,0.62593937,-1.4668868,9.892418,-34.63026,2.211151
1.7039245,0.60566044,-1.4193633,9.571928,-33.508324,2.139515
1.6488568,0.5860866,-1.373492,9.262581,-32.425396,2.0703697
1.5956912,0.5671889,-1.3292053,8.963919,-31.379875,2.003613
1.544351,0.54894,-1.2864391,8.675511,-30.37025,1.9391482
1.4947633,0.531314,-1.2451327,8.396949,-29.395088,1.8768839
1.4468591,0.51428646,-1.2052287,8.127843,-28.453035,1.8167335
1.400573,0.49783406,-1.1666725,7.867827,-27.5428,1.7586148
1.3558427,0.48193464,-1.1294123,7.616551,-26.663162,1.7024497
1.3126091,0.46656725,-1.0933988,7.373683,-25.812956,1.6481638
1.2708158,0.45171186,-1.0585853,7.1389065,-24.991077,1.5956867
1.2304095,0.4373494,-1.0249269,6.9119205,-24.19647,1.5449508
1.1913388,0.4234617,-0.99238116,6.692438,-23.428131,1.4958922
1.153555,0.41003147,-0.9609074,6.4801846,-22.685099,1.4484493
1.1170115,0.39704207,-0.9304668,6.274899,-21.966457,1.4025638
1.0816638,0.3844777,-0.90102226,6.07633,-21.271332,1.3581799
1.0474694,0.37232327,-0.8725384,5.88424,-20.598883,1.315244
1.0143872,0.36056423,-0.8449811,5.6983986,-19.94831,1.2737048
0.98237854,0.34918672,-0.81831795,5.518587,-19.318848,1.2335134
0.95140576,0.33817744,-0.7925177,5.3445954,-18.709757,1.1946226
0.9214331,0.32752365,-0.7675506,5.1762214,-18.120333,1.1569878
0.892426,0.3172131,-0.7433878,5.0132723,-17.549898,1.1205654
0.8643516,0.30723402,-0.72000194,4.8555617,-16.997803,1.085314
0.837178,0.29757515,-0.6973664,4.7029123,-16.463425,1.0511938
0.81087476,0.28822565,-0.67545587,4.5551515,-15.94616,1.0181664
0.7854125,0.27917507,-0.6542459,4.412115,-15.445436,0.98619497
0.760763,0.27041343,-0.633713,4.273645,-14.960694,0.9552441
0.7368992,0.26193103,-0.6138345,4.1395884,-14.491404,0.92527974
0.7137949,0.25371858,-0.5945887,4.009798,-14.037048,0.8962691
0.69142497,0.24576719,-0.5759546,3.884133,-13.597135,0.8681805
0.6697651,0.2380682,-0.55791205,3.7624571,-13.1711855,0.8409835
0.64879197,0.23061329,-0.5404415,3.6446393,-12.758741,0.81464887
0.6284831,0.2233945,-0.5235243,3.5305524,-12.35936,0.7891482
0.60881674,0.21640408,-0.50714225,3.4200752,-11.972613,0.76445436
0.5897719,0.2096346,-0.49127802,3.3130896,-11.59809,0.740541
0.5713285,0.20307888,-0.4759147,3.2094822,-11.235393,0.71738267
0.553467,0.19672999,-0.4610361,3.1091435,-10.884138,0.694955
0.53616846,0.19058122,-0.44662648,3.0119677,-10.543957,0.6732343
0.5194148,0.18462613,-0.43267074,2.9178529,-10.21449,0.6521978
0.5031885,0.1788585,-0.41915432,2.8267004,-9.895393,0.63182336
0.4874726,0.17327227,-0.406063,2.738415,-9.586334,0.6120899
0.4722507,0.16786164,-0.3933832,2.6529047,-9.28699,0.5929766
0.457507,0.16262099,-0.3811018,2.570081,-8.997049,0.5744639
0.44322625,0.1575449,-0.36920595,2.4898577,-8.716212,0.5565324
0.42939362,0.15262808,-0.35768342,2.4121518,-8.444189,0.5391636
0.41599485,0.14786549,-0.3465223,2.3368833,-8.180697,0.5223396
0.40301618,0.14325221,-0.3357111,2.2639744,-7.9254665,0.506043
0.3904442,0.1387835,-0.32523867,2.1933506,-7.6782336,0.49025717
0.37826604,0.13445476,-0.3150943,2.1249387,-7.438745,0.47496578
0.36646917,0.13026157,-0.30526757,2.0586689,-7.2067556,0.4601532
0.3550416,0.12619963,-0.2957484,1.9944736,-6.982028,0.44580424
0.34397155,0.12226479,-0.28652713,1.9322869,-6.7643313,0.4319043
0.3332478,0.118453026,-0.27759427,1.8720453,-6.553445,0.41843912
0.3228594,0.11476046,-0.26894078,1.8136876,-6.349153,0.405395
0.31279573,0.11118333,-0.26055777,1.7571542,-6.1512475,0.3927587
0.3030466,0.107718006,-0.2524368,1.7023878,-5.959527,0.3805173
0.2936021,0.10436095,-0.24456955,1.6493325,-5.773797,0.36865842
0.28445265,0.10110877,-0.23694807,1.5979347,-5.593869,0.35716996
0.2755889,0.097958155,-0.22956462,1.5481421,-5.419561,0.34604034
0.26700196,0.09490592,-0.22241172,1.4999042,-5.250695,0.33525822
0.2586831,0.09194898,-0.21548213,1.4531723,-5.0871015,0.3248127
0.25062388,0.08908433,-0.20876883,1.407899,-4.928614,0.31469324
0.24281618,0.08630908,-0.20226505,1.3640387,-4.7750726,0.3048896
0.23525211,0.08362043,-0.1959642,1.3215469,-4.6263223,0.29539186
0.22792403,0.08101566,-0.18985994,1.2803808,-4.4822125,0.28619042
0.22082454,0.07849214,-0.18394609,1.2404989,-4.3425984,0.277276
0.21394648,0.07604734,-0.17821668,1.2018609,-4.207339,0.26863965
0.20728293,0.07367878,-0.17266597,1.1644279,-4.0762978,0.26027262
0.20082715,0.071384065,-0.16728833,1.128162,-3.9493425,0.2521665
0.19457267,0.06916091,-0.16207837,1.093027,-3.8263454,0.24431314
0.18851317,0.06700706,-0.15703082,1.0589873,-3.7071831,0.23670459
0.18264256,0.06492035,-0.15214063,1.0260087,-3.5917356,0.22933322
0.17695494,0.06289869,-0.14740287,0.9940581,-3.4798863,0.22219163
0.1714446,0.06094003,-0.14281276,0.9631033,-3.3715231,0.2152726
0.16610597,0.059042417,-0.1383657,0.93311316,-3.2665372,0.20856923
0.16093372,0.057203934,-0.13405724,0.9040576,-3.1648228,0.20207474
0.15592264,0.055422742,-0.12988302,0.8759074,-3.066278,0.19578262
0.15106767,0.05369705,-0.12583886,0.84863436,-2.9708035,0.18968655
0.14636399,0.05202512,-0.121920705,0.822211,-2.8783035,0.18378042
0.14180684,0.050405283,-0.11812462,0.79661095,-2.7886856,0.17805828
0.13739167,0.048835907,-0.11444679,0.7718083,-2.7018595,0.17251441
0.13311402,0.04731542,-0.11088353,0.74777836,-2.617738,0.16714324
0.12896964,0.045842294,-0.10743126,0.7244969,-2.536237,0.16193937
0.124954335,0.044415053,-0.10408653,0.70194066,-2.4572744,0.1568976
0.1210641,0.043032266,-0.10084598,0.6800869,-2.3807716,0.15201287
0.11729503,0.041692548,-0.097706355,0.65891385,-2.3066514,0.14728026
0.11364333,0.040394556,-0.09466451,0.63840026,-2.2348394,0.14269507
0.11010537,0.039136987,-0.0917174,0.61852545,-2.1652641,0.13825266
0.1066776,0.037918583,-0.08886207,0.5992696,-2.0978556,0.13394861
0.10335656,0.03673812,-0.08609566,0.5806135,-2.032546,0.12977858
0.10013895,0.03559442,-0.083415404,0.56253827,-1.9692706,0.12573843
0.09702153,0.03448633,-0.0808186,0.54502594,-1.9079653,0.12182407
0.09400118,0.033412747,-0.07830267,0.52805895,-1.848569,0.118031606
0.091074884,0.032372594,-0.07586507,0.5116202,-1.7910223,0.114357226
0.08823971,0.03136483,-0.073503375,0.4956934,-1.7352674,0.11079726
0.085492805,0.030388441,-0.07121521,0.48026246,-1.6812485,0.107348144
0.082831435,0.029442456,-0.0689983,0.46531197,-1.6289116,0.10400642
0.08025292,0.028525924,-0.06685041,0.450827,-1.5782043,0.100768745
0.07775469,0.027637929,-0.064769395,0.436793,-1.5290756,0.09763187
0.07533425,0.02677758,-0.06275317,0.42319596,-1.4814767,0.09459266
0.07298916,0.025944017,-0.06079972,0.41002226,-1.4353596,0.09164807
0.07071708,0.025136407,-0.058907088,0.3972587,-1.3906784,0.08879516
0.06851574,0.02435394,-0.05707338,0.3848925,-1.3473881,0.08603108
0.06638294,0.023595834,-0.05529676,0.37291127,-1.3054458,0.08335304
0.06431653,0.02286133,-0.05357545,0.3613031,-1.264809,0.08075838
0.06231446,0.022149691,-0.05190773,0.3500563,-1.2254375,0.07824449
0.06037471,0.021460207,-0.050291926,0.3391596,-1.1872916,0.075808875
0.05849535,0.020792188,-0.04872643,0.32860216,-1.1503333,0.073449075
0.0566745,0.020144965,-0.04720966,0.31837338,-1.1145256,0.07116274
0.05491033,0.019517893,-0.045740116,0.30846304,-1.0798326,0.06894758
0.053201083,0.01891034,-0.044316318,0.29886118,-1.0462195,0.066801384
0.051545043,0.0183217,-0.042936843,0.28955826,-1.0136529,0.064721994
0.049940556,0.017751385,-0.041600313,0.28054494,-0.98210007,0.062707335
0.04838602,0.017198823,-0.040305387,0.2718122,-0.95152944,0.060755398
0.046879873,0.016663464,-0.039050773,0.26335132,-0.9219105,0.05886422
0.045420613,0.01614477,-0.037835214,0.2551538,-0.8932136,0.057031915
0.044006776,0.015642222,-0.036657494,0.24721147,-0.86541003,0.05525665
0.042636953,0.015155317,-0.035516437,0.23951639,-0.83847195,0.053536646
0.041309774,0.014683571,-0.0344109,0.23206085,-0.81237245,0.051870186
0.040023904,0.014226508,-0.033339776,0.2248374,-0.78708535,0.050255597
