ax,ay,az,gx,gy,gz
4.7718616,-5.455504,-6.9646087,-30.018456,70.85701,61.59056
3.6403186,-5.4438286,-8.416113,-8.9398155,65.653984,66.09529
2.5815241,-5.473615,-9.056591,12.135066,56.86323,65.623695
1.8956896,-5.411773,-9.262085,32.623,50.832092,65.57628
1.3979431,-5.0738297,-9.219055,49.910324,47.040607,68.30519
0.93060905,-4.694224,-9.176681,66.77104,44.912308,73.43518
0.30337855,-4.2147713,-9.142757,82.43436,42.953617,77.205864
-0.40705708,-3.5991638,-9.073797,96.772644,39.611336,78.25707
-1.0730579,-2.796991,-8.836378,106.74626,34.1562,76.080734
-1.5691615,-2.1669226,-8.604991,114.985115,28.463142,72.02367
-1.9378637,-1.5862912,-8.347365,122.46056,23.126757,67.46897
-2.2561252,-0.9709602,-8.038389,128.50562,16.669943,62.83945
-2.5340521,-0.352239,-7.6571665,133.40134,9.946391,58.53087
-2.7619698,0.29280615,-7.214524,137.10526,2.7480614,54.164257
-2.9138248,1.0200596,-6.6473002,138.7564,-4.4621983,49.70515
-2.9746475,1.7844403,-5.9753494,137.25221,-11.623626,45.52658
-2.9516535,2.5369005,-5.216036,133.48119,-18.366606,42.01099
-2.8997462,3.2149463,-4.458949,127.44239,-24.335527,38.8774
-2.841911,3.78584,-3.7566793,119.526215,-29.320871,35.78978
-2.7962828,4.24815,-3.1451123,110.226295,-33.572296,32.54359
-2.742694,4.603813,-2.6125398,99.23288,-37.327435,29.118927
-2.6194606,4.8083906,-2.1526752,87.70412,-40.562668,25.834064
-2.443155,4.881014,-1.7450168,75.88089,-43.302116,22.837564
-2.2051506,4.8073187,-1.3910669,64.01951,-45.28792,20.070427
-1.8890985,4.5674977,-1.1305991,52.64836,-46.129494,17.280113
-1.4826033,4.133663,-1.0106272,42.610497,-45.600544,14.474271
-0.9978591,3.535808,-1.0498176,34.80241,-43.668224,12.841394
-0.51956517,2.8911014,-1.1682786,29.207644,-41.040424,12.625504
-0.09019377,2.2685223,-1.3073629,25.263609,-37.7328,13.411786
0.25854784,1.6992077,-1.4573836,22.883646,-33.718933,14.76482
0.49595687,1.2045393,-1.6199627,22.542566,-29.387722,16.590107
0.5855967,0.820453,-1.7758034,23.378664,-25.345922,18.867918
0.58209103,0.5327263,-1.9121217,25.061586,-21.69592,21.65224
0.50390935,0.33035672,-2.038329,27.457933,-18.476831,24.620672
0.37765974,0.20863344,-2.1541226,30.409294,-15.559618,27.61348
0.1886939,0.15846254,-2.2855182,34.40711,-13.497491,29.751951
-0.07272266,0.16026051,-2.425479,39.214024,-12.384474,30.718164
-0.31534883,0.18073036,-2.5560372,44.913063,-12.092734,31.226187
-0.5370942,0.25645813,-2.6610577,51.0618,-12.7803755,31.854094
-0.7494646,0.4273131,-2.7128327,56.896603,-14.631905,32.631004
-0.9629887,0.71937275,-2.6745694,60.818592,-17.777058,33.05834
-1.1776773,0.9846975,-2.6193075,63.637535,-21.544447,32.422047
-1.4077258,1.2809935,-2.5307524,66.08002,-25.698647,30.348866
-1.6120924,1.6253389,-2.3861172,67.690994,-30.219305,27.076197
-1.7717284,2.0076072,-2.1873777,67.8682,-35.412384,23.080029
-1.8431836,2.377325,-1.941092,66.10791,-40.877697,19.34893
-1.8342377,2.6774647,-1.6877763,63.390053,-46.210285,16.31315
-1.7907056,2.90697,-1.4496883,59.664722,-51.562828,13.95126
-1.6864209,3.0462124,-1.2415186,55.12503,-56.661583,11.867026
-1.4476849,3.0566478,-1.0934739,50.164394,-60.712677,9.235967
-1.0326475,2.9327457,-1.0238448,45.485527,-62.246876,5.968401
-0.46415633,2.6851354,-1.0288172,41.35127,-62.198013,3.7135057
0.109583564,2.4053457,-1.0494355,37.863552,-60.766518,3.534393
0.61159796,2.153436,-1.0528803,34.919052,-58.258026,5.292712
0.59133714,2.0820975,-1.0180008,33.762268,-56.328075,5.1173773
0.5718222,2.0133855,-0.98440546,32.648067,-54.46917,4.948497
0.5530188,1.9471787,-0.95203495,31.57449,-52.678043,4.7857738
0.5348948,1.8833641,-0.920834,30.539703,-50.951633,4.62893
0.51742005,1.8218355,-0.8907508,29.541985,-49.287067,4.4777055
0.50056624,1.7624933,-0.86173654,28.57972,-47.68165,4.331854
0.4843067,1.7052435,-0.8337454,27.651386,-46.13284,4.1911454
0.46861634,1.6499977,-0.8067341,26.755548,-44.638252,4.0553627
0.4534715,1.5966728,-0.7806619,25.890858,-43.19562,3.9243007
0.43884984,1.5451899,-0.75549036,25.056036,-41.80283,3.797766
0.42473015,1.4954745,-0.731183,24.249876,-40.45785,3.6755755
0.41109246,1.4474561,-0.7077054,23.471235,-39.158787,3.5575562
0.39791775,1.4010681,-0.6850248,22.719028,-37.903828,3.4435437
0.38518804,1.3562468,-0.6631103,21.99223,-36.691254,3.333382
0.37288624,1.3129321,-0.6419325,21.28986,-35.51944,3.2269232
0.36099607,1.2710668,-0.62146324,20.610992,-34.386833,3.1240268
0.34950203,1.2305963,-0.601676,19.954742,-33.291965,3.0245583
0.3383894,1.1914688,-0.58254534,19.32027,-32.23343,2.9283907
0.3276441,1.1536347,-0.5640471,18.70677,-31.20988,2.835402
0.31725276,1.1170467,-0.5461581,18.113478,-30.220047,2.745476
0.3072025,1.0816597,-0.52885634,17.53966,-29.262705,2.658502
0.29748112,1.0474308,-0.5121207,16.98462,-28.33669,2.5743742
0.28807688,1.0143185,-0.49593115,16.447687,-27.440886,2.4929907
0.2789786,0.9822833,-0.4802682,15.928222,-26.574224,2.414255
0.2701755,0.9512876,-0.46511346,15.425611,-25.735682,2.3380737
0.2616573,0.9212951,-0.45044923,14.939267,-24.924278,2.264358
0.25341415,0.89227104,-0.43625847,14.468626,-24.139074,2.1930227
0.2454366,0.864182,-0.42252487,14.013149,-23.379168,2.1239855
0.23771551,0.8369961,-0.40923285,13.572315,-22.643692,2.057168
0.23024218,0.8106825,-0.39636734,13.145627,-21.931816,1.9924946
0.2230082,0.7852117,-0.38391387,12.732605,-21.242743,1.9298924
0.21600553,0.76055527,-0.37185863,12.332789,-20.575699,1.8692919
0.20922638,0.73668593,-0.3601882,11.945736,-19.929949,1.8106259
0.20266332,0.7135774,-0.3488897,11.571018,-19.304781,1.7538297
0.19630913,0.6912043,-0.33795083,11.208228,-18.69951,1.6988412
0.1901569,0.6695423,-0.32735962,10.856968,-18.113478,1.6456004
0.18419999,0.648568,-0.3171046,10.516858,-17.54605,1.5940497
0.17843193,0.62825865,-0.30717477,10.187532,-16.996609,1.5441334
0.17284654,0.6085925,-0.2975594,9.868636,-16.464571,1.495798
0.16743787,0.5895486,-0.28824824,9.559829,-15.949366,1.4489918
0.16220012,0.5711065,-0.27923134,9.260781,-15.450442,1.403665
0.15712778,0.5532468,-0.2704992,8.971177,-14.967275,1.3597693
0.15221547,0.53595054,-0.26204252,8.690709,-14.49935,1.3172586
0.147458,0.5191995,-0.25385243,8.419083,-14.046175,1.2760879
0.14285038,0.50297606,-0.2459203,8.156012,-13.607274,1.236214
0.1383878,0.4872633,-0.23823786,7.9012213,-13.182189,1.1975952
0.13406558,0.47204477,-0.23079705,7.654445,-12.770474,1.1601912
0.12987922,0.45730463,-0.22359015,7.4154263,-12.371701,1.1239629
0.12582439,0.44302756,-0.21660966,7.183916,-11.985456,1.0888727
0.12189686,0.42919877,-0.20984833,6.9596753,-11.611339,1.0548842
0.1180926,0.4158039,-0.20329918,6.742471,-11.2489605,1.0219624
0.11440764,0.4028292,-0.19695546,6.5320797,-10.897949,0.9900732
0.11083822,0.3902613,-0.1908106,6.3282843,-10.557942,0.95918375
0.10738065,0.3780872,-0.18485832,6.130875,-10.22859,0.9292623
0.10403139,0.36629444,-0.1790925,5.9396496,-9.9095545,0.9002781
0.100787,0.35487095,-0.1735072,5.754412,-9.600509,0.87220144
0.097644165,0.34380502,-0.16809674,5.5749726,-9.301137,0.8450036
0.094599664,0.33308536,-0.16285557,5.4011474,-9.011132,0.8186568
0.091650404,0.32270098,-0.15777832,5.23276,-8.730198,0.79313415
0.08879336,0.31264135,-0.15285987,5.069638,-8.45805,0.76840955
0.08602564,0.3028962,-0.14809516,4.9116154,-8.194409,0.74445796
0.083344415,0.29345563,-0.14347938,4.7585316,-7.939008,0.7212549
0.08074697,0.28431,-0.13900782,4.610231,-7.6915874,0.69877684
0.078230664,0.2754501,-0.13467593,4.466563,-7.4518957,0.677001
0.07579295,0.26686692,-0.13047935,4.327382,-7.21969,0.6559052
0.07343135,0.25855172,-0.1264138,4.1925473,-6.994735,0.6354682
0.071143486,0.25049615,-0.122475185,4.0619216,-6.776803,0.61566913
0.06892703,0.242692,-0.1186595,3.9353735,-6.5656734,0.5964881
0.06677974,0.2351314,-0.11496289,3.8127747,-6.3611326,0.5779057
0.064699456,0.22780672,-0.111381635,3.6940012,-6.162974,0.5599031
0.062684074,0.22071056,-0.10791211,3.5789335,-5.970998,0.54246217
0.060731556,0.21383576,-0.10455081,3.4674551,-5.7850103,0.52556527
0.05883994,0.20717537,-0.101294346,3.3594537,-5.6048236,0.50919545
0.057007316,0.20072271,-0.09813944,3.2548203,-5.4302564,0.49333608
0.05523184,0.19447125,-0.09508292,3.15345,-5.2611327,0.47797126
0.05351172,0.18841472,-0.09212169,3.0552402,-5.097282,0.4630855
0.051845226,0.18254699,-0.08925278,2.960092,-4.938539,0.4486638
0.050230682,0.17686218,-0.0864733,2.86791,-4.784745,0.4346917
0.048666462,0.17135458,-0.08378047,2.7786012,-4.6357446,0.4211551
0.047150996,0.16601862,-0.08117155,2.692076,-4.4913883,0.40804037
0.045682758,0.16084896,-0.07864395,2.6082473,-4.351531,0.3953344
0.044260275,0.1558404,-0.07619511,2.527031,-4.2160316,0.38302436
0.04288212,0.1509879,-0.07382258,2.4483452,-4.0847545,0.3710979
0.0415469,0.1462866,-0.07152397,2.3721113,-3.957568,0.35954306
0.040253285,0.14173178,-0.06929698,2.2982526,-3.834344,0.34834823
0.03899997,0.13731886,-0.06713937,2.2266948,-3.714959,0.33750215
0.0377857,0.13304342,-0.06504898,2.1573663,-3.599293,0.32699397
0.036609255,0.12890115,-0.0630237,2.0901976,-3.4872303,0.31681314
0.035469458,0.12488793,-0.06106151,2.025121,-3.3786583,0.3069494
0.034365162,0.12099971,-0.059160437,1.9620715,-3.2734683,0.29739293
0.033295263,0.11723259,-0.05731858,1.9009858,-3.1715546,0.28813413
0.032258686,0.113582805,-0.055534087,1.8418026,-3.072815,0.2791637
0.031254392,0.110046685,-0.053805172,1.7844627,-2.9771504,0.27047262
0.030281376,0.1066207,-0.052130103,1.7289085,-2.8844655,0.26205224
0.029338662,0.1033014,-0.0505072,1.6750846,-2.7946668,0.25389406
0.028425304,0.100085475,-0.048934832,1.6229366,-2.7076647,0.24598996
0.027540391,0.096969694,-0.047411434,1.5724126,-2.6233718,0.238332
0.026683033,0.093950935,-0.04593547,1.5234619,-2.5417037,0.2309125
0.025852373,0.09102618,-0.04450547,1.4760356,-2.4625788,0.22372405
0.025047576,0.08819249,-0.043119993,1.430086,-2.3859177,0.21675941
0.024267841,0.08544704,-0.04177766,1.3855671,-2.3116436,0.21001166
0.023512382,0.08278708,-0.040477123,1.3424344,-2.2396822,0.203474
0.022780446,0.08020993,-0.039217077,1.3006448,-2.1699612,0.19713989
0.0220713,0.07771303,-0.037996266,1.2601562,-2.1024113,0.19100301
0.021384234,0.07529387,-0.036813464,1.2209282,-2.0369644,0.1850572
0.020718558,0.07295003,-0.035667486,1.1829216,-1.9735552,0.1792965
0.020073608,0.07067916,-0.03455719,1.1460984,-1.9121201,0.17371516
0.019448739,0.06847899,-0.03348146,1.1104214,-1.8525978,0.16830759
0.018843321,0.066347316,-0.03243922,1.0758554,-1.7949287,0.16306837
0.018256754,0.064282015,-0.031429432,1.0423654,-1.7390548,0.15799226
0.017688446,0.062281005,-0.030451078,1.009918,-1.6849205,0.15307419
0.017137833,0.060342293,-0.029503183,0.9784808,-1.6324716,0.14830922
0.01660436,0.058463935,-0.028584797,0.9480223,-1.5816554,0.1436926
0.016087495,0.056644056,-0.027695002,0.91851205,-1.5324212,0.1392197
0.015586721,0.05488083,-0.026832908,0.8899205,-1.4847198,0.13488604
0.015101536,0.053172495,-0.025997652,0.8622189,-1.4385033,0.1306873
0.014631456,0.05151734,-0.025188396,0.8353798,-1.3937256,0.12661926
0.014176009,0.049913716,-0.024404334,0.8093762,-1.3503418,0.12267788
0.01373474,0.04836001,-0.02364468,0.784182,-1.3083086,0.11885918
0.013307208,0.04685467,-0.022908673,0.7597722,-1.2675838,0.115159355
0.012892986,0.04539619,-0.02219558,0.73612225,-1.2281269,0.11157471
0.012491657,0.043983113,-0.021504683,0.71320844,-1.1898981,0.10810165
0.012102822,0.042614024,-0.020835293,0.69100803,-1.1528594,0.10473671
0.011726091,0.041287556,-0.020186743,0.6694986,-1.1169738,0.10147651
0.011361087,0.04000238,-0.01955838,0.6486588,-1.0822052,0.0983178
0.011007446,0.038757205,-0.018949578,0.62846774,-1.0485189,0.09525742
