ax,ay,az,gx,gy,gz
1.3872854,0.35636687,-0.9263721,-41.725834,-33.125755,35.51123
1.0293227,-0.45856646,-1.4198146,-30.249252,-29.440401,25.018366
0.6223525,-1.0620574,-1.913672,-11.873957,-32.19494,16.459845
0.6411164,-1.3514059,-2.3154817,-2.8261223,-36.506016,14.462497
0.75158584,-1.731538,-2.6914554,4.487512,-40.936363,14.450955
0.82678676,-2.1259768,-3.0885558,12.643598,-45.646313,14.554394
0.8686363,-2.4795156,-3.5130901,21.040014,-50.403793,15.299517
0.87132096,-2.680893,-3.9838223,27.676794,-56.081017,17.173504
0.784605,-2.707662,-4.386999,30.727251,-64.49481,18.961908
0.7275978,-2.773505,-4.603576,33.09969,-73.375595,21.25207
0.69452256,-2.7817593,-4.6759043,35.88184,-81.51568,23.602228
0.6965452,-2.660821,-4.6152606,38.364357,-89.08486,26.254002
0.74580383,-2.3408914,-4.364559,38.9683,-95.168945,29.883856
0.79041195,-1.8515736,-3.9061215,38.704998,-99.80028,32.634842
0.87592375,-1.3272587,-3.332635,38.833805,-102.5095,34.15932
0.98122746,-0.74642676,-2.7354546,38.318295,-103.32811,34.3036
1.0983303,-0.13429955,-2.1355968,36.506775,-102.583305,34.02406
1.2314067,0.5649907,-1.562166,31.955786,-100.170204,32.282154
1.3336079,1.2687159,-1.0762402,26.065443,-96.613815,28.54246
1.3867941,1.8989494,-0.7094877,19.333744,-92.391975,22.346697
1.3781002,2.4376981,-0.47259817,12.309374,-88.10291,14.501206
1.3304039,2.9093823,-0.35616788,4.281076,-84.29101,5.6180086
1.277283,3.231735,-0.33440673,-4.3876038,-81.1327,-4.9146676
1.2150283,3.2001646,-0.38809827,-10.97126,-78.424774,-16.152102
1.1719558,2.9571764,-0.45471418,-15.544281,-76.30804,-26.668577
1.2048628,2.584644,-0.48320204,-19.508383,-74.628586,-34.299435
1.2984354,2.1523998,-0.46360612,-24.049488,-72.85674,-38.534576
1.3912162,1.6288041,-0.41266933,-27.444077,-70.308914,-40.287365
1.4328927,1.0431005,-0.356356,-28.456936,-67.28114,-41.4279
1.4255115,0.4873089,-0.3227464,-27.745377,-64.78935,-41.60111
1.4104568,0.009533648,-0.27628937,-26.16153,-62.74564,-39.964138
1.4013644,-0.34033287,-0.19941589,-24.592903,-60.736465,-36.81565
1.3877829,-0.6250666,-0.09262411,-22.648703,-58.04926,-31.822365
1.394372,-0.7784254,0.07207095,-19.92119,-54.15047,-26.907928
1.4017361,-0.85875887,0.2686518,-16.8033,-48.97559,-22.399944
1.3480369,-0.82586056,0.25836,-16.159582,-47.099377,-21.541822
1.297051,-0.79462457,0.24858822,-15.548388,-45.31797,-20.72706
1.2485782,-0.7649282,0.2392981,-14.967321,-43.624367,-19.95246
1.2024388,-0.73666143,0.23045519,-14.414226,-42.012295,-19.215145
1.1584707,-0.70972484,0.22202842,-13.887158,-40.47608,-18.51253
1.1165276,-0.6840288,0.21398973,-13.384365,-39.01062,-17.84227
1.0764766,-0.659492,0.2063137,-12.904254,-37.611267,-17.20225
1.0381972,-0.6360405,0.1989772,-12.44538,-36.273815,-16.59054
1.0015795,-0.6136071,0.19195919,-12.006426,-34.994423,-16.005384
0.9665233,-0.59213024,0.18524045,-11.58619,-33.769585,-15.44518
0.93293667,-0.57155377,0.17880335,-11.183571,-32.596096,-14.908462
0.9007355,-0.55182606,0.17263179,-10.797559,-31.471008,-14.393882
0.8698422,-0.5328996,0.16671088,-10.427226,-30.39162,-13.900203
0.84018546,-0.51473075,0.16102698,-10.071716,-29.355438,-13.426284
0.8116994,-0.49727905,0.15556744,-9.73024,-28.360155,-12.971072
0.784323,-0.48050717,0.15032057,-9.402065,-27.403645,-12.533593
0.75799966,-0.4643805,0.14527555,-9.086515,-26.483929,-12.112944
0.73267704,-0.44886684,0.1404223,-8.78296,-25.599176,-11.708284
0.70830625,-0.43393633,0.13575149,-8.490815,-24.747679,-11.318835
0.68484175,-0.41956106,0.13125435,-8.209535,-23.927847,-10.943869
0.662241,-0.40571496,0.12692277,-7.9386086,-23.138193,-10.5827055
0.6404643,-0.39237368,0.122749135,-7.677561,-22.377333,-10.234712
0.6194745,-0.3795145,0.11872629,-7.4259453,-21.643965,-9.899291
0.59923655,-0.36711594,0.11484756,-7.183343,-20.936867,-9.575886
0.57971776,-0.35515794,0.11110666,-6.9493613,-20.254894,-9.263972
0.56088716,-0.34362158,0.107497655,-6.7236304,-19.59697,-8.9630575
0.5427158,-0.3324891,0.104015,-6.505801,-18.962076,-8.672676
0.5251762,-0.32174367,0.100653425,-6.2955456,-18.349255,-8.392391
0.5082425,-0.3113694,0.09740797,-6.0925527,-17.757605,-8.121788
0.49189016,-0.3013513,0.09427393,-5.896529,-17.186266,-7.860475
0.476096,-0.29167518,0.09124688,-5.707197,-16.63443,-7.6080823
0.46083808,-0.28232756,0.0883226,-5.5242925,-16.10133,-7.3642583
0.44609553,-0.2732957,0.085497096,-5.347566,-15.586236,-7.12867
0.4318485,-0.2645674,0.08276656,-5.17678,-15.088456,-6.9010005
0.41807818,-0.25613117,0.080127396,-5.0117087,-14.607332,-6.680949
0.40476668,-0.24797602,0.07757615,-4.852137,-14.142238,-6.4682293
0.39189687,-0.24009147,0.07510957,-4.6978607,-13.692577,-6.262568
0.3794525,-0.23246756,0.07272453,-4.5486836,-13.25778,-6.063705
0.36741802,-0.22509475,0.07041804,-4.4044204,-12.837304,-5.8713923
0.35577857,-0.21796398,0.06818727,-4.2648926,-12.430631,-5.6853924
0.34452,-0.21106653,0.06602949,-4.1299305,-12.037265,-5.505479
0.3336287,-0.20439412,0.063942105,-3.9993715,-11.656733,-5.3314347
0.32309178,-0.19793876,0.06192263,-3.87306,-11.288579,-5.1630526
0.3128967,-0.19169286,0.059968676,-3.7508466,-10.932371,-5.000134
0.3030316,-0.1856491,0.058077965,-3.6325886,-10.587691,-4.8424883
0.29348502,-0.17980048,0.0562483,-3.5181491,-10.254142,-4.6899323
0.284246,-0.1741403,0.054477584,-3.4073966,-9.931337,-4.5422916
0.27530402,-0.1686621,0.052763797,-3.3002048,-9.618912,-4.399398
0.26664898,-0.16335967,0.051105004,-3.1964524,-9.316511,-4.261089
0.25827116,-0.15822709,0.049499337,-3.096023,-9.023796,-4.1272097
0.25016117,-0.1532586,0.047945008,-2.998805,-8.74044,-3.9976115
0.24231009,-0.14844872,0.0464403,-2.9046903,-8.466129,-3.87215
0.23470925,-0.14379214,0.044983547,-2.8135753,-8.200562,-3.7506874
0.22735031,-0.13928376,0.04357316,-2.72536,-7.943446,-3.6330905
0.22022527,-0.13491869,0.0422076,-2.6399486,-7.694503,-3.5192313
0.21332641,-0.13069217,0.04088539,-2.5572486,-7.4534616,-3.4089866
0.20664628,-0.12659965,0.0396051,-2.4771707,-7.220063,-3.3022373
0.20017771,-0.12263676,0.038365357,-2.3996286,-6.994056,-3.1988685
0.1939138,-0.11879924,0.037164833,-2.3245401,-6.7752,-3.0987701
0.18784785,-0.115083,0.036002256,-2.2518246,-6.56326,-3.0018356
0.18197344,-0.11148411,0.034876388,-2.1814053,-6.358013,-2.9079618
0.17628437,-0.10799876,0.03378604,-2.1132076,-6.159241,-2.8170495
0.17077464,-0.10462327,0.032730065,-2.0471594,-5.9667354,-2.7290032
0.16543844,-0.101354115,0.03170735,-1.983192,-5.780293,-2.6437302
0.16027021,-0.09818786,0.030716825,-1.921238,-5.599719,-2.561141
0.15526456,-0.09512119,0.029757457,-1.8612325,-5.4248247,-2.48115
0.15041624,-0.09215092,0.028828247,-1.8031135,-5.2554283,-2.4036732
0.14572024,-0.08927397,0.027928228,-1.7468202,-5.091354,-2.3286302
0.14117168,-0.08648734,0.027056467,-1.6922944,-4.9324307,-2.2559435
0.13676587,-0.08378816,0.026212063,-1.6394796,-4.7784944,-2.185538
0.13249823,-0.08117364,0.025394144,-1.5883214,-4.629387,-2.1173408
0.1283644,-0.078641094,0.024601867,-1.5387671,-4.484954,-2.0512815
0.12436011,-0.0761879,0.02383442,-1.4907657,-4.345047,-1.9872923
0.120481245,-0.07381156,0.02309101,-1.444268,-4.2095227,-1.9253075
0.11672384,-0.07150963,0.02237088,-1.3992261,-4.078242,-1.8652637
0.11308405,-0.069279745,0.02167329,-1.355594,-3.95107,-1.8070992
0.10955814,-0.067119636,0.020997526,-1.3133273,-3.8278775,-1.7507547
0.10614253,-0.065027095,0.020342901,-1.2723826,-3.7085385,-1.6961727
0.10283372,-0.06299999,0.019708749,-1.2327183,-3.5929315,-1.6432976
0.09962835,-0.061036255,0.019094419,-1.1942941,-3.4809384,-1.5920753
0.096523166,-0.059133895,0.018499289,-1.1570706,-3.3724456,-1.542454
0.093515,-0.05729098,0.017922755,-1.1210103,-3.2673426,-1.4943831
0.09060081,-0.05550563,0.017364232,-1.0860765,-3.165523,-1.4478139
0.08777763,-0.053776037,0.016823152,-1.0522336,-3.0668833,-1.4026991
0.08504261,-0.052100454,0.016298966,-1.0194476,-2.9713237,-1.358993
0.08239297,-0.05047718,0.015791146,-0.987685,-2.8787475,-1.3166515
0.079826035,-0.04890458,0.015299177,-0.95691395,-2.7890606,-1.2756315
0.07733921,-0.04738105,0.014822561,-0.92710316,-2.702173,-1.2358917
0.07492998,-0.045905065,0.014360817,-0.89822257,-2.6179965,-1.1973919
0.072595924,-0.044475123,0.013913479,-0.870243,-2.536446,-1.1600932
0.07033467,-0.043089792,0.013480095,-0.84313625,-2.4574397,-1.1239581
0.06814394,-0.041747667,0.013060228,-0.816875,-2.3808973,-1.08895
0.06602154,-0.0404474,0.012653455,-0.7914327,-2.3067422,-1.0550337
0.06396531,-0.039187673,0.012259367,-0.7667837,-2.2348993,-1.022175
0.061973203,-0.037967227,0.011877566,-0.7429033,-2.1652963,-0.99034065
0.060043197,-0.03678483,0.011507668,-0.71976733,-2.0978634,-0.9594989
0.058173355,-0.03563929,0.0111493,-0.6973526,-2.0325325,-0.92961854
0.056361794,-0.03452946,0.010802103,-0.6756366,-1.969238,-0.9006696
0.0546067,-0.033454217,0.010465727,-0.65459734,-1.9079163,-0.87262285
0.052906297,-0.032412484,0.010139834,-0.6342138,-1.8485056,-0.8454502
0.051258884,-0.031403214,0.009824097,-0.6144655,-1.7909462,-0.81912434
0.04966281,-0.030425394,0.009518199,-0.5953325,-1.7351805,-0.7936188
0.04811646,-0.029478041,0.009221831,-0.5767957,-1.6811523,-0.76890796
0.046618294,-0.028560204,0.008934698,-0.5588364,-1.6288075,-0.744967
0.045166798,-0.027670963,0.008656509,-0.5414366,-1.5780934,-0.7217719
0.043760523,-0.026809422,0.008386988,-0.5245789,-1.5289593,-0.69929945
0.042398058,-0.02597472,0.008125862,-0.50824636,-1.4813557,-0.677527
0.041078027,-0.02516602,0.00787287,-0.49242252,-1.4352349,-0.65643275
0.039799117,-0.02438251,0.0076277587,-0.47709158,-1.3905507,-0.63599557
0.03856004,-0.023623401,0.0073902817,-0.46223816,-1.3472583,-0.61619496
0.037359554,-0.022887938,0.0071602007,-0.44784737,-1.3053143,-0.597011
0.03619646,-0.02217538,0.006937286,-0.43390477,-1.2646766,-0.57842463
0.035069585,-0.021485012,0.006721313,-0.4203964,-1.2253045,-0.560417
0.033977807,-0.020816144,0.006512067,-0.40730867,-1.1871586,-0.54297024
0.032920025,-0.020168107,0.006309336,-0.39462855,-1.1502006,-0.5260667
0.031895187,-0.019540248,0.006112919,-0.3823433,-1.1143935,-0.5096896
0.030902259,-0.018931942,0.0059226183,-0.37044057,-1.0797013,-0.49382254
0.029940251,-0.018342579,0.005738243,-0.3589085,-1.0460895,-0.4784495
0.029008199,-0.017771566,0.0055596093,-0.34773552,-1.0135243,-0.46355516
0.028105168,-0.017218333,0.0053865374,-0.33691046,-0.98197305,-0.4491246
0.027230253,-0.016682327,0.005218854,-0.32642245,-0.9514042,-0.43514335
0.026382582,-0.01616301,0.0050563924,-0.31626096,-0.9217872,-0.42159742
0.025561303,-0.015659861,0.004898989,-0.3064159,-0.89309233,-0.40847325
0.024765594,-0.015172379,0.0047464864,-0.29687735,-0.8652909,-0.39575773
0.023994658,-0.014700074,0.0045987316,-0.28763577,-0.838355,-0.38343808
0.023247726,-0.014242474,0.004455577,-0.27868193,-0.81225777,-0.37150198
0.02252405,-0.013799121,0.00431688,-0.27000684,-0.78697306,-0.35993752
0.021822901,-0.01336957,0.0041825003,-0.26160187,-0.7624755,-0.3487331
0.021143584,-0.012953392,0.0040523047,-0.25345853,-0.7387406,-0.33787748
0.020485414,-0.012550172,0.003926162,-0.24556872,-0.7157447,-0.32735983
0.019847734,-0.012159504,0.0038039468,-0.23792455,-0.69346464,-0.31716964
0.019229908,-0.011780999,0.003685536,-0.23051834,-0.6718782,-0.30729666
0.018631313,-0.011414277,0.0035708118,-0.22334272,-0.65096384,-0.29773104
0.018051354,-0.011058971,0.003459659,-0.21639046,-0.6307005,-0.28846323
0.01748945,-0.010714727,0.0033519664,-0.20965464,-0.611068,-0.2794839
0.01694504,-0.010381199,0.0032476266,-0.20312852,-0.59204674,-0.27078414
0.016417576,-0.010058054,0.0031465346,-0.19680555,-0.5736175,-0.2623552
0.015906531,-0.009744968,0.00304859,-0.19067942,-0.55576205,-0.25418866
0.0154113965,-0.009441629,0.002953694,-0.18474399,-0.5384624,-0.24627633
0.014931675,-0.009147733,0.0028617522,-0.17899333,-0.52170134,-0.23861031
0.014466887,-0.008862985,0.0027726726,-0.1734217,-0.505462,-0.23118293
0.014016568,-0.008587102,0.002686366,-0.1680235,-0.48972815,-0.22398676
0.013580266,-0.008319807,0.002602746,-0.16279334,-0.47448415,-0.21701461
0.013157547,-0.0080608325,0.002521729,-0.15772599,-0.45971462,-0.21025948
0.012747986,-0.007809919,0.0024432342,-0.15281639,-0.4454049,-0.20371464
