ax,ay,az,gx,gy,gz
1.4091036,7.860981,-1.8400166,-76.683426,33.958492,29.29754
1.7020814,7.4031053,-1.4054708,-68.442245,40.083717,8.9692955
1.7088416,7.2266226,-1.0905551,-41.432285,53.20564,-11.503684
1.7098596,7.486456,-0.9606711,-18.110615,64.44607,-28.306133
1.8162363,8.027976,-0.8693825,-3.638555,75.8759,-43.96446
1.8190105,8.497806,-1.0985227,-1.3899518,82.47019,-58.5265
1.6994035,8.700078,-1.4888071,-3.5435703,85.09934,-73.48482
1.4912505,8.585084,-1.9764142,-9.142282,83.44818,-88.12703
1.2246621,8.157859,-2.5455766,-17.87893,79.137436,-98.33839
0.97175187,7.6724596,-3.0769768,-26.932274,73.83636,-106.20265
0.682062,7.1081014,-3.6375632,-32.686493,68.156136,-114.713684
0.31780106,6.4058585,-4.259196,-33.156933,60.622635,-124.749435
-0.08517954,5.5520973,-4.881352,-33.28785,47.948677,-132.2411
-0.37224522,4.458126,-5.3759813,-33.744305,33.640686,-136.22462
-0.5052759,3.2099967,-5.6887374,-31.842022,19.987661,-137.34262
-0.44551688,1.8585091,-5.7915783,-26.032871,8.454814,-134.52026
-0.27355936,0.6167279,-5.78086,-18.199562,-1.4003235,-126.08754
-0.087712094,-0.40738252,-5.7175355,-7.9759116,-10.397903,-112.36256
0.073275216,-1.0563134,-5.5655613,3.753564,-18.872866,-97.041
0.25473264,-1.2854102,-5.289778,16.179815,-26.506,-81.80086
0.48301277,-1.011394,-4.8641024,26.559847,-32.838226,-69.11089
0.71498024,-0.39891532,-4.3127184,33.42305,-37.68744,-60.77966
0.9206523,0.30409947,-3.674168,36.067383,-41.074207,-54.988136
1.1090001,1.0542501,-3.0071545,34.580162,-43.091248,-50.041176
1.2670699,1.7770194,-2.3953373,29.89056,-43.649406,-46.29056
1.3892262,2.429305,-1.8724865,22.871923,-42.67719,-44.337322
1.4759834,2.979658,-1.4690665,14.534523,-39.892612,-44.278458
1.4929248,3.3722136,-1.2446101,6.350948,-36.090782,-45.60395
1.4108913,3.6158597,-1.2188317,-0.8983403,-32.709846,-47.940166
1.295594,3.766788,-1.2825248,-7.0478177,-30.141851,-51.2491
1.1805187,3.8301616,-1.4123389,-12.68862,-28.956728,-55.04411
1.0927719,3.7777069,-1.5750815,-18.43316,-29.045076,-58.618195
1.03255,3.5916624,-1.7322794,-23.38199,-30.0664,-61.597282
0.99505484,3.2979562,-1.854067,-27.210588,-31.310772,-64.03309
0.9588195,2.9918592,-1.942997,-29.85629,-32.311058,-66.39127
0.89952385,2.6444392,-2.022182,-31.053055,-33.060726,-68.5804
0.81372297,2.2698677,-2.1201727,-31.425264,-33.977966,-70.00099
0.70300156,1.8654757,-2.2646446,-31.336609,-36.068043,-69.78681
0.5776551,1.4517262,-2.4566314,-30.647736,-39.71979,-68.41688
0.4872406,1.0691854,-2.6227996,-29.038303,-43.916084,-67.553314
0.43371993,0.6853626,-2.7449286,-26.057772,-48.076,-67.45652
0.40700606,0.29277685,-2.8174264,-21.812693,-51.969444,-67.15393
0.41109523,-0.061711997,-2.839245,-16.900242,-55.716732,-64.52719
0.4470677,-0.30745125,-2.780617,-11.852295,-59.4025,-60.26433
0.50779194,-0.43620387,-2.6744025,-6.840151,-62.8884,-55.206932
0.59272796,-0.4868969,-2.509118,-2.116626,-66.103035,-49.680725
0.7182719,-0.47934145,-2.2710574,3.0103621,-68.30867,-44.466755
0.8675954,-0.42729992,-1.9911165,8.730886,-69.18753,-39.753418
0.83801526,-0.4127314,-1.9232305,8.433212,-66.82862,-38.39805
0.80960274,-0.39873794,-1.8580244,8.147288,-64.56283,-37.09618
0.782297,-0.38528958,-1.7953583,7.8725023,-62.3853,-35.845028
0.75604177,-0.3723586,-1.7351028,7.6082873,-60.29154,-34.642006
0.73078454,-0.35991913,-1.677138,7.354116,-58.27737,-33.484715
0.7064767,-0.34794727,-1.6213518,7.109498,-56.33891,-32.370922
0.68307275,-0.3364206,-1.5676403,6.873977,-54.47253,-31.29855
0.6605304,-0.32531825,-1.515906,6.647126,-52.674862,-30.265654
0.63881,-0.3146207,-1.4660579,6.428547,-50.942738,-29.270418
0.6178743,-0.30430967,-1.4180111,6.217865,-49.2732,-28.311144
0.5976887,-0.29436803,-1.3716853,6.0147305,-47.663467,-27.386232
0.5782203,-0.28477964,-1.3270056,5.818814,-46.110935,-26.494184
0.55943835,-0.27552935,-1.2839015,5.629805,-44.613148,-25.633595
0.54131395,-0.26660287,-1.2423062,5.4474134,-43.16779,-24.803127
0.5238197,-0.25798675,-1.2021571,5.271363,-41.772686,-24.001535
0.5069297,-0.24966826,-1.1633949,5.1013937,-40.425774,-23.227633
0.49061957,-0.24163535,-1.1259636,4.93726,-39.125103,-22.4803
0.47486624,-0.23387666,-1.0898099,4.778729,-37.86883,-21.758478
0.45964772,-0.22638138,-1.0548836,4.6255803,-36.65521,-21.061163
0.44494322,-0.21913926,-1.0211371,4.4776044,-35.482582,-20.3874
0.430733,-0.21214058,-0.98852485,4.3346024,-34.34937,-19.736284
0.41699827,-0.20537607,-0.9570039,4.1963854,-33.254074,-19.106956
0.40372115,-0.19883695,-0.9265331,4.0627737,-32.19527,-18.498594
0.39088458,-0.1925148,-0.8970734,3.9335952,-31.171604,-17.910421
0.37847236,-0.18640165,-0.86858755,3.808687,-30.181774,-17.34169
0.36646894,-0.18048985,-0.84103996,3.687893,-29.224546,-16.79169
0.3548596,-0.17477211,-0.8143966,3.5710642,-28.298742,-16.259747
0.34363008,-0.16924147,-0.7886252,3.458058,-27.40323,-15.745209
0.33276695,-0.16389126,-0.76369447,3.348739,-26.536936,-15.2474575
0.32225722,-0.1587151,-0.7395748,3.2429762,-25.698824,-14.765899
0.31208846,-0.15370688,-0.71623766,3.140645,-24.887903,-14.299965
0.30224884,-0.14886077,-0.6936559,3.0416257,-24.10323,-13.849111
0.2927269,-0.14417112,-0.67180324,2.9458036,-23.343891,-13.412814
0.28351176,-0.13963255,-0.6506547,2.8530686,-22.609018,-12.990574
0.2745929,-0.13523991,-0.63018596,2.7633152,-21.89777,-12.581909
0.26596022,-0.13098823,-0.6103741,2.6764417,-21.209345,-12.1863575
0.257604,-0.12687272,-0.5911968,2.5923507,-20.54297,-11.803474
0.249515,-0.12288879,-0.5726327,2.5109484,-19.897902,-11.432834
0.2416842,-0.11903203,-0.5546611,2.4321444,-19.273422,-11.074025
0.23410298,-0.115298204,-0.5372623,2.3558524,-18.66885,-10.726652
0.22676305,-0.11168321,-0.52041733,2.2819884,-18.083517,-10.390335
0.21965642,-0.10818312,-0.5041077,2.210472,-17.516788,-10.064707
0.21277538,-0.10479414,-0.48831585,2.1412258,-16.968052,-9.749416
0.2061125,-0.101512596,-0.47302467,2.0741754,-16.436712,-9.444122
0.19966064,-0.09833499,-0.45821777,2.0092483,-15.9222,-9.148497
0.19341291,-0.09525791,-0.4438793,1.9463753,-15.423965,-8.862224
0.18736263,-0.092278086,-0.42999402,1.8854895,-14.941479,-8.584998
0.1815034,-0.08939235,-0.4165472,1.8265262,-14.474227,-8.316527
0.17582902,-0.08659766,-0.4035246,1.769423,-14.021716,-8.056526
0.17033352,-0.083891064,-0.3909125,1.71412,-13.583469,-7.8047204
0.16501111,-0.081269726,-0.37869766,1.660559,-13.159027,-7.560847
0.15985623,-0.078730896,-0.3668673,1.6086838,-12.747945,-7.324649
0.1548635,-0.07627192,-0.3554091,1.5584403,-12.3497925,-7.095881
0.1500277,-0.07389024,-0.34431103,1.5097762,-11.964156,-6.874304
0.14534384,-0.07158338,-0.3335616,1.462641,-11.590634,-6.6596875
0.14080703,-0.06934895,-0.3231497,1.4169856,-11.228841,-6.45181
0.13641259,-0.06718465,-0.31306455,1.372763,-10.878401,-6.250456
0.13215598,-0.06508823,-0.3032957,1.3299274,-10.538952,-6.055417
0.12803283,-0.06305753,-0.29383314,1.2884349,-10.210146,-5.866493
0.124038875,-0.061090466,-0.2846671,1.2482425,-9.891643,-5.68349
0.120170034,-0.05918502,-0.2757882,1.2093091,-9.5831175,-5.5062184
0.11642234,-0.057339236,-0.26718727,1.1715949,-9.284252,-5.334498
0.11279195,-0.05555123,-0.25885558,1.135061,-8.994741,-5.1681523
0.10927515,-0.05381917,-0.25078458,1.0996704,-8.71429,-5.007012
0.105868354,-0.05214129,-0.24296606,1.0653868,-8.442611,-4.850912
0.1025681,-0.050515875,-0.23539202,1.0321752,-8.179427,-4.699693
0.09937101,-0.048941277,-0.22805476,1.0000019,-7.9244714,-4.553202
0.09627384,-0.04741589,-0.22094682,0.9688341,-7.6774836,-4.411289
0.093273446,-0.045938164,-0.21406096,0.93864024,-7.4382133,-4.2738104
0.09036678,-0.044506602,-0.20739022,0.9093895,-7.2064176,-4.1406264
0.0875509,-0.043119747,-0.20092781,0.8810524,-6.981861,-4.011602
0.08482294,-0.0417762,-0.19466719,0.8536001,-6.7643166,-3.8866065
0.08218014,-0.040474594,-0.18860203,0.8270048,-6.5535636,-3.765513
0.07961984,-0.039213616,-0.18272617,0.80123967,-6.3493886,-3.6481993
0.077139445,-0.037991993,-0.1770337,0.7762786,-6.151586,-3.5345469
0.07473644,-0.03680849,-0.17151885,0.7520964,-5.959955,-3.4244406
0.07240841,-0.03566191,-0.16617605,0.7286687,-5.774303,-3.3177695
0.07015299,-0.034551095,-0.16099991,0.7059717,-5.5944424,-3.214426
0.06796793,-0.033474926,-0.15598522,0.68398273,-5.4201913,-3.1143057
0.065851,-0.032432318,-0.15112692,0.66267943,-5.2513747,-3.017308
0.06380009,-0.031422224,-0.14642012,0.6420405,-5.087822,-2.9233346
0.061813124,-0.03044362,-0.14186007,0.62204504,-4.9293685,-2.8322914
0.059888102,-0.029495526,-0.13744217,0.60267293,-4.7758555,-2.7440865
0.05802309,-0.028576989,-0.13316199,0.5839047,-4.6271276,-2.6586313
0.05621621,-0.02768708,-0.12901524,0.5657215,-4.4830356,-2.5758395
0.054465648,-0.026824908,-0.12499773,0.548105,-4.3434343,-2.4956284
0.05276964,-0.025989607,-0.12110542,0.53103757,-4.208184,-2.4179168
0.05112648,-0.025180336,-0.117334396,0.5145019,-4.0771484,-2.342627
0.049534526,-0.02439628,-0.11368089,0.4984816,-3.9501958,-2.2696834
0.047992174,-0.023636656,-0.11014122,0.48296043,-3.8271987,-2.1990123
0.046497878,-0.022900697,-0.10671183,0.46792284,-3.708034,-2.1305432
0.045050133,-0.022187669,-0.10338928,0.45335373,-3.5925817,-2.0642073
0.04364749,-0.021496851,-0.10017024,0.4392385,-3.4807262,-1.9999379
0.04228854,-0.020827554,-0.09705147,0.42556295,-3.372355,-1.9376705
0.040971924,-0.020179106,-0.09402986,0.4123134,-3.2673597,-1.8773428
0.039696313,-0.019550856,-0.09110236,0.39947656,-3.1656346,-1.8188941
0.038460437,-0.018942174,-0.088266045,0.38703954,-3.067078,-1.762266
0.037263054,-0.01835245,-0.08551807,0.3749899,-2.971591,-1.7074016
0.03610296,-0.017781092,-0.08285568,0.36331552,-2.8790781,-1.654246
0.034979,-0.017227529,-0.080276206,0.35200474,-2.789446,-1.6027458
0.03389004,-0.016691204,-0.07777706,0.34104618,-2.7026057,-1.5528494
0.03283499,-0.016171582,-0.075355746,0.33042893,-2.6184695,-1.5045068
0.0318128,-0.015668143,-0.073009826,0.32014227,-2.5369534,-1.4576697
0.030822437,-0.015180378,-0.07073697,0.31017593,-2.4579756,-1.412291
0.029862914,-0.014707803,-0.06853487,0.30051994,-2.3814573,-1.3683255
0.028933268,-0.014249942,-0.066401355,0.29116464,-2.3073215,-1.325729
0.028032571,-0.013806338,-0.064334266,0.28210062,-2.2354941,-1.2844588
0.027159916,-0.013376547,-0.062331542,0.27331883,-2.165903,-1.2444736
0.026314434,-0.012960138,-0.060391176,0.26481047,-2.098479,-1.2057333
0.025495276,-0.012556694,-0.05851122,0.25656703,-2.0331542,-1.1681993
0.024701623,-0.012165812,-0.0566898,0.24858025,-1.9698633,-1.1318339
0.023932679,-0.011787099,-0.054925088,0.24084212,-1.9085429,-1.0966008
0.023187676,-0.011420177,-0.05321532,0.23334493,-1.8491317,-1.0624646
0.022465868,-0.011064678,-0.05155878,0.22608113,-1.7915701,-1.0293912
0.021766532,-0.010720248,-0.04995382,0.2190435,-1.7358006,-0.9973475
0.021088969,-0.010386541,-0.04839882,0.21222496,-1.6817675,-0.9663013
0.020432498,-0.010063223,-0.046892233,0.2056187,-1.6294163,-0.9362217
0.019796466,-0.00974997,-0.045432553,0.19921811,-1.5786952,-0.90707856
0.019180235,-0.009446469,-0.04401831,0.19301677,-1.5295529,-0.8788427
0.018583188,-0.009152417,-0.042648096,0.1870085,-1.4819406,-0.8514859
0.018004727,-0.008867519,-0.04132054,0.18118726,-1.4358106,-0.8249807
0.017444275,-0.008591491,-0.040034313,0.17554726,-1.3911165,-0.7993006
0.01690127,-0.008324055,-0.038788125,0.17008282,-1.3478138,-0.77442
0.016375167,-0.008064944,-0.03758073,0.1647885,-1.3058592,-0.75031394
0.015865445,-0.0078139,-0.036410924,0.15965898,-1.2652106,-0.7269583
0.015371589,-0.0075706705,-0.03527753,0.15468916,-1.2258275,-0.70432967
0.014893106,-0.007335013,-0.034179423,0.14987403,-1.1876702,-0.68240553
0.014429519,-0.007106691,-0.0331155,0.1452088,-1.1507009,-0.6611638
0.013980363,-0.006885477,-0.032084692,0.1406888,-1.1148823,-0.6405834
0.013545188,-0.006671149,-0.031085975,0.13630952,-1.0801787,-0.6206436
0.013123561,-0.0064634928,-0.030118346,0.13206653,-1.0465555,-0.6013245
0.0127150575,-0.006262301,-0.02918084,0.12795565,-1.013979,-0.58260685
