ax,ay,az,gx,gy,gz
0.6609151,-3.4145765,1.1700106,15.314685,6.103692,-58.982353
0.6585732,-3.173686,1.1528527,17.207363,3.6319282,-66.50369
1.3334816,-2.9553273,1.3261173,23.205204,7.685098,-67.8333
1.8024151,-3.0507221,1.5297685,25.862051,15.560781,-65.75064
1.8800725,-3.3637073,1.5773654,29.8153,21.763393,-60.94252
1.9252393,-3.636152,1.5531434,33.890938,30.646166,-49.362278
1.899086,-3.8746276,1.4660593,38.749523,38.119625,-36.36706
1.835991,-3.9715626,1.2896172,45.170345,44.911022,-24.357061
1.6133901,-3.9716117,1.0403011,53.29438,48.672546,-15.16168
1.3802705,-3.8921924,0.79292864,60.437405,50.180683,-8.674087
1.1970526,-3.8067343,0.55293804,65.19562,49.980545,-3.521179
1.0778121,-3.8048618,0.3251544,68.56536,49.802418,1.9774762
1.0313306,-3.7845106,0.10187855,72.75194,50.24298,7.9547257
0.978004,-3.5664604,-0.1762578,76.8164,50.30169,13.937389
0.90342045,-3.0937607,-0.50376964,79.411514,49.30866,18.367252
0.8074596,-2.5509605,-0.83212394,79.16623,46.78988,21.107342
0.69495445,-2.3546867,-1.095344,77.31103,43.186207,23.335537
0.5810912,-2.3389938,-1.2895687,77.37151,39.207497,25.307806
0.54205465,-2.2267792,-1.4623303,78.21292,35.629192,27.156054
0.5414379,-1.9770921,-1.6346358,78.58937,32.49751,29.509115
0.5182547,-1.6165261,-1.8103684,76.750755,29.203209,32.09854
0.47470203,-1.2942344,-1.9607912,73.40129,25.790464,33.698364
0.38449103,-1.1299471,-2.0918705,70.262665,22.201296,34.39097
0.278994,-1.0293993,-2.1925735,68.79551,18.197886,34.55025
0.23720242,-0.8058271,-2.2705388,67.5197,14.151473,34.691772
0.24480785,-0.472077,-2.3300476,64.63745,10.726647,35.24277
0.25251615,-0.10348145,-2.383943,60.28146,7.811472,35.469715
0.22983249,0.19689637,-2.4365277,54.913742,5.0560107,34.77375
0.16778462,0.36915642,-2.4711285,49.507854,1.823505,33.30253
0.124365576,0.4818351,-2.4650033,44.57714,-1.5558078,31.580193
0.12517874,0.6366923,-2.4416037,39.816452,-4.790114,30.0726
0.15902479,0.8259498,-2.4082549,35.111877,-7.7417774,28.48391
0.20780899,1.0125681,-2.3597395,30.326012,-10.350933,26.457268
0.25541687,1.1934508,-2.2965453,25.00399,-12.56455,24.065496
0.2731872,1.3072981,-2.230582,19.35398,-14.847493,21.65894
0.2881972,1.3475878,-2.1412995,14.006294,-17.311363,19.042812
0.36580122,1.3644722,-2.0264595,8.836459,-19.519154,16.237988
0.49556252,1.3628476,-1.8827863,3.7366886,-21.15049,13.372977
0.6249161,1.3153309,-1.7132883,-1.031859,-22.12139,10.503794
0.7180887,1.1965532,-1.5307782,-5.36176,-22.72076,7.838817
0.7723215,1.0058019,-1.3442184,-8.53762,-22.89919,5.891032
0.80742776,0.8008059,-1.168299,-10.828,-22.7981,4.65947
0.8433636,0.6064068,-0.9945426,-12.346408,-22.31729,3.8035975
0.86828697,0.4373413,-0.82275647,-13.379112,-21.49784,2.9934852
0.8799322,0.2815052,-0.6536055,-14.207545,-20.45699,2.0534132
0.8845911,0.101934895,-0.49237967,-14.702191,-19.11408,1.3436321
0.87387073,-0.08986805,-0.35482046,-14.380116,-17.46632,1.4152309
0.8635858,-0.23762766,-0.23941438,-13.618975,-15.711734,1.9947193
0.85569006,-0.3368891,-0.14086749,-12.686426,-13.94204,2.819438
0.85719234,-0.39927718,-0.048956815,-11.709995,-12.095293,3.3591492
0.85506105,-0.4647325,0.032594312,-10.713961,-10.011679,3.5978658
0.83052534,-0.572307,0.09157597,-9.428479,-7.805439,4.0957594
0.7885484,-0.66573656,0.12386146,-8.079716,-5.636163,5.0987506
0.7360416,-0.74148446,0.13567433,-6.525858,-3.7088177,6.453815
0.6943657,-0.8067962,0.14704789,-4.754792,-1.8895526,7.825239
0.6630683,-0.8687465,0.1586298,-2.6621811,-0.038552288,8.928633
0.63797605,-0.91916496,0.15607707,-0.5555715,1.9717543,9.975716
0.5882276,-0.97451293,0.12146641,1.6809655,3.9334474,11.18701
0.51631457,-1.0516288,0.06401817,3.957019,5.4799094,12.865373
0.46926922,-1.1294574,0.008774101,6.577664,6.790479,14.794257
0.44532102,-1.1474702,-0.054136746,9.5143,7.9517703,16.351774
0.42499736,-1.0828543,-0.13548253,11.723285,8.997247,17.45534
0.3769403,-1.061626,-0.23655826,13.559563,9.935371,18.585625
0.2938175,-1.1139376,-0.35561693,15.491824,10.29791,20.03113
0.22924957,-1.1888092,-0.46933317,18.080412,10.164936,21.688166
0.20666887,-1.2142457,-0.5797777,21.043169,9.685678,23.580639
0.21706304,-1.1256571,-0.69784975,23.318508,9.16792,25.60839
0.20906332,-1.0158757,-0.8214029,24.86483,8.421642,27.57546
0.18175504,-0.9478216,-0.9427832,26.382584,7.3125405,29.141132
0.14911069,-0.9075223,-1.0630037,28.340006,5.744262,30.446161
0.15152699,-0.8269829,-1.1696349,30.339066,3.9172878,31.754358
0.18308327,-0.6080706,-1.279405,31.577057,2.0655658,32.86001
0.1900348,-0.36371973,-1.3914845,31.729475,-0.029245794,33.53761
0.16640572,-0.17721035,-1.493339,31.292263,-2.5854359,33.784462
0.1458332,-0.046242654,-1.5718606,30.766922,-5.3497005,33.70031
0.14713591,0.07575606,-1.6320535,30.113934,-8.278444,33.613117
0.17953482,0.22538756,-1.6660672,28.909168,-11.019046,33.54227
0.2107534,0.39298564,-1.6914262,27.18458,-13.564466,33.277092
0.23278639,0.54848784,-1.7138481,25.132683,-15.9521675,32.641132
0.22090694,0.70800585,-1.7504889,22.821981,-18.249128,31.75635
0.17340247,0.8494252,-1.7877423,19.712925,-21.021849,30.457888
0.15333682,0.9344717,-1.7941408,16.496548,-23.951195,28.72666
0.18163894,0.9901386,-1.7658552,12.984182,-26.66345,26.726599
0.24301752,1.0107577,-1.7094283,9.762962,-28.680412,24.773455
0.30905962,1.0031933,-1.6349833,6.581637,-30.256908,22.963394
0.3884708,0.9676413,-1.5342181,3.8010297,-31.319206,20.981226
0.47344416,0.92782617,-1.4115936,1.155161,-32.190517,18.878422
0.57343227,0.8774228,-1.2679397,-1.471497,-32.61093,16.762243
0.67052025,0.80639404,-1.1139964,-4.020294,-32.512764,14.736366
0.74653345,0.71797305,-0.9562649,-6.788375,-31.646862,12.966176
0.8031862,0.61663306,-0.79558355,-9.8299675,-30.133488,11.23498
0.83227116,0.49423763,-0.6517082,-12.845832,-28.089006,9.516619
0.82822466,0.3689572,-0.5355847,-15.368795,-25.956423,8.060934
0.8066576,0.25333533,-0.43840536,-17.401299,-24.137667,6.9664116
0.7928105,0.15678966,-0.35149226,-18.903715,-22.380243,6.063047
0.76801765,0.15188651,-0.34050032,-18.312555,-21.680365,5.8734426
0.74400693,0.14713806,-0.3298552,-17.740046,-21.002567,5.68982
0.72075313,0.14253928,-0.31954563,-17.185585,-20.346136,5.511986
0.6982318,0.13808537,-0.3095608,-16.648586,-19.71038,5.3397527
0.6764193,0.13377163,-0.29989025,-16.128492,-19.094637,5.172941
0.6552929,0.1295936,-0.2905239,-15.624757,-18.49826,5.0113764
0.63483065,0.12554687,-0.28145194,-15.136855,-17.920631,4.8548903
0.6150112,0.1216273,-0.272665,-14.664282,-17.361147,4.7033205
0.59581405,0.11783078,-0.26415396,-14.206547,-16.819231,4.5565095
0.57721937,0.114153415,-0.25590998,-13.763175,-16.294321,4.4143057
0.55920786,0.11059138,-0.2479246,-13.333711,-15.785874,4.276562
0.54176104,0.10714102,-0.24018955,-12.917709,-15.293368,4.143137
0.5248609,0.103798784,-0.2326969,-12.514746,-14.816296,4.013893
0.50849026,0.10056125,-0.22543895,-12.124404,-14.354167,3.8886976
0.49263215,0.09742508,-0.21840827,-11.7462845,-13.906509,3.7674222
0.47727042,0.09438708,-0.21159765,-11.38,-13.472863,3.6499426
0.46238935,0.091444135,-0.20500015,-11.025177,-13.052786,3.5361392
0.4479738,0.088593245,-0.19860901,-10.681454,-12.645848,3.4258957
0.434009,0.08583151,-0.19241773,-10.348478,-12.2516365,3.3190994
0.42048076,0.08315611,-0.18641998,-10.025912,-11.869748,3.2156417
0.40737534,0.08056432,-0.1806097,-9.713428,-11.499795,3.1154175
0.3946794,0.07805352,-0.17498097,-9.4107065,-11.141402,3.018325
0.38238007,0.07562115,-0.16952807,-9.117442,-10.794205,2.9242654
0.37046486,0.07326475,-0.16424546,-8.833337,-10.45785,2.8331435
0.35892174,0.07098193,-0.15912782,-8.558103,-10.131999,2.7448668
0.34773895,0.06877037,-0.15416993,-8.291462,-9.81632,2.659346
0.3369052,0.066627845,-0.14936681,-8.033143,-9.510495,2.576495
0.3264096,0.06455218,-0.14471358,-7.782886,-9.214214,2.4962292
0.31624147,0.06254129,-0.14020553,-7.540438,-8.927178,2.418468
0.30639058,0.060593136,-0.13583815,-7.3055544,-8.649097,2.343133
0.296847,0.05870575,-0.131607,-7.077997,-8.379691,2.270148
0.28760102,0.056877233,-0.1275078,-6.8575377,-8.118688,2.1994393
0.27864343,0.05510574,-0.12353647,-6.6439533,-7.8658237,2.1309357
0.26996517,0.053389486,-0.11968895,-6.4370294,-7.620845,2.0645683
0.26155746,0.051726744,-0.1159614,-6.236557,-7.383504,2.0002701
0.2534119,0.05011584,-0.11235007,-6.042334,-7.1535625,1.9379766
0.24552023,0.04855515,-0.108851306,-5.854166,-6.930789,1.8776249
0.23787455,0.047043107,-0.1054616,-5.671863,-6.714959,1.8191543
0.23046719,0.045578193,-0.10217754,-5.495242,-6.5058565,1.7625061
0.22329065,0.04415893,-0.09899583,-5.324126,-6.3032703,1.7076234
0.21633777,0.042783897,-0.09591327,-5.1583414,-6.106997,1.6544509
0.20960152,0.04145171,-0.09292676,-4.997723,-5.91684,1.6029353
0.20307519,0.040161032,-0.09003331,-4.8421097,-5.732608,1.5530248
0.19675218,0.038910568,-0.087230004,-4.6913443,-5.554116,1.5046694
0.19062616,0.03769906,-0.08451404,-4.5452757,-5.3811846,1.4578204
0.18469098,0.036525294,-0.08188268,-4.403758,-5.21364,1.412431
0.1789407,0.03538809,-0.07933329,-4.266649,-5.051316,1.3684554
0.17336953,0.034286313,-0.07686332,-4.13381,-4.8940473,1.3258498
0.1679719,0.033218853,-0.074470274,-4.0051093,-4.7416773,1.2845712
0.16274238,0.03218464,-0.07215177,-3.880417,-4.5940533,1.2445782
0.15767574,0.031182641,-0.06990548,-3.7596085,-4.4510274,1.2058309
0.1527669,0.030211847,-0.067729145,-3.6425626,-4.3124557,1.1682904
0.14801094,0.029271288,-0.065620594,-3.529162,-4.1782,1.131919
0.1434031,0.02836002,-0.063577704,-3.4192927,-4.048125,1.0966803
0.13893874,0.02747713,-0.06159844,-3.312845,-3.9221008,1.062539
0.13461341,0.026621735,-0.059680805,-3.209712,-3.800001,1.0294609
0.13042277,0.025792975,-0.057822887,-3.1097908,-3.6817033,0.9974128
0.12636262,0.024990022,-0.05602282,-3.012981,-3.5670896,0.9663627
0.122428894,0.024212072,-0.054278806,-2.9191854,-3.4560444,0.9362794
0.11861766,0.023458345,-0.052589096,-2.8283107,-3.348457,0.90713286
0.114925094,0.022728087,-0.050951995,-2.7402654,-3.2442195,0.8788938
0.1113475,0.022020565,-0.04936587,-2.6549613,-3.1432278,0.851534
0.10788129,0.021335075,-0.047829133,-2.5723135,-3.0453804,0.8250261
0.10452301,0.020670926,-0.04634024,-2.492239,-2.9505794,0.7993435
0.10126929,0.020027455,-0.0448977,-2.4146574,-2.85873,0.77446055
0.09811687,0.019404018,-0.043500073,-2.3394911,-2.7697403,0.75035226
0.09506259,0.018799992,-0.042145964,-2.2666652,-2.683521,0.7269946
0.0921034,0.01821477,-0.04083401,-2.1961067,-2.5999863,0.7043641
0.08923634,0.017647767,-0.0395629,-2.1277447,-2.519052,0.68243814
0.08645854,0.017098418,-0.038331363,-2.061511,-2.4406376,0.6611948
0.08376722,0.01656617,-0.037138168,-1.9973394,-2.3646643,0.64061284
0.08115968,0.016050493,-0.035982117,-1.9351655,-2.2910562,0.62067163
0.07863332,0.015550869,-0.034862056,-1.8749272,-2.2197397,0.6013512
0.076185614,0.015066799,-0.033776864,-1.8165641,-2.150643,0.58263224
0.0738141,0.014597799,-0.032725453,-1.760018,-2.0836978,0.56449604
0.07151642,0.014143398,-0.031706776,-1.7052321,-2.0188365,0.5469244
0.06929026,0.013703144,-0.030719811,-1.6521518,-1.9559942,0.5298998
0.067133404,0.013276595,-0.02976357,-1.6007239,-1.8951085,0.51340514
0.06504369,0.012863324,-0.028837096,-1.5508969,-1.8361179,0.49742398
0.06301903,0.012462918,-0.027939463,-1.502621,-1.7789638,0.4819403
0.061057396,0.012074976,-0.027069774,-1.455848,-1.7235888,0.46693864
0.059156824,0.011699111,-0.026227156,-1.4105309,-1.6699376,0.45240396
0.05731542,0.011334947,-0.02541077,-1.3666246,-1.6179565,0.43832174
0.055531334,0.010982119,-0.024619795,-1.324085,-1.5675937,0.42467788
0.053802785,0.010640273,-0.023853445,-1.2828696,-1.5187985,0.41145876
