ax,ay,az,gx,gy,gz
0.5700052,-1.8181983,-0.14818317,39.063084,-13.927399,-19.697453
-0.34243158,-1.5126885,-0.77750874,38.800987,-14.794378,-20.345232
-1.2739794,-1.7923278,-1.1276562,31.232445,-21.78886,-22.685846
-1.6977465,-2.4042666,-0.9793869,30.190926,-29.050867,-29.952265
-1.4383367,-2.9089274,-0.53595984,31.098358,-30.965963,-34.796516
-0.7195583,-3.2384298,-0.027581492,33.06283,-23.073755,-30.512724
-0.09090778,-3.1886995,0.30348602,31.680256,-11.661462,-22.403143
0.2987699,-3.1187415,0.45359543,28.85727,-0.15595777,-14.303218
0.33938128,-3.2216396,0.46713194,28.934137,8.480096,-8.605482
0.18052623,-3.3716297,0.413229,32.390797,11.35304,-7.1444054
0.2439976,-3.5364816,0.48092547,36.622528,13.248763,-6.591898
0.44887003,-3.6609316,0.5900018,41.53373,16.766245,-4.351838
0.6656504,-3.6558864,0.634013,45.861614,22.145071,0.3517525
0.7996069,-3.5362287,0.5590892,49.814163,28.569963,5.8880296
0.7437856,-3.3697965,0.34127152,53.35173,32.25883,9.950587
0.5624376,-3.3290687,0.09660475,57.034256,33.15087,11.604151
0.41229358,-3.3857791,-0.103970096,62.03862,32.544945,12.011127
0.32400987,-3.3127532,-0.3168413,66.36167,31.629593,13.922455
0.32912055,-3.0775344,-0.5321615,68.218346,30.948137,18.360495
0.395109,-2.8156438,-0.72751606,68.74718,30.927544,23.883923
0.40472168,-2.5897615,-0.9452758,69.91032,30.472595,28.054667
0.281902,-2.3441057,-1.2076398,70.4063,28.327456,30.767052
0.13551576,-2.1323507,-1.4234265,69.88955,24.377787,31.668253
0.04473697,-2.0615144,-1.5450605,69.829865,19.738783,31.15998
0.03787889,-1.9592849,-1.623524,69.462326,15.512367,31.517061
0.09820275,-1.742089,-1.681972,67.9664,12.568385,33.35536
0.12264335,-1.4835392,-1.7613561,65.88995,10.092461,35.255802
0.10673038,-1.1527536,-1.8666369,63.081978,7.250097,36.35524
0.07577904,-0.8148418,-1.959972,59.826607,3.6944358,35.5992
0.05764056,-0.53651166,-2.015978,56.49283,-0.21977046,33.22609
0.074097164,-0.30522957,-2.036728,52.846333,-3.6939118,30.775732
0.10786516,-0.09538659,-2.0441852,48.644722,-6.580888,28.589722
0.13820621,0.11409705,-2.037254,44.037876,-8.960482,26.53199
0.13898619,0.30587384,-2.0150595,39.043743,-11.380437,24.19981
0.13619058,0.43096682,-1.9526103,34.111843,-14.0981045,21.062712
0.16744353,0.49329704,-1.8490373,29.416988,-16.616388,17.482697
0.24708064,0.4860239,-1.7168468,24.834698,-18.432604,14.64225
0.32780007,0.4399813,-1.5770457,20.505667,-19.618715,12.658037
0.39136755,0.37634802,-1.4232804,16.522606,-20.562778,11.067039
0.4535159,0.28071585,-1.2412457,13.429999,-21.413305,9.155891
0.5187036,0.14028442,-1.0334526,11.049948,-22.098703,7.37255
0.6041232,-0.012357069,-0.8139056,9.166971,-22.208014,6.2016635
0.70855826,-0.16269168,-0.594042,7.7926884,-21.41613,5.7727876
0.80172306,-0.2756032,-0.3977253,6.8440304,-19.823347,5.747859
0.8565792,-0.3575543,-0.23291555,6.4015474,-17.90329,5.307412
0.87570626,-0.45122075,-0.09444012,6.359377,-16.08068,4.607569
0.880169,-0.561181,0.023757719,6.6033573,-14.0973015,4.353719
0.86771303,-0.67404896,0.11486109,6.9651184,-12.039593,4.9475274
0.8629155,-0.7726142,0.18387286,7.291602,-9.745839,6.4498444
0.86271495,-0.8612876,0.22842771,7.534813,-7.2508445,8.778548
0.8620163,-0.9432689,0.25880158,8.102045,-4.449562,11.5929365
0.8332533,-1.0254862,0.26458085,9.296809,-1.6823075,14.10242
0.7779226,-1.1096895,0.24792469,10.99263,0.8879833,16.273872
0.70351654,-1.1794184,0.21293484,12.915027,3.1505454,18.361675
0.63631654,-1.1928213,0.16324551,14.412065,5.110591,20.53559
0.57205236,-1.2066877,0.106046006,15.783501,6.7628193,22.502584
0.50052947,-1.2479008,0.0411986,17.59667,8.04169,24.229269
0.43080422,-1.2686492,-0.03572581,19.70237,8.940299,25.66553
0.37406367,-1.260036,-0.12005479,21.800426,9.515599,26.92672
0.33412734,-1.2418917,-0.20764127,23.83188,10.050589,28.54071
0.29235098,-1.2049628,-0.31032944,25.82542,10.4477625,30.303988
0.23778215,-1.0978578,-0.43391538,27.418943,10.401928,31.900734
0.17783895,-0.97702473,-0.5604761,28.509296,9.850743,33.073086
0.11732237,-0.87455285,-0.68140763,29.365202,8.852191,33.815273
0.058433056,-0.78036094,-0.79667497,30.014988,7.3773475,34.180473
0.00046224336,-0.7076865,-0.9082966,30.542637,5.474648,34.56066
-0.056309596,-0.6426711,-1.0176669,30.69635,3.2746916,35.342613
-0.10227044,-0.5647201,-1.1140019,30.602766,0.85808605,36.16258
-0.1363068,-0.46278566,-1.1999127,30.069838,-1.7306778,36.88677
-0.16049916,-0.34136724,-1.2818966,28.99229,-4.462469,37.386253
-0.18767443,-0.21179952,-1.372102,27.34626,-7.579377,37.326893
-0.20727089,-0.09308107,-1.4622076,25.195946,-11.376874,36.68539
-0.18900362,0.017299145,-1.5312663,22.539137,-15.701992,35.547592
-0.12094225,0.08852245,-1.5447687,19.460741,-20.215666,34.071762
0.00035484537,0.14603499,-1.4897813,15.930408,-23.742025,32.855137
0.13391668,0.22954473,-1.3917522,11.895609,-26.073303,32.0704
0.23482765,0.30125713,-1.2948034,7.722309,-27.610754,30.77486
0.27636456,0.32332546,-1.2165788,4.344037,-29.138678,28.617376
0.29768407,0.3120817,-1.1419652,1.651218,-31.156298,25.811518
0.36087683,0.29363504,-1.0460571,-0.813958,-33.418415,22.994476
0.5231556,0.28829095,-0.8970118,-3.2803113,-34.68261,20.69911
0.69588345,0.27468225,-0.7356117,-5.6883283,-34.77823,18.673693
0.82257074,0.2259944,-0.5830184,-8.036197,-33.895367,16.87276
0.9008023,0.15060593,-0.44041446,-10.51405,-32.428734,15.379049
0.96993023,0.05717833,-0.30209517,-12.996931,-30.395403,14.073181
1.0296257,-0.032508448,-0.18157525,-15.103342,-27.880863,12.968144
1.0653526,-0.08794819,-0.097039826,-16.920315,-25.149698,12.137811
1.0648082,-0.14447543,-0.037846666,-18.340502,-22.432838,11.268853
1.0305136,-0.19801214,-0.0013874595,-19.302128,-19.984238,10.188356
0.9850239,-0.24445686,0.02654815,-19.726303,-17.837257,8.883965
0.9541667,-0.2367989,0.025716493,-19.108349,-17.27848,8.605662
0.9242878,-0.22938375,0.024911204,-18.509987,-16.73742,8.336184
0.89535517,-0.22220345,0.024131417,-17.930576,-16.213495,8.075239
0.86733794,-0.2152503,0.023376303,-17.369497,-15.706145,7.822551
0.84020615,-0.20851691,0.022645053,-16.82615,-15.21483,7.5778484
0.8139311,-0.20199615,0.021936893,-16.299961,-14.739031,7.340873
0.788485,-0.1956811,0.021251077,-15.790372,-14.278241,7.1113734
0.76384103,-0.18956512,0.020586878,-15.296846,-13.831977,6.8891087
0.73997337,-0.18364179,0.0199436,-14.818867,-13.39977,6.6738453
0.7168569,-0.17790489,0.01932057,-14.355931,-12.981167,6.465357
0.69446754,-0.17234845,0.018717138,-13.9075575,-12.57573,6.263427
0.672782,-0.16696668,0.018132674,-13.473278,-12.183039,6.067844
0.6517777,-0.16175397,0.017566571,-13.052642,-11.802684,5.8784056
0.6314329,-0.15670492,0.017018242,-12.645212,-11.434271,5.6949153
0.6117265,-0.15181433,0.016487122,-12.250568,-11.077419,5.517183
0.5926383,-0.14707713,0.015972659,-11.868302,-10.731761,5.345025
0.5741485,-0.14248845,0.015474324,-11.498021,-10.396938,5.178265
0.55623806,-0.13804355,0.0149916075,-11.139344,-10.072609,5.0167303
0.5388887,-0.1337379,0.014524011,-10.791902,-9.758439,4.8602557
0.52208257,-0.12956707,0.014071056,-10.4553385,-9.454106,4.7086806
0.5058025,-0.12552679,0.013632279,-10.129311,-9.159299,4.56185
0.4900318,-0.12161292,0.013207231,-9.813483,-8.873716,4.419614
0.47475445,-0.11782148,0.012795478,-9.507535,-8.597067,4.281827
0.45995483,-0.1141486,0.012396602,-9.211155,-8.329068,4.1483483
0.44561785,-0.11059055,0.012010195,-8.92404,-8.069448,4.0190425
0.43172896,-0.10714369,0.011635865,-8.645898,-7.817942,3.8937783
0.41827404,-0.103804536,0.01127323,-8.376447,-7.5742946,3.772428
0.40523943,-0.100569695,0.010921925,-8.115413,-7.338258,3.6548684
0.39261192,-0.097435884,0.010581591,-7.862531,-7.1095934,3.5409806
0.3803787,-0.09439992,0.010251884,-7.6175466,-6.8880687,3.4306486
0.3685274,-0.09145874,0.0099324705,-7.3802094,-6.67346,3.3237615
0.357046,-0.08860937,0.0096230265,-7.150281,-6.46555,3.2202103
0.34592295,-0.08584891,0.00932324,-6.927528,-6.264128,3.119891
0.33514696,-0.0831746,0.009032807,-6.711725,-6.0689917,3.022702
0.32470715,-0.080583714,0.008751436,-6.502656,-5.8799434,2.928545
0.31459302,-0.07807366,0.008478843,-6.300108,-5.6967916,2.8373253
0.30479434,-0.075641885,0.00821475,-6.1038775,-5.519353,2.7489507
0.29530123,-0.073285945,0.007958895,-5.9137664,-5.347448,2.663332
0.28610417,-0.071003474,0.007711017,-5.7295837,-5.180903,2.5803833
0.27719384,-0.06879217,0.007470868,-5.5511436,-5.019551,2.5000207
0.2685613,-0.0666498,0.007238206,-5.378267,-4.863229,2.4221637
0.26019788,-0.06457422,0.0070127966,-5.2107787,-4.71178,2.3467336
0.25209513,-0.06256334,0.006794413,-5.0485115,-4.565052,2.2736547
0.24424492,-0.060615122,0.0065828357,-4.8913016,-4.422897,2.2028534
0.23663937,-0.058727626,0.0063778525,-4.7389913,-4.285172,2.1342585
0.22927082,-0.056898948,0.0061792573,-4.5914273,-4.151739,2.0678015
0.22213188,-0.055127252,0.0059868502,-4.448461,-4.022464,2.003415
0.21521538,-0.053410757,0.005800438,-4.30995,-3.8972168,1.9410349
0.20851438,-0.051747743,0.0056198337,-4.175754,-3.775872,1.8805983
0.20202214,-0.050136544,0.0054448564,-4.0457387,-3.6583076,1.8220446
0.19573215,-0.04857553,0.00527533,-3.9197743,-3.5444057,1.7653149
0.1896381,-0.047063153,0.0051110843,-3.7977335,-3.4340518,1.7103524
0.18373387,-0.04559788,0.0049519553,-3.6794941,-3.3271356,1.6571021
0.17801355,-0.044178247,0.0047977823,-3.5649378,-3.2235494,1.6055104
0.1724714,-0.042802837,0.0046484116,-3.4539497,-3.12319,1.5555255
0.16710187,-0.04147026,0.0045036934,-3.3464184,-3.025956,1.5070976
0.16189958,-0.04017919,0.0043634824,-3.2422361,-2.9317503,1.4601779
0.1568593,-0.038928322,0.004227638,-3.1412983,-2.8404787,1.4147195
0.15197599,-0.037716415,0.0040960237,-3.043504,-2.7520494,1.3706766
0.14724475,-0.036542244,0.0039685084,-2.948755,-2.666374,1.3280054
0.14266084,-0.03540464,0.0038449639,-2.8569567,-2.5833666,1.286663
0.13821967,-0.034302462,0.0037252665,-2.768017,-2.502944,1.246608
0.1339168,-0.033234604,0.0036092964,-2.6818469,-2.4250257,1.2078003
0.12974791,-0.032199997,0.0034969375,-2.5983598,-2.3495336,1.170201
0.12570883,-0.031197604,0.003388077,-2.5174723,-2.2763922,1.1337724
0.12179552,-0.030226422,0.0032826064,-2.4391034,-2.205528,1.098478
0.118004054,-0.02928548,0.0031804196,-2.3631747,-2.1368704,1.0642827
0.114330634,-0.028373834,0.0030814142,-2.28961,-2.0703504,1.0311519
0.11077158,-0.027490573,0.0029854917,-2.2183356,-2.0059016,0.9990527
0.10732335,-0.026634812,0.0028925554,-2.1492805,-1.9434594,0.96795297
0.10398246,-0.025805695,0.0028025128,-2.0823753,-1.8829613,0.93782145
0.100745596,-0.02500239,0.0027152735,-2.017553,-1.8243467,0.90862805
0.097609505,-0.024224095,0.0026307502,-1.9547491,-1.7675569,0.8803435
0.094571054,-0.02347003,0.0025488583,-1.8939003,-1.7125351,0.85293955
0.09162719,-0.022739442,0.0024695161,-1.8349459,-1.6592263,0.8263888
0.08877497,-0.022031598,0.0023926438,-1.7778269,-1.6075772,0.80066454
0.08601156,-0.02134579,0.0023181648,-1.722486,-1.5575359,0.77574116
0.08333416,-0.020681333,0.0022460043,-1.6688681,-1.5090525,0.7515937
0.080740124,-0.020037562,0.0021760904,-1.6169193,-1.4620786,0.728198
0.07822684,-0.01941383,0.0021083527,-1.5665877,-1.4165668,0.7055306
0.0757918,-0.018809516,0.002042724,-1.517823,-1.3724719,0.68356884
0.07343256,-0.018224016,0.0019791382,-1.4705763,-1.3297497,0.66229075
0.07114676,-0.017656742,0.001917532,-1.4248004,-1.2883575,0.64167506
0.068932116,-0.017107127,0.0018578435,-1.3804495,-1.2482538,0.6217012
0.06678642,-0.016574621,0.001800013,-1.3374794,-1.2093985,0.60234904
0.06470752,-0.01605869,0.0017439829,-1.2958467,-1.1717528,0.5835993
0.06269333,-0.015558823,0.0016896969,-1.2555101,-1.1352789,0.56543326
0.060741838,-0.015074516,0.0016371008,-1.2164292,-1.0999405,0.5478327
0.058851097,-0.014605284,0.0015861419,-1.1785648,-1.0657021,0.5307801
0.05701921,-0.014150659,0.0015367694,-1.1418791,-1.0325296,0.51425827
