ax,ay,az,gx,gy,gz
-2.3754761,-1.0527369,-1.5009228,63.255123,-13.15012,-54.376858
-2.3242671,-0.5282721,-1.6658171,47.307713,-27.241573,-56.560574
-1.8345845,-0.5107332,-1.5789446,30.461166,-32.896145,-51.162224
-1.4194925,-0.73724556,-1.3307232,19.776497,-32.015045,-48.020798
-1.4699061,-1.0100739,-1.2976301,20.149508,-31.38247,-51.335217
-1.5417442,-1.2784863,-1.1707605,22.441128,-30.936396,-56.59693
-1.2937208,-1.5153441,-0.8800593,24.552046,-28.507122,-59.05984
-0.8707652,-1.752432,-0.52655435,25.700499,-23.498072,-57.459637
-0.5275573,-2.0261388,-0.25757077,24.924597,-17.12344,-50.841877
-0.39140147,-2.391025,-0.10847601,24.903652,-11.424654,-40.340256
-0.39546815,-2.7808201,-0.050600935,26.389467,-7.8597984,-30.662363
-0.34364974,-3.0796149,0.0036411774,29.610952,-5.6735067,-24.813135
-0.20635277,-3.273488,0.063153416,34.05306,-3.9905326,-22.271048
-0.039288856,-3.4142885,0.110512964,39.71686,-2.2018032,-20.392866
0.07921641,-3.485458,0.11994983,45.193684,-0.06131337,-17.082865
0.12449237,-3.518609,0.07673662,49.340355,1.8741544,-11.930335
0.13145503,-3.5547483,7.395084e-05,52.43949,3.3616362,-6.0259347
0.10983111,-3.5875826,-0.110824026,55.78974,4.2907248,-0.41744536
0.088466644,-3.5923696,-0.24308756,59.70328,4.541366,3.9565814
0.08514922,-3.5142481,-0.38595134,64.11546,4.308438,6.8207283
0.06799978,-3.324121,-0.5773576,67.84297,3.558705,9.422371
0.04485487,-3.1349595,-0.7783262,70.81227,2.3351014,12.271824
0.042601485,-2.9419,-0.9738329,73.4272,0.6080427,14.789017
0.08833892,-2.7010324,-1.1616845,75.64934,-1.3493042,16.80207
0.17508124,-2.3984425,-1.3310939,76.79623,-3.3127015,18.588503
0.24937925,-2.006192,-1.4887385,76.60405,-5.1625524,20.67419
0.27606326,-1.6318728,-1.6438237,74.84497,-7.1836605,23.041168
0.27548847,-1.3505745,-1.7921618,72.60445,-9.518326,24.890207
0.26590723,-1.1413454,-1.9319834,70.45558,-12.217858,25.492619
0.25607756,-0.9625115,-2.0521817,68.55624,-15.277628,24.80825
0.28746685,-0.7520197,-2.1213784,66.24528,-18.047266,24.233278
0.3275673,-0.52517724,-2.1608315,63.154926,-20.29557,24.235666
0.36252266,-0.2921698,-2.1848507,59.6137,-21.935755,24.504179
0.3802734,-0.00025623373,-2.2071593,55.347847,-23.42111,24.017214
0.4043406,0.3112118,-2.2123182,50.04588,-25.052532,21.31152
0.4449352,0.5359633,-2.1761422,45.079643,-26.615715,16.999464
0.45072448,0.6043853,-2.1121035,40.869915,-28.159937,12.265865
0.44012126,0.62559795,-2.0451672,36.755913,-29.657677,8.488657
0.451092,0.6505934,-1.9692216,32.22194,-30.905167,6.1495476
0.48692307,0.6859308,-1.8784939,27.258581,-31.719004,4.8936043
0.53634655,0.68086445,-1.7470857,22.435425,-32.274364,3.3728724
0.5670397,0.6063293,-1.5913664,18.797583,-32.719296,0.7734816
0.59161025,0.49238363,-1.4241862,15.945728,-33.033848,-2.2622144
0.62491924,0.3813388,-1.2583381,13.7020445,-33.029057,-4.791555
0.6561429,0.29966977,-1.1025721,11.378856,-32.680515,-6.042329
0.6815749,0.1903233,-0.92591846,9.269715,-32.079357,-6.871624
0.6996759,0.054250214,-0.7410193,7.6246605,-31.172232,-7.5255766
0.70603216,-0.107781366,-0.56167525,6.4755573,-29.881184,-7.9959517
0.68898386,-0.29090974,-0.40059033,5.8677034,-28.340078,-8.141604
0.6600977,-0.4588758,-0.25996825,5.943999,-26.603214,-7.8055563
0.643332,-0.5660653,-0.13258137,6.247882,-24.721966,-7.3549743
0.63540024,-0.64745045,-0.01667303,6.6629777,-22.616066,-6.925821
0.6181822,-0.73629844,0.07612116,7.294741,-20.335358,-6.3845305
0.579159,-0.8281601,0.13455968,8.111848,-18.081497,-5.4433117
0.52588445,-0.909947,0.16448852,9.050227,-16.059038,-4.0336537
0.48295346,-0.98304677,0.1807091,10.225993,-14.231882,-2.611437
0.45825964,-1.0371054,0.1952202,11.447181,-12.39509,-1.1607753
0.447305,-1.074463,0.2007516,12.658263,-10.368643,0.34149247
0.4380169,-1.1267518,0.1940298,13.967518,-8.161535,1.8258159
0.4151828,-1.214739,0.16448529,15.735228,-5.8698254,3.6113002
0.3557018,-1.3487369,0.09323587,17.817303,-4.073301,5.807645
0.30543047,-1.4316832,0.006953582,20.006426,-2.7529292,8.375972
0.2898392,-1.4039644,-0.086379856,21.730846,-1.7033335,11.085788
0.2993241,-1.3400259,-0.17677946,23.114275,-0.70572925,13.652795
0.30661723,-1.3022846,-0.26838675,24.56803,0.24584879,15.695708
0.28341463,-1.3179448,-0.37683883,26.332777,1.0218661,17.666927
0.23814955,-1.3861126,-0.50016475,28.473814,1.3529583,20.079823
0.1974525,-1.4310241,-0.6354165,30.892036,1.1847202,23.036034
0.1816611,-1.3446653,-0.78627425,32.93659,0.47048676,26.241787
0.19767913,-1.1498152,-0.938366,34.116703,-0.729751,28.941305
0.22080502,-0.91955584,-1.0829387,35.049583,-2.214543,30.794912
0.22077942,-0.6945206,-1.2278969,35.398426,-3.8480253,32.06887
0.19357307,-0.510933,-1.3736837,35.129105,-5.9624424,33.25226
0.16390099,-0.33872047,-1.5082939,34.179512,-8.413712,34.605736
0.14841309,-0.18156977,-1.6246732,32.269188,-11.138337,36.197075
0.15991876,-0.0069985464,-1.7165171,29.876703,-14.030701,37.32879
0.16908906,0.23436579,-1.8036891,26.798185,-17.079552,37.74827
0.18778332,0.45789784,-1.8720126,23.160559,-20.210407,37.15365
0.21524277,0.63656396,-1.9187764,19.205692,-23.241606,35.60571
0.24783541,0.762092,-1.9394345,14.743812,-26.419075,33.13992
0.31299,0.8086199,-1.9113511,10.056809,-29.345913,29.863487
0.36836424,0.7968582,-1.8548013,5.6322517,-32.20918,26.475492
0.43910313,0.74394935,-1.7536998,1.4133039,-35.014965,23.033218
0.5369353,0.67302656,-1.6110115,-2.6568434,-37.481255,19.712904
0.65582675,0.5855867,-1.4408774,-6.606211,-39.05163,16.869051
0.7910448,0.47029534,-1.2426784,-10.174392,-39.65187,14.325037
0.9072273,0.32714322,-1.0460044,-13.019536,-39.204308,11.965673
0.9922595,0.17083065,-0.86369187,-15.26282,-38.175575,9.756166
1.0690359,0.011842821,-0.6876208,-16.99457,-36.448547,7.890633
1.1391724,-0.14043075,-0.5142941,-17.982653,-33.737762,6.748164
1.1902918,-0.2331747,-0.36282176,-18.59522,-30.443829,6.0377393
1.1530188,-0.22587304,-0.3514603,-18.012928,-29.490507,5.848673
1.1169263,-0.21880262,-0.3404587,-17.449076,-28.567379,5.665594
1.0819757,-0.21195589,-0.32980514,-16.903063,-27.673454,5.4883075
1.0481297,-0.20532556,-0.3194883,-16.374308,-26.807781,5.316624
1.0153525,-0.19890459,-0.3094972,-15.862247,-25.969446,5.150362
0.98360926,-0.1926862,-0.29982132,-15.366343,-25.157557,4.989345
0.95286673,-0.18666382,-0.29045045,-14.88607,-24.371262,4.833404
0.92309254,-0.18083115,-0.28137475,-14.420926,-23.609734,4.682375
0.8942555,-0.17518206,-0.27258474,-13.970422,-22.872175,4.5360994
0.86632556,-0.16971065,-0.2640712,-13.534089,-22.157818,4.394425
0.8392735,-0.16441125,-0.25582525,-13.111471,-21.465914,4.257204
0.81307137,-0.15927832,-0.24783838,-12.70213,-20.795748,4.124294
0.7876919,-0.15430656,-0.24010228,-12.305642,-20.146622,3.9955568
0.76310885,-0.1494908,-0.23260894,-11.921597,-19.517866,3.8708596
0.7392969,-0.14482611,-0.22535063,-11.549596,-18.908833,3.750074
0.71623147,-0.14030766,-0.21831988,-11.189258,-18.318893,3.6330745
0.6938888,-0.1359308,-0.21150945,-10.840212,-17.74744,3.5197418
0.67224604,-0.13169104,-0.20491235,-10.5021,-17.193888,3.409959
0.65128094,-0.12758404,-0.19852182,-10.174575,-16.65767,3.3036141
0.6309721,-0.123605594,-0.19233133,-9.857302,-16.138233,3.2005975
0.6112987,-0.11975163,-0.18633454,-9.549955,-15.635051,3.1008046
0.59224063,-0.11601822,-0.18052532,-9.252224,-15.147609,3.004133
0.57377857,-0.11240156,-0.17489776,-8.963801,-14.675408,2.9104843
0.55589366,-0.10889796,-0.16944613,-8.684397,-14.21797,2.8197634
0.5385678,-0.10550386,-0.16416489,-8.413724,-13.774829,2.7318778
0.5217832,-0.10221581,-0.15904865,-8.151508,-13.345533,2.6467383
0.50552297,-0.09903047,-0.15409224,-7.8974843,-12.929648,2.5642586
0.48977053,-0.09594463,-0.14929064,-7.651394,-12.526752,2.4843547
0.47450998,-0.09295513,-0.14463896,-7.4129877,-12.136437,2.4069457
0.4597259,-0.09005897,-0.1401325,-7.182024,-11.758307,2.3319535
0.44540322,-0.0872532,-0.1357667,-6.95827,-11.39198,2.2593021
0.43152755,-0.084534995,-0.13153715,-6.7414985,-11.037086,2.1889179
0.41808486,-0.08190161,-0.12743959,-6.5314913,-10.693264,2.12073
0.40506154,-0.07935038,-0.12346985,-6.328036,-10.36017,2.0546694
0.3924445,-0.076878734,-0.11962395,-6.130927,-10.037466,1.9906696
0.38022098,-0.074484184,-0.115898006,-5.939966,-9.724828,1.9286659
0.36837864,-0.072164305,-0.11228826,-5.7549605,-9.421939,1.8685958
0.35690558,-0.06991677,-0.10879107,-5.5757236,-9.128495,1.8103989
0.34579024,-0.06773931,-0.105402924,-5.4020753,-8.844201,1.7540165
0.33502144,-0.06562973,-0.1021204,-5.233841,-8.568769,1.699392
0.32458833,-0.063585915,-0.09894021,-5.0708504,-8.301924,1.6464701
0.31448042,-0.0616058,-0.09585914,-4.9129405,-8.043396,1.5951978
0.30468756,-0.059687406,-0.0928741,-4.7599525,-7.7929263,1.5455236
0.29519987,-0.0578288,-0.089982085,-4.611732,-7.550262,1.4973975
0.28600785,-0.05602811,-0.0871802,-4.4681306,-7.31516,1.4507711
0.27710226,-0.054283526,-0.084465615,-4.329004,-7.0873833,1.4055976
0.26847416,-0.052593306,-0.08183562,-4.194212,-6.866704,1.3618317
0.26011485,-0.050955746,-0.07928756,-4.0636196,-6.6529,1.3194293
0.252016,-0.0493692,-0.07681889,-3.937096,-6.4457574,1.2783478
0.24416944,-0.047832083,-0.07442712,-3.814514,-6.245068,1.2385463
0.23656732,-0.04634285,-0.072109856,-3.6957505,-6.05063,1.1999847
0.22920199,-0.044900004,-0.06986478,-3.5806863,-5.862249,1.1626241
0.22206609,-0.0435021,-0.06768963,-3.4692063,-5.679735,1.1264273
0.21515244,-0.042147737,-0.06558223,-3.3611987,-5.5029063,1.091358
0.20845413,-0.04083556,-0.063540466,-3.2565548,-5.3315854,1.0573808
0.20196442,-0.039564244,-0.061562292,-3.1551702,-5.1656,1.024462
0.19567685,-0.038332526,-0.059645727,-3.056943,-5.0047836,0.99256825
0.18958507,-0.037139166,-0.05778885,-2.9617748,-4.8489757,0.9616678
0.18368301,-0.035982966,-0.055989794,-2.8695703,-4.6980195,0.9317296
0.17796473,-0.034862775,-0.054246765,-2.7802372,-4.5517645,0.9027238
0.17242453,-0.033777464,-0.052558012,-2.6936858,-4.4100637,0.87462115
0.16705683,-0.03272595,-0.050921846,-2.6098294,-4.2727757,0.8473936
0.16185628,-0.031707175,-0.049336627,-2.5285845,-4.1397624,0.82101387
0.15681766,-0.030720124,-0.04780077,-2.4498692,-4.0108905,0.7954555
0.15193592,-0.029763807,-0.04631273,-2.3736048,-3.8860316,0.770693
0.14720619,-0.028837265,-0.044871025,-2.2997148,-3.7650604,0.7467015
0.14262372,-0.027939573,-0.04347421,-2.2281256,-3.6478555,0.723457
0.13818392,-0.02706983,-0.04212088,-2.1587653,-3.5342999,0.70093614
0.13388236,-0.026227167,-0.040809687,-2.0915647,-3.4242797,0.67911655
0.12971473,-0.025410738,-0.03953932,-2.026456,-3.317685,0.65797627
0.12567684,-0.024619728,-0.0383085,-1.9633746,-3.2144089,0.63749415
0.12176467,-0.023853345,-0.037116002,-1.902257,-3.114348,0.6176497
0.11797429,-0.023110822,-0.03596063,-1.8430423,-3.0174024,0.59842306
0.11430192,-0.022391414,-0.034841225,-1.785671,-2.923475,0.579795
0.11074388,-0.021694403,-0.033756673,-1.7300857,-2.8324716,0.5617469
0.1072966,-0.021019094,-0.032705884,-1.676231,-2.7443016,0.5442606
0.10395665,-0.020364804,-0.031687807,-1.6240529,-2.6588762,0.5273187
0.10072067,-0.019730886,-0.030701423,-1.5734991,-2.5761104,0.51090425
0.097585425,-0.019116702,-0.029745746,-1.5245191,-2.495921,0.4950008
0.094547786,-0.018521637,-0.02881982,-1.4770639,-2.418228,0.4795924
0.09160471,-0.017945098,-0.02792272,-1.431086,-2.3429534,0.4646637
0.08875325,-0.017386505,-0.027053546,-1.3865393,-2.2700224,0.45019972
0.08599056,-0.0168453,-0.02621143,-1.3433795,-2.1993618,0.43618602
0.083313875,-0.016320946,-0.025395527,-1.3015631,-2.1309006,0.42260855
0.08072051,-0.015812913,-0.024605025,-1.2610486,-2.0645707,0.40945372
0.07820787,-0.015320695,-0.02383913,-1.2217951,-2.0003057,0.39670843
0.075773455,-0.0148438,-0.023097076,-1.1837636,-1.938041,0.38435987
0.07341482,-0.01438175,-0.022378122,-1.146916,-1.8777146,0.3723957
0.071129605,-0.013934082,-0.021681547,-1.1112155,-1.8192662,0.360804
