ax,ay,az,gx,gy,gz
-4.2327657,-4.715497,-3.3236666,46.386787,-64.19876,78.68071
-4.1013727,-4.798642,-3.5844529,43.65292,-80.34348,81.09129
-3.6575453,-4.1711693,-3.6198547,38.481,-90.0215,85.1033
-3.0901926,-3.4440494,-3.6098533,30.644463,-93.60879,90.80602
-2.575773,-3.105262,-3.4603229,24.236797,-94.21476,90.3753
-2.215208,-2.8978598,-3.3485637,19.872366,-93.74398,85.69155
-2.0130765,-2.8913143,-3.2715533,19.745287,-93.4748,79.43702
-1.9291223,-2.9928126,-3.1959586,20.991604,-93.90058,73.87241
-1.8144348,-3.089407,-3.0792658,21.342077,-94.21992,70.75493
-1.6276617,-3.1831884,-2.877739,20.591793,-93.61247,70.00099
-1.4388108,-3.3420186,-2.602601,20.156963,-91.9345,69.642914
-1.291333,-3.5611906,-2.2806811,21.475454,-89.67207,68.55428
-1.1943048,-3.7583046,-1.9743106,24.304329,-87.435104,67.12457
-1.1053956,-3.896491,-1.6902862,28.216509,-85.18741,66.82777
-0.93287176,-3.8753893,-1.3999215,31.278769,-82.40984,68.70947
-0.68542194,-3.7445095,-1.0780101,33.057087,-78.91788,71.6178
-0.37804163,-3.580945,-0.7125424,34.88645,-74.43182,73.66533
-0.028797384,-3.3874915,-0.3607199,37.66871,-69.10931,74.12842
0.31474745,-3.1421235,-0.0940805,41.202568,-63.212837,73.65862
0.63514215,-2.7489905,0.059336267,43.75264,-57.534527,72.974815
0.95480335,-2.355222,0.20579948,45.343803,-51.937206,71.988846
1.2936324,-1.989147,0.37389597,46.47485,-45.89087,70.51137
1.6272256,-1.6584283,0.54430574,47.347378,-39.00758,68.477646
1.9231633,-1.3700136,0.68290704,48.041267,-30.817545,65.54167
2.1369953,-1.0767592,0.7176432,48.159523,-22.529228,62.560486
2.2313726,-0.7934083,0.6573414,47.725597,-15.005262,59.83105
2.256526,-0.52048045,0.5654707,46.68418,-8.71496,57.05733
2.2763915,-0.2811332,0.48668668,45.314835,-3.153524,53.614788
2.2966578,-0.1025415,0.41956353,43.739265,2.323193,49.163757
2.2952373,-0.016211025,0.34348777,41.844326,7.825222,44.56701
2.2667754,0.04293821,0.2222461,40.273113,13.684057,40.517044
2.142032,0.10446263,0.029613921,38.43327,18.75481,37.512478
1.9850695,0.15867212,-0.17879826,36.233162,22.481623,34.836277
1.836158,0.20821622,-0.3750001,34.052643,24.599657,31.698269
1.6609664,0.22280984,-0.57562256,32.23482,25.424412,28.151482
1.4919479,0.21446574,-0.76860005,30.58608,25.161251,24.62258
1.3647532,0.20869912,-0.9440353,29.052948,24.350407,21.470518
1.2502562,0.23004949,-1.1237161,27.24641,23.114216,19.064596
1.14977,0.26027566,-1.2922717,25.179474,21.470663,17.029358
1.0657504,0.32144007,-1.4453626,23.040215,19.57189,14.619004
0.9892207,0.37996867,-1.5853567,20.835934,17.219177,11.667736
0.9216317,0.43635908,-1.7102469,18.31951,14.624475,8.744543
0.87456346,0.4962292,-1.8163489,15.241569,11.905796,6.106902
0.84322345,0.5541704,-1.9055355,11.67077,9.16522,3.7344754
0.81437486,0.58535033,-1.9575981,7.9852147,6.3449774,1.2581079
0.79938465,0.59093285,-1.967898,4.674758,3.623887,-1.4813695
0.78680754,0.5834107,-1.9572706,1.8210558,1.0086857,-4.3079724
0.77460414,0.57948667,-1.9385691,-0.94602734,-1.7033367,-7.0009365
0.7881531,0.57670844,-1.9028188,-3.8500154,-4.3650737,-9.377999
0.8261549,0.5634956,-1.8183348,-6.9601107,-6.710654,-11.396369
0.8710744,0.5118761,-1.6832458,-9.998464,-8.557268,-13.087005
0.91248715,0.42643195,-1.5144888,-12.385295,-9.900637,-14.784325
0.9435395,0.34360117,-1.3417575,-13.80666,-10.854457,-16.669947
0.9705641,0.28377482,-1.1820381,-14.508679,-11.603917,-18.535454
1.0162616,0.23919249,-1.0003648,-15.188636,-12.074796,-20.002
1.0668771,0.18044364,-0.7911239,-15.956359,-12.232252,-21.021776
1.1221251,0.09411037,-0.56054205,-16.593725,-11.769806,-21.77958
1.1701988,-0.018107513,-0.33783272,-16.631979,-10.747988,-22.538023
1.2104411,-0.123822555,-0.15044585,-15.811452,-9.350026,-23.544472
1.2410127,-0.2248366,-0.010107684,-14.9803095,-7.987798,-24.391903
1.2664459,-0.36068282,0.13041417,-14.2478895,-6.5665426,-24.737583
1.2739476,-0.5480481,0.2748614,-13.295891,-4.9419503,-24.547163
1.2568853,-0.7865871,0.41212124,-11.724099,-3.1469996,-23.953085
1.2407348,-1.0367807,0.5329029,-8.842751,-0.98698187,-22.956392
1.2340833,-1.1943452,0.60105115,-5.3965707,1.5544643,-21.811296
1.2058246,-1.2586166,0.61662245,-2.2836082,4.1679044,-20.658249
1.1549059,-1.3015411,0.61205167,0.39504817,6.622208,-19.559988
1.089168,-1.3862034,0.6002774,3.221432,8.823711,-18.563251
1.0296317,-1.4855853,0.56887436,6.3329268,10.766042,-17.44605
1.0103837,-1.5647099,0.51731724,9.486287,12.697875,-16.039263
1.0204011,-1.6125425,0.45467833,12.416015,14.759696,-14.348977
1.030086,-1.6350683,0.37341896,15.168973,16.972393,-12.526517
1.0014727,-1.6686939,0.26931536,17.768913,18.918121,-10.653828
0.94649494,-1.7406658,0.15164122,20.612297,20.238398,-8.618275
0.8983272,-1.8281738,0.019361032,23.387465,21.132494,-6.316976
0.86474156,-1.9078184,-0.11450826,26.230204,21.761703,-3.480646
0.8446756,-1.9309964,-0.25987986,28.912678,22.244947,-0.26410913
0.814082,-1.8935709,-0.4231987,30.99321,22.450333,3.119589
0.7618248,-1.8338197,-0.5927045,32.205032,21.924873,6.2374935
0.6869505,-1.7925863,-0.76290375,33.185184,20.669798,8.750319
0.6300251,-1.7741067,-0.9153841,34.162544,18.93991,10.639767
0.61078984,-1.7274495,-1.051682,35.219856,17.154316,12.158984
0.61595565,-1.6109443,-1.1813327,35.711308,15.629667,13.690797
0.60728014,-1.4858223,-1.3039623,35.250603,14.09446,15.355736
0.588797,-1.4021592,-1.3947015,34.591793,12.579642,16.898321
0.56233233,-1.317874,-1.4723027,33.927227,11.090274,18.178843
0.52830154,-1.2062447,-1.5487763,33.124886,9.462655,19.165657
0.5018172,-1.0436867,-1.6328815,32.07625,7.549923,19.768723
0.5001926,-0.82221603,-1.7179158,30.138601,5.4167647,19.755531
0.5217168,-0.5834965,-1.7939479,27.616005,3.3743792,19.25308
0.529056,-0.4027277,-1.8573855,24.705032,1.3356143,18.259907
0.5190964,-0.2877821,-1.9055972,21.593943,-0.80478746,17.122393
0.5104852,-0.22530892,-1.9301198,18.268042,-2.8601856,16.23104
0.5072469,-0.16809785,-1.9498298,14.571792,-4.4762135,16.18726
0.475676,-0.1264589,-1.9807414,10.534149,-6.337121,16.39687
0.45751703,-0.14164281,-1.9846272,6.648832,-8.498085,16.178032
0.45115444,-0.221,-1.9598472,3.4547064,-10.825597,15.31351
0.4304589,-0.33642408,-1.9247527,0.72182465,-13.379223,14.315996
0.4074468,-0.47230387,-1.875984,-1.5435433,-16.033613,14.019338
0.40712044,-0.5660756,-1.8115373,-3.9587834,-18.556784,14.782603
0.42982283,-0.60099137,-1.7201337,-6.549695,-20.813757,16.042292
0.4704848,-0.60689336,-1.592758,-8.952432,-22.677685,17.096571
0.5284141,-0.61588806,-1.4288915,-10.704206,-24.052406,17.475565
0.6078104,-0.62981313,-1.2376136,-11.316937,-24.80291,16.924364
0.7199501,-0.62463826,-1.0306791,-11.497108,-24.906963,16.377134
0.83783996,-0.60917246,-0.8169424,-11.416412,-24.099283,16.07751
0.94754124,-0.5880764,-0.60647464,-10.843145,-21.997293,15.861534
1.035899,-0.55853266,-0.4097771,-9.99845,-19.106281,15.500002
1.0035888,-0.5411117,-0.39699593,-9.686593,-18.510345,15.016548
0.97229016,-0.52423626,-0.38461497,-9.3845005,-17.933071,14.548233
0.9419713,-0.507889,-0.37262154,-9.091865,-17.373865,14.094576
0.9126011,-0.49205327,-0.36100337,-8.808385,-16.832155,13.655114
0.8841496,-0.47671288,-0.34974864,-8.5337715,-16.307392,13.229399
0.85658777,-0.4618522,-0.33884582,-8.267747,-15.799038,12.816995
0.8298876,-0.4474561,-0.32828388,-8.010037,-15.306576,12.417484
0.8040219,-0.43350992,-0.31805202,-7.760383,-14.829505,12.03046
0.7789644,-0.41999948,-0.30813986,-7.5185294,-14.36734,11.655528
0.7546897,-0.4069111,-0.29853734,-7.2842307,-13.919614,11.292309
0.7311731,-0.3942315,-0.28923476,-7.0572495,-13.485869,10.9404335
0.7083908,-0.38194782,-0.28022262,-6.8373556,-13.065669,10.5995455
0.68631977,-0.37004763,-0.27149183,-6.624327,-12.658587,10.2692995
0.6649376,-0.3585189,-0.26303357,-6.417948,-12.264213,9.949362
0.6442228,-0.34734994,-0.25483927,-6.218009,-11.882145,9.639409
0.6241543,-0.3365295,-0.24690066,-6.024309,-11.511999,9.339128
0.60471195,-0.32604662,-0.23920973,-5.8366528,-11.153401,9.048215
0.5858761,-0.31589076,-0.23175871,-5.6548495,-10.805989,8.7663765
0.5676277,-0.30605167,-0.22454008,-5.4787173,-10.469414,8.493329
0.54994845,-0.2965194,-0.21754658,-5.3080773,-10.143334,8.228796
0.53282046,-0.28728437,-0.21077114,-5.142759,-9.827423,7.9725127
0.5162265,-0.2783373,-0.20420697,-4.9825945,-9.521361,7.72422
0.50014985,-0.26966918,-0.19784744,-4.8274236,-9.224841,7.4836674
0.48457438,-0.26127124,-0.19168614,-4.67709,-8.937565,7.250614
0.4694844,-0.25313506,-0.1857169,-4.531442,-8.659243,7.0248246
0.4548647,-0.24525248,-0.17993371,-4.3903337,-8.389595,6.8060727
0.44070065,-0.23761554,-0.17433074,-4.253623,-8.128351,6.594138
0.426978,-0.2302166,-0.16890238,-4.1211724,-7.8752484,6.388808
0.41368294,-0.22304821,-0.16364317,-3.9928489,-7.630032,6.189876
0.40080214,-0.21610318,-0.15854782,-3.8685238,-7.3924565,5.9971423
0.38832262,-0.20937452,-0.15361123,-3.7480724,-7.162283,5.8104134
0.37623194,-0.2028555,-0.14882843,-3.6313736,-6.93928,5.6295023
0.3645179,-0.19653957,-0.14419465,-3.51831,-6.7232246,5.454227
0.35316876,-0.19042037,-0.1397052,-3.408769,-6.5138993,5.2844114
0.34217316,-0.1844918,-0.13535559,-3.3026397,-6.3110948,5.119886
0.33152002,-0.17874788,-0.13114147,-3.1998162,-6.114607,4.9604845
0.32119873,-0.17318287,-0.12705861,-3.1001956,-5.924239,4.8060484
0.3111989,-0.1677912,-0.12310291,-3.0036776,-5.7398005,4.6564226
0.30151048,-0.16256744,-0.11927041,-2.9101655,-5.561106,4.5114565
0.29212382,-0.15750636,-0.11555726,-2.819566,-5.387977,4.371005
0.28302947,-0.15260291,-0.111959755,-2.7317877,-5.2202396,4.2349277
0.27421835,-0.14785215,-0.108474284,-2.646743,-5.057726,4.1030884
0.2656816,-0.14324933,-0.105097346,-2.5643468,-4.900273,3.9753542
0.25741068,-0.13878985,-0.101825565,-2.4845164,-4.7477226,3.8515975
0.24939732,-0.13446923,-0.09865567,-2.4071717,-4.5999227,3.7316947
0.24163347,-0.13028315,-0.095584475,-2.3322353,-4.456725,3.6155255
0.23411137,-0.12622741,-0.092608914,-2.2596323,-4.3179865,3.5029736
0.22682348,-0.12229794,-0.08972599,-2.18929,-4.1835675,3.393926
0.21976252,-0.11849084,-0.086932845,-2.1211379,-4.0533338,3.2882738
0.2129214,-0.11480226,-0.08422666,-2.0551076,-3.9271553,3.1859112
0.20629327,-0.11122853,-0.081604734,-1.9911333,-3.8049052,3.0867355
0.19987151,-0.10776607,-0.079064436,-1.9291508,-3.6864612,2.9906478
0.1936497,-0.10441141,-0.076603234,-1.8690981,-3.571705,2.8975515
0.18762158,-0.10116119,-0.07421865,-1.810915,-3.4605215,2.8073537
0.18178114,-0.098012164,-0.07190831,-1.7545433,-3.3527997,2.719964
0.17612253,-0.094961174,-0.0696699,-1.6999267,-3.2484312,2.6352952
0.17064008,-0.09200516,-0.06750118,-1.6470104,-3.1473122,2.5532622
0.16532832,-0.08914118,-0.06539997,-1.5957415,-3.0493412,2.473783
0.16018192,-0.08636636,-0.06336418,-1.5460687,-2.9544203,2.3967783
0.15519574,-0.08367793,-0.06139176,-1.4979423,-2.8624544,2.3221707
0.15036479,-0.081073195,-0.059480745,-1.4513141,-2.7733514,2.2498858
0.14568421,-0.07854954,-0.057629224,-1.4061375,-2.6870222,2.1798513
0.14114936,-0.07610445,-0.055835344,-1.3623673,-2.6033807,2.111997
0.13675568,-0.073735476,-0.054097306,-1.3199595,-2.522343,2.0462546
0.13249877,-0.07144025,-0.052413374,-1.2788721,-2.4438279,1.9825592
0.12837437,-0.069216475,-0.05078186,-1.2390636,-2.3677568,1.9208466
0.124378376,-0.06706192,-0.04920114,-1.2004944,-2.294054,1.861055
0.12050676,-0.06497444,-0.047669623,-1.1631259,-2.2226455,1.8031248
0.11675568,-0.062951945,-0.04618578,-1.1269206,-2.1534598,1.7469978
0.11312136,-0.060992405,-0.04474813,-1.0918423,-2.086428,1.6926181
0.10960018,-0.059093866,-0.043355234,-1.057856,-2.0214827,1.6399311
0.1061886,-0.057254426,-0.042005695,-1.0249276,-1.9585592,1.5888842
