ax,ay,az,gx,gy,gz
-3.5891235,-3.6754882,-1.6918335,15.48105,-70.41337,6.7691526
-3.1602442,-3.3469698,-1.8248471,10.286106,-83.94629,7.1788416
-2.4637427,-3.6200547,-1.5195047,3.628531,-90.4874,11.032646
-1.6943754,-3.8829646,-1.1311163,4.48841,-90.34482,13.382152
-1.2298386,-3.8277254,-0.93812627,9.323161,-87.87357,15.341981
-1.0342562,-3.5331988,-0.85105765,13.638615,-85.41182,16.72217
-1.0048178,-3.1846306,-0.84905124,17.337019,-85.295235,17.201567
-1.0005682,-3.020809,-0.82353467,20.37398,-86.06629,17.195211
-0.96936244,-2.9873276,-0.7745696,23.85433,-87.266396,16.21585
-0.8511557,-2.9404337,-0.72683614,27.076157,-88.436745,14.980482
-0.66421753,-2.8571918,-0.69653696,29.919172,-88.40291,15.13173
-0.5183415,-2.8204741,-0.6963184,31.826933,-88.16419,17.456337
-0.40543976,-2.8505785,-0.6566105,33.88465,-87.432816,20.53887
-0.34587386,-2.90669,-0.6094939,36.92183,-86.50035,23.070415
-0.3045262,-2.9752152,-0.5806154,40.235954,-85.91257,24.541832
-0.225885,-3.0806332,-0.5446496,44.559086,-85.19557,25.574492
-0.095931515,-3.286661,-0.4866219,49.219612,-84.13671,27.200434
0.060273718,-3.4931204,-0.39437515,54.73871,-82.41315,29.560291
0.17293741,-3.583199,-0.29892418,60.86867,-80.71063,32.664654
0.31279713,-3.5135667,-0.18322767,65.375885,-79.11249,36.32777
0.5441367,-3.4209511,-0.009598033,69.46861,-76.35693,39.239513
0.781858,-3.305281,0.10636518,74.95714,-71.88447,39.309494
1.0214462,-3.044988,0.14236689,80.08052,-67.331856,37.57694
1.3369178,-2.6782696,0.18558128,83.906044,-62.48536,35.099884
1.7136643,-2.3155396,0.28245208,86.93192,-56.31157,32.77736
2.0804353,-1.9617738,0.37565458,89.13947,-47.653862,31.619576
2.4010987,-1.5345215,0.3593703,91.40274,-38.140133,29.937515
2.650849,-0.97514695,0.25154945,91.962585,-28.772837,27.258572
2.8468392,-0.4355069,0.12491795,90.993454,-19.879847,23.585112
2.9912689,0.009009278,0.0005033894,88.78628,-11.315605,19.568151
3.098274,0.34434548,-0.11465093,85.43021,-2.5508583,16.290651
3.1710148,0.6245165,-0.25365907,81.63627,6.5753736,13.703124
3.1787384,0.92605156,-0.4409294,77.49952,15.75802,11.278748
3.0678256,1.1991606,-0.6833867,73.46927,24.196878,8.864575
2.7898114,1.3802427,-0.9554897,68.60842,30.30414,7.1597667
2.4515874,1.457886,-1.1887352,63.419777,34.114246,5.9712353
2.0982287,1.4421941,-1.376155,58.703377,35.834248,4.468809
1.7903911,1.4147561,-1.5604281,54.2856,36.203503,2.2352333
1.5845454,1.4574465,-1.7459191,49.64968,35.808453,-0.7275996
1.4529253,1.5345107,-1.9331752,44.856987,35.356117,-3.6536782
1.2684602,1.5643619,-2.1254933,39.61763,34.106945,-4.7633204
1.0116429,1.540674,-2.2989838,34.200863,32.217907,-4.3976035
0.7309812,1.499685,-2.4595375,28.958591,29.50956,-3.351374
0.46334982,1.4893266,-2.6170008,23.66187,25.80798,-2.5378482
0.25518703,1.5385265,-2.7821703,17.68949,20.969625,-2.5814648
0.12045516,1.612595,-2.9410756,10.771288,15.025495,-2.8968735
0.024450565,1.6702507,-3.0539403,3.500111,8.787235,-2.3481777
-0.056473494,1.6639998,-3.1062465,-4.170742,2.6599867,-0.6515603
-0.07445918,1.5782183,-3.0869749,-11.773867,-2.834936,1.4828353
-0.020671042,1.4927377,-3.016217,-18.474693,-7.2086554,3.0239031
0.11560983,1.4933873,-2.9480467,-24.897999,-10.547399,3.5332897
0.41012752,1.5139141,-2.8547099,-31.74611,-11.418381,2.830899
0.7986152,1.3926824,-2.675891,-37.92406,-10.107137,2.124608
1.0878471,1.1322794,-2.4761188,-42.69024,-7.359068,1.755505
1.2705843,0.75663567,-2.2642636,-46.076107,-3.983292,1.1231146
1.436166,0.33215082,-2.0467758,-47.127728,0.40223956,-0.62807506
1.641188,-0.03627876,-1.8627024,-46.880585,5.7136755,-2.7649946
1.823104,-0.32834134,-1.7125796,-45.42617,11.757362,-4.5326643
1.9309753,-0.5483594,-1.5828301,-44.440624,18.015228,-5.6846676
1.9522462,-0.81293654,-1.4751499,-43.181927,24.229656,-6.0899496
1.8597611,-1.176058,-1.4051782,-39.854218,29.483482,-6.03288
1.7176409,-1.5542003,-1.3520728,-35.090733,33.68533,-5.833477
1.6217644,-1.865838,-1.3120929,-28.906946,37.44716,-5.9546547
1.5620563,-2.0969675,-1.2963226,-22.104296,41.222717,-6.0342436
1.4853188,-2.2866037,-1.3040341,-15.505758,44.94523,-5.5416155
1.3704865,-2.4599414,-1.347284,-9.63221,48.260418,-4.297561
1.1670622,-2.6615894,-1.4336762,-3.6372707,49.7574,-3.0096617
0.9451082,-2.850316,-1.53996,2.8991258,49.622227,-2.3920586
0.7611787,-2.951387,-1.6636219,9.68947,48.18559,-2.8692615
0.6499196,-2.9816353,-1.7938281,16.01712,46.21898,-3.696399
0.5975458,-3.0081377,-1.9158754,21.764706,44.45394,-3.088979
0.54112303,-3.0118535,-2.049103,27.348755,42.89688,-1.6264769
0.42197728,-2.9529858,-2.2230494,32.569885,40.528847,-0.2414064
0.28718755,-2.886352,-2.4117544,37.68682,37.181892,0.66249543
0.16166939,-2.770966,-2.6060812,42.082794,32.883278,1.2157537
0.07585892,-2.609673,-2.7943656,45.08334,27.948881,1.5287926
0.025662119,-2.3252306,-2.970754,46.392227,22.833952,1.8972474
-0.008405134,-2.0822248,-3.111495,46.06243,17.769766,2.8127325
-0.06853567,-1.9108124,-3.2192705,45.61813,12.814039,4.287862
-0.15175359,-1.7516001,-3.3137524,45.21516,8.072586,6.055849
-0.26139382,-1.6217865,-3.403514,45.128994,3.3534575,7.8878813
-0.37216076,-1.5097232,-3.4819467,44.749718,-1.9245534,9.858807
-0.426233,-1.3663437,-3.5395176,43.560844,-7.0271153,11.524419
-0.4337394,-1.2328151,-3.5678585,41.782677,-11.55722,12.837262
-0.4498655,-1.1258395,-3.5861173,40.038433,-15.516505,14.092692
-0.5170364,-1.0434483,-3.6036353,37.748158,-19.50253,15.666393
-0.6247141,-1.0590636,-3.6052787,35.575054,-23.769337,17.31436
-0.7278933,-1.1318046,-3.5885508,33.89243,-28.263897,19.053406
-0.7833922,-1.1822896,-3.5570548,32.728355,-32.556087,20.936132
-0.80951697,-1.1723773,-3.533611,31.626167,-36.658295,23.074608
-0.8174264,-1.0953339,-3.5242567,29.968151,-40.69338,25.39951
-0.8385814,-0.987916,-3.5125058,27.42425,-44.990414,27.606731
-0.84347767,-0.9134184,-3.473706,24.412586,-49.338615,29.415436
-0.8280046,-0.88408494,-3.4129152,21.519142,-53.511044,30.99885
-0.7805502,-0.8534263,-3.347164,18.736227,-57.3874,32.847256
-0.68821764,-0.77226174,-3.2876792,15.88467,-60.82451,35.20035
-0.55928135,-0.65445375,-3.2321658,12.4647665,-63.798283,37.82079
-0.40943688,-0.5478606,-3.1559613,8.399146,-66.6745,40.146877
-0.22856581,-0.52311736,-3.0352242,4.289947,-69.29038,41.476624
-0.038892653,-0.5987135,-2.887173,0.9221347,-71.545525,41.801624
0.17692162,-0.7258706,-2.7361577,-1.2188365,-73.054924,42.18692
0.46276826,-0.8069065,-2.598133,-2.7969801,-73.52772,43.21954
0.79701734,-0.8437179,-2.4671297,-4.119743,-72.74898,44.4884
1.1446507,-0.86457783,-2.3366497,-5.1056867,-70.4934,45.153503
1.441802,-0.9045072,-2.2093594,-5.691145,-67.314285,44.940548
1.6582696,-0.95707,-2.0968268,-5.6849623,-63.749233,44.52477
1.7316417,-0.9990307,-2.010816,-4.604973,-60.760593,44.700928
1.7625668,-0.9784724,-1.9291229,-3.7435315,-58.273045,45.145737
1.8220607,-0.9074992,-1.8362647,-3.171792,-55.671158,45.403378
1.8919481,-0.83129466,-1.7352742,-2.6845698,-52.551117,45.283672
1.9399403,-0.77001095,-1.6329544,-2.2696939,-48.88356,44.769943
1.9688144,-0.7401718,-1.5238587,-2.3054974,-44.35447,43.705162
1.9870895,-0.74334645,-1.4165231,-2.1974561,-38.920494,42.211315
1.950801,-0.7632865,-1.3331496,-1.6551836,-33.247387,40.79461
1.8438928,-0.76664394,-1.2911584,-0.49635643,-28.290035,39.562984
1.7864228,-0.74274945,-1.250916,-0.48088613,-27.4083,38.329895
1.7307487,-0.7196015,-1.211931,-0.46589923,-26.554115,37.135338
1.6768136,-0.6971767,-1.1741637,-0.4513805,-25.726614,35.978096
1.6245631,-0.67545223,-1.1375761,-0.4373152,-24.924955,34.856995
1.5739441,-0.65440613,-1.1021309,-0.4236891,-24.14833,33.7709
1.5249053,-0.63401705,-1.0677922,-0.4104884,-23.39595,32.718716
1.4773973,-0.61426437,-1.0345254,-0.3976997,-22.667055,31.699373
1.4313718,-0.5951282,-1.0022968,-0.38531014,-21.960909,30.71184
1.3867825,-0.5765891,-0.9710738,-0.3733072,-21.276794,29.755123
1.3435844,-0.5586284,-0.9408249,-0.36167872,-20.614023,28.828253
1.3017337,-0.54122794,-0.91151965,-0.35041296,-19.971928,27.930296
1.2611885,-0.52437025,-0.8831284,-0.33949858,-19.34986,27.060347
1.2219076,-0.5080383,-0.8556226,-0.3289246,-18.74719,26.217527
1.1838516,-0.49221554,-0.8289744,-0.31868035,-18.163315,25.40099
1.1469822,-0.47688615,-0.80315715,-0.30875546,-17.597643,24.609911
1.1112622,-0.4620347,-0.7781448,-0.29914004,-17.049606,23.843494
1.0766556,-0.4476462,-0.7539121,-0.2898243,-16.518654,23.10097
1.0431279,-0.43370616,-0.7304347,-0.28079897,-16.004251,22.38159
1.010645,-0.42020062,-0.7076891,-0.27205494,-15.505881,21.68463
0.9791745,-0.40711597,-0.6856523,-0.26358342,-15.023043,21.009392
0.9486847,-0.39443907,-0.6643023,-0.2553759,-14.555251,20.355194
0.9191449,-0.3821572,-0.6436175,-0.2474241,-14.1020355,19.721382
0.8905256,-0.370258,-0.62357724,-0.23972006,-13.662942,19.10732
0.8627979,-0.35872954,-0.6041614,-0.23225607,-13.237529,18.512388
0.8359341,-0.34756026,-0.5853504,-0.22502461,-12.825369,17.935993
0.80990714,-0.3367389,-0.5671254,-0.21801844,-12.426049,17.377552
0.784691,-0.32625467,-0.54946816,-0.21123052,-12.039168,16.836508
0.7602603,-0.316097,-0.5323609,-0.20465402,-11.664339,16.312319
0.73659056,-0.30625573,-0.5157866,-0.19828239,-11.301185,15.804456
0.7136581,-0.29672098,-0.49972844,-0.19210921,-10.949342,15.312411
0.69143987,-0.28748322,-0.48417047,-0.1861283,-10.608458,14.835691
0.66991365,-0.27853313,-0.46909702,-0.18033366,-10.27819,14.373819
0.6490578,-0.26986182,-0.45449305,-0.17471948,-9.958208,13.9263315
0.6288514,-0.2614605,-0.44034383,-0.16928016,-9.6481905,13.49278
0.6092743,-0.25332087,-0.42663527,-0.16401021,-9.347828,13.072729
0.59030694,-0.24543467,-0.4133536,-0.15890437,-9.056819,12.66576
0.5719301,-0.23779407,-0.40048552,-0.15395753,-8.774872,12.271462
0.55412555,-0.23039137,-0.38801813,-0.14916474,-8.501704,11.889443
0.53687537,-0.22321919,-0.37593895,-0.14452118,-8.237042,11.5193205
0.52016234,-0.21627033,-0.3642359,-0.14002219,-7.980622,11.160722
0.50396967,-0.20953783,-0.35289726,-0.1356633,-7.732185,10.813289
0.48828122,-0.20301497,-0.34191164,-0.13144013,-7.4914837,10.476673
0.4730812,-0.1966952,-0.33126804,-0.12734845,-7.2582765,10.150538
0.45835444,-0.19057219,-0.32095587,-0.12338417,-7.0323305,9.834558
0.44408622,-0.18463981,-0.31096476,-0.119543314,-6.8134193,9.528415
0.4302622,-0.17889214,-0.3012847,-0.11582204,-6.6013236,9.231804
0.4168686,-0.17332341,-0.29190603,-0.112216614,-6.3958316,8.9444275
0.40389198,-0.16792805,-0.28281933,-0.10872345,-6.196737,8.665998
0.39131933,-0.16270068,-0.27401552,-0.10533903,-6.0038404,8.396236
0.3791381,-0.15763603,-0.26548582,-0.102059975,-5.8169494,8.134874
0.36733612,-0.15272906,-0.25722164,-0.098883,-5.6358767,7.881648
0.35590157,-0.14797486,-0.24921477,-0.09580494,-5.460441,7.6363053
0.34482297,-0.14336866,-0.24145713,-0.09282269,-5.2904673,7.3986
0.33408928,-0.13890587,-0.23394102,-0.0899333,-5.1257844,7.1682954
0.3236897,-0.13458198,-0.2266589,-0.08713385,-4.9662285,6.9451604
0.3136139,-0.13039273,-0.21960345,-0.084421545,-4.81164,6.7289715
0.30385175,-0.12633386,-0.21276766,-0.08179367,-4.661864,6.5195127
0.2943935,-0.12240137,-0.20614466,-0.079247616,-4.51675,6.316574
0.28522968,-0.118591286,-0.19972783,-0.07678081,-4.3761535,6.119953
0.27635115,-0.114899814,-0.19351076,-0.074390806,-4.239934,5.929453
0.26774898,-0.11132325,-0.18748723,-0.072075196,-4.1079545,5.744883
0.25941458,-0.107858025,-0.1816512,-0.06983166,-3.980084,5.5660586
0.25133964,-0.104500666,-0.17599684,-0.06765798,-3.8561938,5.392801
0.24351609,-0.101247825,-0.1705185,-0.06555195,-3.73616,5.2249365
0.23593605,-0.09809624,-0.1652107,-0.06351149,-3.619863,5.062298
