ax,ay,az,gx,gy,gz
-3.9454906,2.0182002,-3.8327622,-4.8827715,-27.854797,83.6744
-4.08105,1.9299583,-3.9991624,-0.49176064,-40.14536,79.48892
-3.9947484,1.5211669,-4.1403337,8.08951,-54.450832,76.030426
-3.731397,1.1441224,-4.227893,18.585512,-66.79089,73.838806
-3.3775456,0.83906025,-4.3350525,27.467028,-76.95128,71.77007
-2.9326186,0.54497474,-4.3549023,34.385826,-83.97363,69.730896
-2.5537322,0.3107629,-4.386887,39.922955,-89.80309,68.31548
-2.251414,0.14541666,-4.4140453,46.587513,-95.67582,67.33925
-1.9633341,0.12906817,-4.335792,55.897167,-101.82719,65.98551
-1.5975847,0.39178538,-4.0861287,65.1253,-107.128815,64.28738
-1.1955137,0.9082706,-3.7099373,70.59624,-111.35197,61.456345
-0.8043341,1.657866,-3.2064636,72.69095,-114.49441,57.760258
-0.45101395,2.5721745,-2.6467848,71.86909,-116.457085,52.581806
-0.15530035,3.4995384,-2.1118307,67.32138,-117.99653,46.155422
0.09081025,4.299132,-1.6381153,59.947296,-119.540184,38.37477
0.29406124,4.9241576,-1.224406,50.906452,-120.70983,28.66196
0.5966422,5.2600493,-0.8474684,41.150143,-120.974846,18.930672
1.0074794,5.348494,-0.4738114,31.02643,-118.88638,10.514009
1.3828372,5.232417,-0.20060338,21.489008,-114.63997,2.8628318
1.6908982,4.893269,-0.063391246,13.058138,-109.054985,-4.6957536
1.9504968,4.3176465,-0.037362542,7.1482606,-102.47337,-11.717841
2.1862276,3.5090456,-0.104962185,3.2013116,-96.008965,-16.719177
2.4057527,2.6711876,-0.18886016,0.4066018,-89.759964,-18.749252
2.5562246,1.874184,-0.2981418,-0.9489324,-83.46331,-17.85028
2.577726,1.1722901,-0.46767163,-0.6841591,-77.76468,-14.962697
2.485946,0.6113676,-0.676424,1.8769057,-73.5336,-10.770892
2.3334863,0.24987322,-0.86011565,5.650904,-70.206116,-6.3531947
2.1598337,0.049582373,-1.0071207,10.370723,-67.49023,-2.0666575
1.9687233,-0.022833116,-1.1387188,15.483195,-65.23306,1.9150156
1.7676741,0.011471868,-1.2524289,20.981087,-63.69839,5.517778
1.5793326,0.16062886,-1.3216568,26.557976,-63.20388,8.749765
1.4385347,0.46015635,-1.320857,31.507193,-63.063465,11.540315
1.3172107,0.85579437,-1.2880858,34.767628,-63.224133,13.577313
1.1998959,1.310449,-1.2424128,36.048008,-63.832924,14.314594
1.0860353,1.7679876,-1.1911732,35.50377,-64.90944,13.642529
0.9723707,2.2075086,-1.147724,32.81555,-66.87241,11.375605
0.8546913,2.606326,-1.1314709,28.910374,-69.620346,8.175168
0.7603398,2.9452734,-1.1176258,24.497458,-72.85099,4.464171
0.7170177,3.2599227,-1.0993106,19.737602,-76.19225,0.719773
0.74626964,3.5750127,-1.0660976,14.748696,-79.18658,-2.9019825
0.85422516,3.8653452,-1.0505257,8.400699,-81.906,-6.5005713
1.1069645,3.9772863,-1.0331093,1.259681,-83.40584,-10.328709
1.0676008,3.8358545,-0.9963721,1.2148868,-80.43993,-9.961421
1.0299462,3.7005622,-0.9612296,1.1720372,-77.60278,-9.610077
0.9938971,3.571039,-0.92758566,1.1310148,-74.88661,-9.273716
0.9593592,3.446946,-0.8953522,1.0917122,-72.28431,-8.951455
0.92624605,3.3279712,-0.86444825,1.0540307,-69.78935,-8.642487
0.8944778,3.213829,-0.8347995,1.0178797,-67.39572,-8.346068
0.8639811,3.1042554,-0.80633754,0.98317575,-65.09791,-8.061514
0.83468825,2.9990072,-0.77899903,0.9498416,-62.890797,-7.7881923
0.8065365,2.8978589,-0.75272554,0.917806,-60.76966,-7.525518
0.7794677,2.8006015,-0.7274627,0.8870028,-58.73012,-7.2729483
0.75342786,2.7070413,-0.7031602,0.8573706,-56.768116,-7.0299797
0.72836685,2.6169977,-0.67977124,0.8288521,-54.879856,-6.7961435
0.70423776,2.5303028,-0.657252,0.8013942,-53.061813,-6.571003
0.68099695,2.4467993,-0.63556176,0.7749471,-51.3107,-6.354151
0.6586035,2.3663404,-0.6146624,0.7494643,-49.623436,-6.1452055
0.63701916,2.2887888,-0.5945182,0.7249022,-47.99713,-5.9438095
0.6162081,2.214015,-0.57509553,0.70122,-46.42909,-5.749628
0.59613645,2.1418984,-0.55636305,0.6783793,-44.916763,-5.5623465
0.5767726,2.0723248,-0.53829116,0.656344,-43.457764,-5.381669
0.5580866,2.0051863,-0.52085185,0.63508004,-42.04984,-5.207316
0.5400502,1.9403825,-0.50401884,0.6145554,-40.690865,-5.039025
0.5226369,1.8778169,-0.4877673,0.59473974,-39.378834,-4.8765473
0.5058214,1.8173995,-0.47207373,0.57560444,-38.111847,-4.719648
0.48957998,1.7590445,-0.4569159,0.5571223,-36.88811,-4.5681043
0.4738899,1.7026706,-0.44227263,0.5392676,-35.70592,-4.4217057
0.4587298,1.6482009,-0.42812398,0.52201605,-34.56366,-4.280252
0.44407928,1.595562,-0.41445094,0.50534433,-33.459797,-4.143553
0.42991897,1.5446845,-0.40123537,0.48923048,-32.392868,-4.011428
0.41623044,1.4955021,-0.38846013,0.4736535,-31.361485,-3.883705
0.40299615,1.4479517,-0.37610883,0.4585934,-30.364328,-3.76022
0.39019933,1.4019731,-0.36416578,0.44403112,-29.400133,-3.6408172
0.37782398,1.357509,-0.3526161,0.42994848,-28.467695,-3.5253472
0.3658549,1.3145045,-0.3414456,0.41632816,-27.565866,-3.4136677
0.35427746,1.2729071,-0.33064058,0.40315348,-26.693548,-3.3056426
0.34307772,1.2326669,-0.32018808,0.39040864,-25.849688,-3.2011416
0.33224234,1.1937357,-0.3100756,0.37807843,-25.033281,-3.1000404
0.32175854,1.1560677,-0.30029127,0.36614826,-24.243362,-3.0022194
0.311614,1.1196188,-0.29082358,0.3546042,-23.47901,-2.9075644
0.30179706,1.0843468,-0.2816616,0.3434329,-22.739336,-2.815966
0.29229638,1.0502112,-0.27279478,0.3326215,-22.023495,-2.7273183
0.28310117,1.017173,-0.26421306,0.3221577,-21.330667,-2.6415207
0.27420098,0.98519504,-0.2559067,0.3120297,-20.66007,-2.5584762
0.26558587,0.9542412,-0.24786636,0.30222604,-20.010952,-2.4780915
0.25724623,0.9242771,-0.24008313,0.29273584,-19.38259,-2.4002771
0.24917278,0.8952695,-0.23254833,0.2835486,-18.774284,-2.3249466
0.24135667,0.8671864,-0.22525369,0.27465418,-18.185368,-2.252017
0.23378931,0.83999723,-0.21819122,0.26604283,-17.615194,-2.1814086
0.22646248,0.8136721,-0.21135323,0.25770518,-17.063143,-2.1130445
0.21936822,0.78818274,-0.20473228,0.24963221,-16.528616,-2.0468504
0.2124989,0.76350147,-0.19832128,0.2418152,-16.011038,-1.9827551
0.20584713,0.7396019,-0.19211331,0.23424575,-15.5098505,-1.9206896
0.1994058,0.71645844,-0.18610173,0.22691578,-15.024519,-1.8605878
0.19316806,0.69404644,-0.18028016,0.21981747,-14.554527,-1.8023856
0.18712729,0.6723421,-0.17464241,0.21294332,-14.099376,-1.746021
0.18127708,0.65132254,-0.16918254,0.20628603,-13.658585,-1.6914349
0.1756113,0.63096553,-0.16389477,0.1998386,-13.231688,-1.6385694
0.17012398,0.6112498,-0.15877356,0.19359425,-12.818237,-1.5873691
0.16480938,0.5921546,-0.15381353,0.18754643,-12.417801,-1.5377803
0.15966195,0.5736601,-0.14900953,0.18168886,-12.029961,-1.4897513
0.15467632,0.55574685,-0.14435653,0.17601542,-11.654311,-1.4432322
0.14984731,0.5383964,-0.13984972,0.17052022,-11.2904625,-1.3981744
0.14516993,0.5215907,-0.1354844,0.16519754,-10.938039,-1.3545313
0.14063933,0.50531244,-0.13125607,0.1600419,-10.596674,-1.3122578
0.13625084,0.48954472,-0.12716037,0.15504797,-10.266017,-1.2713102
0.13199992,0.47427133,-0.12319308,0.1502106,-9.945725,-1.2316464
0.12788223,0.45947656,-0.119350106,0.14552481,-9.635471,-1.1932255
0.12389351,0.44514525,-0.115627505,0.14098582,-9.334935,-1.1560082
0.12002969,0.43126264,-0.112021476,0.13658895,-9.04381,-1.1199561
0.11628681,0.4178146,-0.108528316,0.1323297,-8.761798,-1.0850326
0.112661034,0.40478736,-0.105144456,0.12820372,-8.488609,-1.0512018
0.10914869,0.3921676,-0.10186644,0.12420681,-8.223966,-1.0184293
0.105746165,0.37994245,-0.098690934,0.12033488,-7.967598,-0.9866815
0.10245002,0.3680995,-0.0956147,0.116583996,-7.719245,-0.9559263
0.09925689,0.3566267,-0.09263461,0.11295034,-7.478654,-0.92613226
0.096163526,0.34551236,-0.08974763,0.10943022,-7.24558,-0.8972692
0.0931668,0.3347452,-0.08695084,0.10602006,-7.0197873,-0.8693077
0.090263665,0.32431433,-0.0842414,0.102716416,-6.8010464,-0.84221953
0.08745118,0.31420916,-0.08161656,0.09951592,-6.5891356,-0.8159772
0.0847265,0.3044195,-0.07907367,0.09641534,-6.3838406,-0.79055417
0.08208686,0.29493538,-0.07661015,0.09341154,-6.1849537,-0.76592463
0.079529606,0.28574723,-0.0742235,0.090501495,-5.9922733,-0.74206376
0.077052146,0.27684578,-0.071911335,0.08768224,-5.8056054,-0.7189474
0.07465198,0.26822206,-0.0696713,0.084950946,-5.6247616,-0.6965522
0.07232668,0.25986737,-0.06750115,0.08230485,-5.4495587,-0.6748557
0.07007391,0.25177324,-0.06539868,0.07974129,-5.2798204,-0.65383583
0.0678914,0.24393152,-0.06336178,0.07725768,-5.1153755,-0.63347155
0.06577694,0.23633434,-0.061388392,0.074851505,-4.9560585,-0.61374223
0.06372841,0.22897403,-0.059476536,0.07252036,-4.8017087,-0.5946281
0.061743736,0.22184318,-0.05762428,0.07026189,-4.652171,-0.5761098
0.059820935,0.21493463,-0.055829767,0.06807382,-4.507295,-0.5581688
0.05795807,0.20824142,-0.05409119,0.06595395,-4.366935,-0.54078704
0.056153264,0.2017568,-0.0524068,0.06390016,-4.230949,-0.523947
0.054404706,0.1954743,-0.050774902,0.061910365,-4.099201,-0.50763184
0.052710637,0.18938756,-0.04919386,0.059982583,-3.9715593,-0.491825
0.051069353,0.18349048,-0.04766208,0.058114868,-3.8478944,-0.4765108
0.049479213,0.17777716,-0.046178028,0.056305353,-3.728083,-0.4616737
0.04793861,0.17224184,-0.044740215,0.054552212,-3.6120043,-0.44729888
0.04644601,0.16687897,-0.0433472,0.05285369,-3.4995418,-0.43337193
0.044999905,0.16168316,-0.041997578,0.051208083,-3.390583,-0.41987884
0.04359885,0.15664922,-0.040689997,0.049613737,-3.2850184,-0.40680605
0.042241435,0.15177208,-0.03942315,0.048069056,-3.182742,-0.39414048
0.040926304,0.14704685,-0.03819576,0.046572488,-3.0836518,-0.38186944
0.039652135,0.1424688,-0.0370066,0.045122534,-2.9876475,-0.3699806
0.03841765,0.13803333,-0.035854477,0.04371774,-2.8946335,-0.35846204
0.037221614,0.13373601,-0.03473824,0.042356696,-2.8045163,-0.34730223
0.036062825,0.12957253,-0.033656765,0.041038044,-2.7172058,-0.33648995
0.034940124,0.1255387,-0.032608967,0.039760455,-2.6326141,-0.3260144
0.033852383,0.12163049,-0.031593803,0.03852265,-2.550657,-0.3158651
0.03279852,0.117843986,-0.030610248,0.037323393,-2.471252,-0.30603182
0.03177747,0.114175394,-0.029657323,0.036161482,-2.3943195,-0.29650477
0.030788217,0.110621035,-0.028734071,0.03503575,-2.3197827,-0.2872744
0.029829767,0.107177354,-0.027839568,0.033945072,-2.247567,-0.2783314
0.02890116,0.1038409,-0.026972916,0.032888357,-2.1775997,-0.26966688
0.028001467,0.100608334,-0.026133249,0.031864543,-2.109811,-0.26127216
0.027129786,0.09747642,-0.025319725,0.030872606,-2.044133,-0.2531388
0.026285248,0.09444202,-0.024531532,0.029911553,-1.9805,-0.2452587
0.025467003,0.09150209,-0.023767881,0.028980423,-1.9188482,-0.23762394
0.024674233,0.0886537,-0.023028003,0.028078284,-1.8591158,-0.23022689
0.023906147,0.08589399,-0.022311162,0.027204232,-1.8012432,-0.22306013
0.023161974,0.0832202,-0.02161664,0.026357394,-1.7451724,-0.2161165
0.022440968,0.080629654,-0.020943739,0.025536919,-1.6908473,-0.20938905
0.021742411,0.078119755,-0.020291787,0.024741987,-1.6382134,-0.20287104
0.0210656,0.075688,-0.019660132,0.023971803,-1.5872182,-0.19655596
0.02040986,0.073331945,-0.019048143,0.023225598,-1.5378104,-0.19043747
0.019774534,0.07104924,-0.018455205,0.022502623,-1.4899409,-0.18450946
0.019158987,0.068837605,-0.017880727,0.021802157,-1.4435617,-0.178766
0.018562604,0.06669482,-0.017324133,0.021123495,-1.3986262,-0.17320135
0.017984785,0.06461874,-0.016784865,0.020465963,-1.3550897,-0.16780992
0.017424956,0.06260728,-0.016262388,0.019828897,-1.3129085,-0.16258633
0.016882554,0.06065845,-0.015756173,0.019211665,-1.2720404,-0.15752536
0.016357036,0.058770284,-0.015265717,0.018613648,-1.2324445,-0.15262194
0.015847877,0.056940895,-0.014790529,0.018034246,-1.1940813,-0.14787115
0.015354569,0.055168454,-0.014330134,0.017472882,-1.1569122,-0.14326826
0.014876617,0.05345119,-0.01388407,0.016928991,-1.1209003,-0.13880865
0.014413544,0.051787384,-0.013451893,0.016402032,-1.0860094,-0.13448788
0.013964886,0.05017537,-0.013033168,0.015891477,-1.0522045,-0.13030161
0.013530194,0.048613537,-0.012627479,0.015396816,-1.0194521,-0.12624565
0.013109034,0.04710032,-0.012234418,0.0149175525,-0.9877191,-0.122315936
