ax,ay,az,gx,gy,gz
-0.28272983,-3.1282103,-2.7836616,15.70287,-73.90886,11.930109
-0.3805343,-3.395408,-2.9505863,15.607639,-82.31571,21.978746
-0.47698826,-3.743972,-3.0841875,20.68243,-86.12916,31.365505
-0.41995093,-3.904083,-3.0461965,25.555466,-88.68222,39.555176
-0.2435674,-3.9646401,-2.8869302,29.774014,-90.091545,47.695274
-0.014766443,-3.9365666,-2.6324184,34.846443,-90.03039,54.923
0.19629383,-3.7415202,-2.3461905,39.716805,-88.758064,60.638943
0.3189066,-3.3603108,-2.1025007,42.94807,-87.283745,63.97914
0.36478662,-2.8926992,-1.903789,43.718964,-86.30894,65.960625
0.36175224,-2.5311913,-1.7571169,42.050835,-85.92917,67.59151
0.34321356,-2.2960265,-1.6337961,39.54044,-85.96982,69.51909
0.34534898,-2.123804,-1.4976056,38.289803,-86.103714,71.11765
0.40552598,-1.8991133,-1.3180645,38.004345,-85.42497,71.669624
0.48536417,-1.5891284,-1.1242962,36.91081,-84.19881,71.57236
0.5224533,-1.3039355,-0.96973586,34.952923,-82.78563,70.97411
0.5368062,-1.0675198,-0.8440509,32.98617,-81.26524,69.64362
0.55436707,-0.8663781,-0.7283291,31.614578,-79.6685,67.738045
0.5822502,-0.663192,-0.6182649,30.533514,-78.06792,65.65411
0.63125706,-0.42370766,-0.48895845,29.451353,-76.36251,63.37223
0.69132453,-0.16353676,-0.34425113,28.22716,-74.42809,60.756233
0.751114,0.10522021,-0.19614431,26.615265,-72.3047,57.8785
0.8054935,0.35850558,-0.061315063,24.483429,-70.1045,54.874928
0.86505,0.57706213,0.05811453,21.977877,-67.735535,51.62142
0.92529005,0.7551059,0.14857017,19.538258,-65.42178,48.15941
0.9796247,0.90160924,0.21568495,17.134645,-63.232883,44.62523
1.0291611,1.0188025,0.26471096,14.927022,-61.02451,40.909485
1.0715694,1.10783,0.29525238,12.88351,-58.804424,37.110703
1.0896732,1.1774045,0.30434966,10.882459,-56.603653,33.243305
1.0827109,1.2369444,0.29946837,8.965579,-54.55245,29.27267
1.0580336,1.2895333,0.2854368,7.0596547,-52.698315,25.1625
1.0265155,1.3272816,0.2603213,5.212688,-51.064358,21.011257
0.99447215,1.3511546,0.22812313,3.3615096,-49.639736,16.895544
0.9644378,1.361994,0.19045876,1.42673,-48.32975,12.806972
0.9252921,1.3547045,0.14390422,-0.46454638,-47.206978,8.800582
0.88267857,1.3413178,0.098354295,-2.4162254,-46.257805,4.9625964
0.84426683,1.3240283,0.059188798,-4.563673,-45.423325,1.3540459
0.8132424,1.2967572,0.02854555,-6.8472857,-44.670273,-2.1137364
0.78214025,1.2470622,0.0022529927,-8.678479,-43.947495,-5.752722
0.73801255,1.1709356,-0.038146578,-9.997518,-43.521145,-9.347351
0.698777,1.0933089,-0.07558454,-11.078163,-43.268837,-12.699174
0.6746721,1.0033267,-0.09587475,-12.453754,-43.156315,-15.653549
0.6674738,0.8890657,-0.1018697,-14.233648,-43.081726,-18.021448
0.687655,0.7526199,-0.08615685,-16.366722,-42.919262,-19.84402
0.73732793,0.5713081,-0.040405575,-18.286644,-42.393585,-21.490585
0.7887328,0.36356676,0.013615058,-19.819206,-41.542095,-22.793509
0.83447295,0.14024419,0.07235577,-21.007542,-40.423008,-23.594269
0.87487483,-0.09333375,0.13971864,-21.725525,-39.03198,-23.934345
0.9119894,-0.3218831,0.2174815,-21.759117,-37.285053,-23.772858
0.9461523,-0.5224984,0.3120429,-21.564537,-35.23141,-23.17669
0.96940565,-0.70092106,0.4023631,-21.152071,-32.921516,-22.281214
0.9835237,-0.86254483,0.48643297,-20.490137,-30.415459,-21.12625
0.99404454,-1.0009353,0.5680742,-19.63038,-27.743624,-19.745308
1.0068715,-1.1129518,0.6470797,-18.507652,-24.761478,-18.164036
1.0142933,-1.1996027,0.7126046,-16.998768,-21.73712,-16.601585
1.01541,-1.2698796,0.76982915,-15.030397,-18.770634,-15.036583
1.0149014,-1.3168775,0.823066,-13.055911,-15.911339,-13.370092
1.0174037,-1.3404589,0.87215865,-11.215632,-13.126177,-11.597778
1.0264031,-1.3426397,0.9188548,-9.793892,-10.139613,-9.757458
1.038837,-1.3280154,0.9546653,-8.722205,-6.964933,-7.93321
1.044119,-1.3034551,0.9737639,-7.9212003,-3.7300975,-6.1260962
1.042686,-1.2760252,0.97432375,-7.330828,-0.56966543,-4.329173
1.0383549,-1.2562295,0.95701295,-6.763099,2.4761784,-2.595154
1.0331079,-1.2453309,0.92608404,-5.9231787,5.4279547,-0.95887905
1.0196909,-1.2312618,0.87877953,-4.842648,8.19906,0.5303331
1.0022945,-1.2093427,0.824026,-3.6931686,10.798419,1.9153932
0.9807078,-1.1818784,0.76099503,-2.5065076,13.203216,3.2159271
0.9636997,-1.1412455,0.6976683,-1.4344535,15.497045,4.4527583
0.9463383,-1.0928036,0.6300504,-0.4786825,17.662628,5.5423717
0.9179354,-1.0365047,0.55522007,0.42547995,19.683302,6.447235
0.88592297,-0.9726192,0.47740903,1.0794647,21.58576,7.2322826
0.84294176,-0.90630907,0.38878593,1.5289956,23.253822,7.8901153
0.7901311,-0.8420403,0.29257923,1.8044729,24.695759,8.403865
0.7288731,-0.77945143,0.19151892,1.999143,25.816753,8.7766
0.65142804,-0.71058303,0.08360667,2.1602843,26.612373,8.982192
0.57456124,-0.6365307,-0.030298589,2.1846683,27.082193,8.9934635
0.5024564,-0.56597745,-0.14743851,2.0479412,27.167723,8.929051
0.43709815,-0.5084427,-0.26562524,1.6146568,26.928232,8.970938
0.37765607,-0.4679079,-0.3885576,0.93137205,26.241613,9.107851
0.3249705,-0.44891486,-0.51415944,0.5110197,25.313412,9.118963
0.28212443,-0.4386708,-0.63418275,0.39291394,24.282484,9.045062
0.23508568,-0.42711937,-0.7510868,0.45359254,23.104078,8.940846
0.18052754,-0.4111236,-0.8708353,0.5430725,21.64279,8.841908
0.12473489,-0.38960207,-0.98871577,0.545178,19.713882,8.780724
0.067871645,-0.36396104,-1.0999528,0.3879503,17.459269,8.700408
0.009813444,-0.34652475,-1.204171,0.17056407,14.971948,8.553606
-0.037815973,-0.33624017,-1.3010062,-0.124183156,12.320765,8.455585
-0.07582789,-0.33004996,-1.3941226,-0.5072203,9.530098,8.421986
-0.10136706,-0.32691157,-1.4821695,-0.9814388,6.520122,8.410537
-0.11963458,-0.32252485,-1.556315,-1.4271765,3.4337199,8.359257
-0.14167768,-0.31990722,-1.6213659,-1.8816873,0.2617983,8.267518
-0.16392952,-0.3230741,-1.6832867,-2.4135566,-3.0293145,8.186336
-0.18112318,-0.33587927,-1.7420543,-2.8826873,-6.3881197,8.170793
-0.19373427,-0.34649462,-1.7935767,-3.3503268,-9.925217,8.32772
-0.20428792,-0.33818683,-1.818154,-4.0247173,-13.562411,8.54652
-0.2095655,-0.33089235,-1.8275962,-4.8687363,-17.269838,8.706854
-0.20613916,-0.33489853,-1.8268583,-5.724288,-20.965178,8.766682
-0.192973,-0.34837615,-1.8221108,-6.442176,-24.646978,8.706323
-0.1745335,-0.36771113,-1.8085427,-7.0572968,-28.392025,8.592545
-0.14305113,-0.3913741,-1.7702794,-7.6454177,-32.055355,8.539564
-0.10628055,-0.41338634,-1.7146642,-8.093005,-35.582386,8.495873
-0.057829943,-0.42827225,-1.6439328,-8.417856,-38.924145,8.476451
0.005397702,-0.42910686,-1.5591247,-8.791575,-42.086536,8.467163
0.08455933,-0.43078938,-1.4619015,-9.267881,-44.911373,8.364787
0.17587498,-0.45214656,-1.3459122,-9.6816,-47.3065,8.261818
0.26866308,-0.4841936,-1.2241688,-10.015673,-49.245495,8.230646
0.350459,-0.5176069,-1.1107062,-10.183092,-50.868458,8.215679
0.42641467,-0.5413306,-0.996776,-10.227204,-52.278675,8.239275
0.49671465,-0.5554826,-0.8792413,-10.1918545,-53.469543,8.1993065
0.5612256,-0.57829905,-0.75509536,-9.959645,-54.402283,8.133953
0.62446505,-0.59846747,-0.62632275,-9.437748,-55.0774,8.042078
0.6899036,-0.598297,-0.48892054,-8.755192,-55.501102,7.954982
0.7588133,-0.5802348,-0.34624556,-8.088287,-55.673645,7.8401484
0.8276564,-0.5563153,-0.20164235,-7.598281,-55.408848,7.7136927
0.88493234,-0.54851216,-0.06826322,-7.1178927,-54.853626,7.5645695
0.9349006,-0.5463454,0.058857825,-6.4793706,-54.06462,7.395359
0.9897277,-0.53290135,0.19110684,-5.796132,-53.028244,7.1876774
1.0476099,-0.50762945,0.32773173,-5.1323404,-51.611465,6.9769793
1.1054914,-0.4722712,0.46501237,-4.512096,-49.693066,6.6701508
1.1624378,-0.43608528,0.6000933,-3.9492695,-47.3458,6.2816353
1.219413,-0.40177706,0.7306447,-3.2100558,-44.50131,5.507762
1.2777253,-0.36464533,0.8586159,-2.256195,-41.047718,4.0563397
1.328267,-0.32823646,0.97231156,-1.0715915,-37.173286,2.2109702
1.3763278,-0.2853625,1.0823033,-0.59328043,-32.80752,0.5696106
1.4279666,-0.24351485,1.189299,-0.8314867,-28.089342,-0.8399172
1.4850032,-0.20627467,1.28953,-1.36454,-22.843405,-2.1769366
1.5372703,-0.17019616,1.3678521,-1.7383986,-17.485445,-3.240317
1.5740466,-0.13477573,1.4131758,-1.8249441,-12.640585,-3.827587
1.5935737,-0.10569243,1.4460604,-2.446774,-8.4087715,-3.8718581
1.6204026,-0.09807155,1.4752411,-3.1993623,-4.255691,-3.739871
1.6505682,-0.11498031,1.491148,-3.7764425,-0.13894908,-3.50745
1.5991652,-0.111399524,1.4447098,-3.6588342,-0.13462184,-3.398219
1.5493646,-0.10793036,1.3997191,-3.5448923,-0.1304295,-3.292393
1.5011163,-0.10456934,1.356131,-3.4345016,-0.12636784,-3.1898656
1.4543718,-0.10131306,1.3139012,-3.3275518,-0.12243276,-3.0905337
1.4090841,-0.09815827,1.2729876,-3.2239351,-0.11862032,-2.9942975
1.3652076,-0.09510179,1.233349,-3.1235473,-0.11492669,-2.90106
1.3226982,-0.09214055,1.1949455,-3.0262876,-0.111348145,-2.810728
1.2815136,-0.089271575,1.1577384,-2.9320583,-0.10788111,-2.7232106
1.241612,-0.086491995,1.1216909,-2.8407648,-0.104522094,-2.63842
1.2029535,-0.083799005,1.0867661,-2.7523158,-0.10126772,-2.5562708
1.1654993,-0.08118991,1.0529295,-2.666622,-0.09811474,-2.476681
1.1292119,-0.07866209,1.020147,-2.5835977,-0.09505997,-2.3995705
1.0940549,-0.07621301,0.98838556,-2.5031595,-0.09210036,-2.3248618
1.0599929,-0.073840216,0.95761347,-2.425227,-0.08923293,-2.2524803
1.0269918,-0.07154133,0.9277998,-2.3497217,-0.086454816,-2.1823533
0.99501866,-0.06931405,0.89891475,-2.276568,-0.083763234,-2.1144104
0.96404123,-0.06715612,0.8709293,-2.2056928,-0.08115547,-2.0485835
0.93402857,-0.06506541,0.8438154,-2.1370249,-0.07862893,-1.9848067
0.90495056,-0.06303981,0.8175459,-2.0704954,-0.07618107,-1.9230161
0.8767781,-0.06107728,0.79209447,-2.0060377,-0.07380944,-1.8631496
0.84948295,-0.059175875,0.7674356,-1.9435873,-0.07151166,-1.8051475
0.82303774,-0.057333674,0.74354464,-1.8830817,-0.06928544,-1.7489517
0.79741603,-0.05554884,0.7203976,-1.82446,-0.06712853,-1.6945056
0.7725921,-0.05381958,0.6979713,-1.7676638,-0.06503879,-1.6417549
0.7485412,-0.052144162,0.6762433,-1.7126361,-0.06301412,-1.5906467
0.7252391,-0.050520916,0.65519184,-1.6593218,-0.061052494,-1.54113
0.7026625,-0.04894821,0.63479584,-1.6076674,-0.059151944,-1.4931549
0.68078893,-0.047424473,0.61503494,-1.5576214,-0.057310566,-1.4466735
0.6595964,-0.045948174,0.5958892,-1.5091335,-0.05552652,-1.4016395
0.6390636,-0.04451784,0.57733965,-1.4621552,-0.05379802,-1.3580074
0.6191701,-0.04313204,0.55936754,-1.4166397,-0.052123338,-1.3157338
0.599896,-0.041789386,0.54195505,-1.3725412,-0.05050079,-1.2747765
0.58122194,-0.04048853,0.5250846,-1.3298156,-0.04892876,-1.2350941
0.5631293,-0.039228175,0.5087394,-1.2884202,-0.04740567,-1.1966473
0.5455999,-0.03800706,0.49290308,-1.2483134,-0.045930002,-1.1593974
0.5286162,-0.03682396,0.47755978,-1.2094554,-0.04450027,-1.1233071
0.51216125,-0.03567769,0.4626941,-1.171807,-0.04311505,-1.0883404
0.49621853,-0.034567103,0.44829124,-1.1353307,-0.041772954,-1.0544622
0.48077217,-0.033491094,0.43433678,-1.09999,-0.040472638,-1.0216388
0.46580666,-0.032448582,0.4208167,-1.0657494,-0.039212804,-0.9898371
0.45130703,-0.031438522,0.40771753,-1.0325748,-0.037992187,-0.95902544
0.43725878,-0.030459905,0.39502612,-1.0004328,-0.03680957,-0.929173
0.42364785,-0.029511755,0.3827298,-0.9692915,-0.03566377,-0.90024984
0.41046065,-0.02859312,0.3708163,-0.93911964,-0.034553632,-0.8722271
0.39768395,-0.02770308,0.3592736,-0.909887,-0.03347806,-0.8450766
0.385305,-0.02684075,0.3480903,-0.8815644,-0.032435965,-0.8187714
0.37331137,-0.02600526,0.33725506,-0.85412335,-0.03142631,-0.793285
0.3616911,-0.025195781,0.32675713,-0.82753664,-0.030448088,-0.768592
0.35043257,-0.0244115,0.31658602,-0.8017775,-0.029500315,-0.74466765
0.33952448,-0.023651632,0.3067315,-0.7768202,-0.028582046,-0.72148806
