ax,ay,az,gx,gy,gz
-1.3400122,-1.1791017,-0.38273075,5.437322,-49.938637,-6.3255124
-1.9122431,-1.173812,-0.838838,7.9357615,-60.111378,-6.9175167
-2.3565178,-1.0959898,-1.2218419,9.237227,-61.199036,-6.3191695
-2.6721928,-1.002231,-1.7416072,9.590674,-61.353252,-7.521378
-2.9294443,-1.0499339,-2.418648,10.420023,-62.615185,-9.036036
-3.1605601,-1.2460504,-3.1927025,12.099577,-66.02027,-9.459849
-3.372002,-1.4990987,-4.018993,14.893808,-74.29014,-7.743861
-3.445516,-1.7406156,-4.8164682,17.700827,-84.64334,-4.968301
-3.3594527,-1.9640478,-5.467695,20.699453,-95.82961,-2.0355418
-3.1035078,-2.2124033,-5.9480457,24.45405,-106.94638,0.5594621
-2.6890385,-2.4448078,-6.2091193,28.742935,-117.01625,3.6213667
-2.1687562,-2.5944724,-6.245982,33.02889,-125.62844,7.4897847
-1.5732996,-2.593633,-6.0106955,36.619633,-132.11507,12.501566
-1.0345533,-2.4919364,-5.6517944,39.158253,-136.97859,17.162355
-0.5608575,-2.3523183,-5.2021885,41.05866,-140.65378,21.321106
-0.16255206,-2.2144856,-4.6972914,42.652275,-143.06502,24.986479
0.16569129,-2.0843031,-4.1841054,44.092762,-144.14006,28.186575
0.43432948,-1.9572548,-3.6765854,45.224216,-144.17117,31.045687
0.65926296,-1.8466513,-3.224323,46.667202,-143.44409,33.425625
0.8581822,-1.7049178,-2.79648,48.398293,-142.0202,35.65364
1.0452772,-1.4713905,-2.3715725,49.989098,-139.93474,37.653778
1.218227,-1.1377927,-1.9527546,51.069122,-136.92036,38.439526
1.3774675,-0.731083,-1.5267557,51.161953,-133.15105,38.59654
1.5134777,-0.30197302,-1.1241761,50.120045,-128.68417,37.905285
1.6281221,0.112532675,-0.7623034,48.546307,-123.88526,36.378162
1.7234627,0.49292392,-0.44269952,46.114365,-118.53695,34.15284
1.7981869,0.82946014,-0.18164574,42.80125,-112.691124,31.309608
1.8451726,1.1069156,-0.0041578542,39.20717,-106.738815,27.990213
1.8701854,1.3364067,0.11388709,35.439674,-100.78597,24.32465
1.8815304,1.534665,0.18665192,31.483929,-94.94816,20.51603
1.8830823,1.7207974,0.22766711,27.290796,-89.25401,16.456081
1.8806375,1.8892992,0.24330527,22.855001,-83.61573,11.872575
1.8695263,2.0310404,0.22628427,18.41799,-78.127144,6.9224753
1.8648559,2.157093,0.19569534,13.91152,-72.850395,1.8540419
1.876046,2.2909155,0.17248374,9.007511,-67.7813,-2.8969378
1.9128976,2.4801276,0.17139256,2.9338493,-62.80436,-7.1046224
1.9869577,2.6979795,0.16960005,-5.272991,-57.407135,-11.529058
2.063085,2.7716768,0.083847396,-13.944377,-51.83799,-16.675188
2.1039155,2.665706,-0.0798142,-21.812658,-46.751225,-22.259268
2.1006644,2.4158266,-0.26480708,-28.136717,-42.29663,-27.254723
2.081777,2.1182222,-0.42553097,-33.31656,-38.283646,-30.826818
2.065966,1.8500065,-0.5536074,-37.40885,-34.43197,-33.22624
2.0498586,1.6253031,-0.65848756,-40.9273,-30.663864,-35.554268
2.0237987,1.3853477,-0.756628,-43.873215,-26.960299,-37.994335
1.9854447,1.1112432,-0.8450534,-46.490543,-23.314276,-39.84542
1.9265976,0.81989163,-0.9368955,-48.359756,-19.950476,-40.726
1.8407704,0.5402126,-1.028746,-49.07956,-17.070896,-40.919292
1.7469393,0.2871558,-1.1001285,-49.24259,-14.572062,-40.799103
1.6552275,0.03444293,-1.1487769,-49.043255,-12.400077,-40.336197
1.5625926,-0.22907804,-1.1771625,-48.502064,-10.400724,-39.479763
1.4690468,-0.49521744,-1.1947627,-47.479652,-8.489543,-38.117325
1.3685278,-0.7573948,-1.2161831,-45.72841,-6.9796476,-36.30954
1.2790123,-1.0140822,-1.2206202,-43.450394,-5.857479,-34.02404
1.2071978,-1.2579284,-1.2051656,-40.858055,-4.9297333,-31.2641
1.1576985,-1.4781302,-1.1687196,-37.931458,-4.012239,-28.097258
1.1292943,-1.6626036,-1.1184678,-34.707733,-3.0096817,-24.642136
1.1163943,-1.8140773,-1.0607752,-31.075682,-1.8369418,-20.891493
1.1237226,-1.921963,-0.99936616,-27.19083,-0.4665466,-17.022346
1.1403277,-1.9928243,-0.93858886,-23.427177,1.1059858,-12.893006
1.1599258,-2.0276504,-0.8860298,-19.934454,2.8194785,-8.554537
1.1886101,-2.0244136,-0.83659077,-16.773037,4.7738895,-4.1291327
1.2228022,-1.9861063,-0.79662544,-13.706478,6.9031243,-0.058377422
1.2499235,-1.9180406,-0.7742734,-10.787969,9.031305,3.7643275
1.2591478,-1.8410733,-0.76691294,-8.001743,11.064337,7.3979125
1.2562151,-1.7555194,-0.77364016,-5.207125,12.964701,10.8596115
1.2469287,-1.6484511,-0.7906053,-2.3471966,14.676735,14.150228
1.2324132,-1.5079061,-0.8054562,0.13201171,16.305231,16.926188
1.2017208,-1.3422608,-0.83205795,2.2404594,17.81234,19.26669
1.1557083,-1.1823432,-0.8754906,3.972013,19.068003,21.17373
1.0932194,-1.0376934,-0.93134075,5.462661,20.090902,22.721146
1.0206177,-0.8944878,-1.0002631,6.837577,20.788227,23.939108
0.9435891,-0.7424893,-1.0722082,7.846656,20.990854,24.778986
0.8680271,-0.58201975,-1.139965,8.432817,21.012325,25.319761
0.78692997,-0.4263599,-1.211865,8.709318,20.862745,25.51558
0.69804084,-0.28173384,-1.2930626,8.833649,20.598202,25.372402
0.5925039,-0.15047927,-1.3916028,8.807141,20.07577,25.006006
0.47258028,-0.026225476,-1.5050739,8.5711775,19.039791,24.402641
0.33508167,0.08931181,-1.6355721,8.225308,17.518955,23.556768
0.19238861,0.1974716,-1.7701349,7.846358,15.4427185,22.405155
0.051003296,0.30531517,-1.9015408,7.3295655,12.923739,21.069515
-0.0837061,0.40740833,-2.0278215,6.5756354,10.03424,19.627012
-0.21017194,0.49897182,-2.1579986,5.6923084,6.6902313,17.93315
-0.33467954,0.570132,-2.3083706,4.898819,2.9564064,16.094076
-0.4607565,0.6313379,-2.470328,4.1442156,-1.3253542,14.218066
-0.5811302,0.6848652,-2.6329737,3.4866412,-6.1795096,12.35803
-0.68895704,0.74164236,-2.7912984,2.926773,-11.614405,10.44056
-0.7822319,0.8074347,-2.942466,2.329227,-17.81636,8.252914
-0.8446161,0.8744236,-3.0924232,1.6147763,-24.684086,5.746342
-0.85083616,0.9254851,-3.2173533,0.7259769,-32.079567,3.003786
-0.7793246,0.97025394,-3.2916794,-0.50566363,-39.78132,-0.018867804
-0.6321431,1.0089655,-3.2939448,-1.950604,-47.232857,-3.6166766
-0.43222925,1.0188618,-3.23755,-4.047347,-53.796394,-7.429149
-0.23385747,0.9357264,-3.1707957,-6.150276,-59.6515,-10.691001
-0.05255726,0.7855969,-3.1172304,-7.9441323,-65.34618,-13.389386
0.1411249,0.60189235,-3.0360472,-8.951929,-70.69859,-15.538518
0.35893145,0.42892954,-2.9035459,-9.424016,-75.483086,-17.136883
0.579433,0.27683625,-2.7295802,-9.310655,-79.2408,-18.316572
0.7929837,0.1456961,-2.5187795,-9.088319,-82.141785,-18.995504
0.9924961,0.025123568,-2.299089,-8.785275,-84.36398,-19.193438
1.189165,-0.080157675,-2.0632899,-8.520355,-85.84127,-18.961845
1.3772428,-0.17688029,-1.8174174,-8.218013,-86.402824,-18.529745
1.5425465,-0.27939948,-1.5771816,-7.5935516,-85.839386,-17.954943
1.6784303,-0.37613794,-1.3440245,-6.615223,-84.569565,-17.278156
1.7922868,-0.44430572,-1.1155038,-5.398981,-82.663284,-16.394007
1.8882453,-0.4761293,-0.8931243,-4.3999834,-80.38252,-15.200419
1.9601314,-0.47933927,-0.6918864,-3.897008,-77.80001,-13.804313
2.0092971,-0.48004624,-0.517861,-3.7163959,-74.83762,-12.427234
1.9466177,-0.46507135,-0.5017065,-3.6004639,-72.50308,-12.03957
1.8859017,-0.45056552,-0.486058,-3.4881635,-70.24167,-11.664049
1.8270868,-0.4365139,-0.47089946,-3.3793793,-68.05107,-11.300286
1.7701128,-0.4229021,-0.45621544,-3.2740002,-65.92903,-10.94791
1.7149215,-0.40971622,-0.44199085,-3.1719186,-63.873398,-10.60656
1.6614567,-0.3969428,-0.42821124,-3.07303,-61.882065,-10.275887
1.6096637,-0.3845688,-0.4148625,-2.9772336,-59.953,-9.955554
1.5594898,-0.37258163,-0.40193108,-2.884432,-58.084244,-9.645236
1.5108842,-0.36096913,-0.38940382,-2.7945309,-56.27389,-9.344616
1.4637971,-0.34971943,-0.37726796,-2.707439,-54.520103,-9.053389
1.4181811,-0.3388212,-0.3655112,-2.6230674,-52.821102,-8.771259
1.3739896,-0.3282633,-0.35412166,-2.541331,-51.175163,-8.497942
1.3311781,-0.31803513,-0.34308776,-2.4621468,-49.58062,-8.233158
1.2897031,-0.3081262,-0.3323983,-2.3854346,-48.03586,-7.976641
1.2495228,-0.29852661,-0.32204252,-2.311117,-46.53931,-7.728131
1.2105963,-0.28922662,-0.3120099,-2.2391188,-45.08947,-7.4873757
1.1728845,-0.28021678,-0.30229035,-2.169367,-43.684868,-7.2541337
1.1363492,-0.27148807,-0.29287404,-2.1017914,-42.32409,-7.0281677
1.1009537,-0.2630316,-0.28375146,-2.0363238,-41.005756,-6.809251
1.0666621,-0.2548389,-0.2749134,-1.972898,-39.728542,-6.5971622
1.03344,-0.24690174,-0.26635095,-1.9114504,-38.49116,-6.3916874
1.0012537,-0.23921205,-0.25805554,-1.8519187,-37.292366,-6.1926203
0.9700711,-0.23176211,-0.25001875,-1.7942432,-36.130947,-5.9997597
0.9398605,-0.22454445,-0.24223252,-1.7383659,-35.005733,-5.8129115
0.9105918,-0.21755177,-0.23468901,-1.6842303,-33.9156,-5.631888
0.8822353,-0.21077704,-0.22738063,-1.6317822,-32.859444,-5.456507
0.8547626,-0.20421349,-0.22030003,-1.5809687,-31.836205,-5.286592
0.8281461,-0.19785447,-0.21344009,-1.5317389,-30.844856,-5.1219726
0.80235904,-0.19169362,-0.20679393,-1.4840431,-29.8844,-4.9624834
0.7773755,-0.18572475,-0.20035487,-1.4378337,-28.953873,-4.8079634
0.7531705,-0.17994185,-0.19411644,-1.3930639,-28.052338,-4.6582584
0.7297195,-0.17433913,-0.18807237,-1.3496891,-27.178892,-4.5132174
0.7069992,-0.16891095,-0.1822166,-1.3076656,-26.332659,-4.3726954
0.68498665,-0.16365188,-0.17654327,-1.2669512,-25.512787,-4.236551
0.6636599,-0.15855664,-0.17104666,-1.2275051,-24.718454,-4.104647
0.6429974,-0.15362012,-0.16572127,-1.1892878,-23.948868,-3.9768524
0.62297845,-0.14883736,-0.16056174,-1.1522609,-23.20325,-3.8530383
0.6035831,-0.14420356,-0.15556294,-1.1163872,-22.480858,-3.7330806
0.58479184,-0.13971409,-0.1507198,-1.0816308,-21.780964,-3.6168592
0.56658584,-0.13536444,-0.14602752,-1.0479571,-21.102867,-3.5042572
0.5489468,-0.13115026,-0.14148138,-1.0153319,-20.44589,-3.3951623
0.5318571,-0.12706731,-0.13707681,-0.98372275,-19.809372,-3.2894647
0.51529956,-0.123111516,-0.1328094,-0.953098,-19.192677,-3.1870587
0.49925765,-0.11927891,-0.12867488,-0.92342687,-18.595186,-3.0878417
0.48371533,-0.11556564,-0.12466911,-0.8946797,-18.0163,-2.9917145
0.46865693,-0.111968,-0.12078808,-0.8668278,-17.45544,-2.8985803
0.45406744,-0.10848239,-0.11702789,-0.83984303,-16.912045,-2.8083463
0.43993223,-0.10510531,-0.11338479,-0.81369853,-16.38557,-2.7209218
0.42623714,-0.10183339,-0.10985512,-0.7883681,-15.875487,-2.6362195
0.41296846,-0.09866334,-0.10643536,-0.7638264,-15.381287,-2.5541546
0.40011293,-0.095591985,-0.10312207,-0.74004877,-14.902473,-2.4746447
0.38765764,-0.09261626,-0.099911936,-0.7170115,-14.438568,-2.3976104
0.37559015,-0.08973318,-0.09680175,-0.6946914,-13.989106,-2.3229747
0.36389834,-0.08693987,-0.0937884,-0.6730663,-13.5536375,-2.2506626
0.35257056,-0.08423352,-0.09086886,-0.65211445,-13.131727,-2.1806018
0.34159547,-0.08161143,-0.088040225,-0.6318149,-12.722952,-2.1127222
0.33096203,-0.07907097,-0.08529965,-0.61214733,-12.326902,-2.0469558
0.32065967,-0.076609604,-0.08264439,-0.5930921,-11.943184,-1.983237
0.31067804,-0.07422487,-0.0800718,-0.57463,-11.571411,-1.9215019
0.30100712,-0.07191437,-0.07757929,-0.5567427,-11.211212,-1.8616887
0.2916373,-0.0696758,-0.075164385,-0.5394123,-10.8622265,-1.8037376
0.28255916,-0.067506924,-0.07282466,-0.5226214,-10.524105,-1.7475905
0.27376366,-0.06540556,-0.070557766,-0.5063532,-10.19651,-1.6931914
0.26524192,-0.06336962,-0.06836144,-0.49059144,-9.879113,-1.6404858
0.25698552,-0.061397053,-0.06623349,-0.47532034,-9.571597,-1.5894209
0.2489861,-0.059485894,-0.06417178,-0.46052465,-9.273654,-1.5399456
0.24123572,-0.05763423,-0.06217426,-0.44618952,-8.984985,-1.4920106
0.23372659,-0.05584021,-0.06023892,-0.4323007,-8.705303,-1.4455677
0.22645123,-0.054102033,-0.058363825,-0.41884416,-8.434328,-1.4005705
0.21940236,-0.052417967,-0.056547098,-0.40580657,-8.171787,-1.3569741
0.2125729,-0.050786328,-0.054786928,-0.3931748,-7.91742,-1.3147349
0.20595604,-0.049205475,-0.053081546,-0.38093626,-7.6709704,-1.2738105
0.19954516,-0.047673836,-0.051429253,-0.36907867,-7.432193,-1.2341601
