ax,ay,az,gx,gy,gz
-1.7100155,3.0273001,-3.9582179,22.139294,-65.086044,-49.494087
-1.4789217,2.8298998,-4.0491195,19.878794,-71.09522,-49.72942
-1.3752108,2.6143806,-4.1153297,16.09782,-73.169876,-47.150097
-1.4591281,2.339858,-4.2161098,14.308564,-75.30928,-45.0954
-1.5695953,2.128372,-4.307639,14.459986,-76.8283,-43.616108
-1.7018887,1.9598417,-4.4144397,17.339512,-78.224655,-42.761497
-1.8250782,1.8535326,-4.5082917,21.78154,-80.10085,-43.05245
-1.8783506,1.7866114,-4.5557566,27.535076,-83.35775,-44.99782
-1.717768,1.6885079,-4.464832,32.934513,-87.73056,-47.329205
-1.346779,1.5355484,-4.2161827,37.463524,-92.633934,-49.446667
-0.8458181,1.3262808,-3.8264618,40.35669,-97.04204,-50.7838
-0.27575827,1.0528927,-3.3018353,42.553623,-99.19828,-50.594276
0.25460333,0.79123807,-2.7107015,44.504982,-97.89547,-48.099155
0.6590514,0.6409241,-2.094825,45.649696,-95.20159,-44.657722
0.95038193,0.5838079,-1.5222076,45.70613,-91.78083,-40.611797
1.1518553,0.56716293,-1.0163726,45.192276,-88.35201,-36.82514
1.3073852,0.5432459,-0.5674627,44.127266,-84.60883,-33.37774
1.4191046,0.4992497,-0.18731503,42.97955,-80.46102,-30.316172
1.4934437,0.47385323,0.13622147,42.227352,-76.0819,-27.452822
1.5486474,0.5237901,0.43829185,41.386856,-71.78307,-24.756847
1.5849912,0.6535174,0.72280234,40.169823,-67.52243,-22.796824
1.6149867,0.8073576,0.9706086,38.329136,-63.182217,-21.613794
1.642266,0.95694596,1.1735362,35.223064,-58.668194,-20.34401
1.6450313,1.1621922,1.3367399,31.126427,-54.121975,-18.775316
1.6121933,1.4138819,1.458432,26.291014,-49.645885,-17.700605
1.5503893,1.6690516,1.5251913,21.02994,-45.318207,-17.602001
1.4850825,1.9048114,1.5362593,15.400021,-41.23023,-18.38142
1.4199561,2.1164246,1.4949741,9.026088,-37.36954,-20.01387
1.3439503,2.277293,1.3879185,2.410694,-33.8757,-21.882936
1.2563363,2.4053705,1.2414733,-4.362732,-30.766485,-23.68987
1.155767,2.5074842,1.0661857,-11.148577,-28.011007,-25.466534
1.0425388,2.6034908,0.87831664,-17.904448,-25.535158,-27.579374
0.92917866,2.6693451,0.6771201,-24.300932,-23.330973,-30.437635
0.83732027,2.6454132,0.45790935,-30.091946,-21.497728,-33.668365
0.7536957,2.5718434,0.2377563,-35.209373,-20.186432,-36.66297
0.68264395,2.459029,0.027716734,-39.50029,-19.546385,-39.497616
0.631862,2.3032377,-0.1557488,-43.158833,-19.451172,-41.935093
0.60824835,2.124705,-0.302105,-46.20824,-19.559093,-43.711845
0.61174977,1.9271992,-0.40198657,-48.871773,-19.483631,-44.93841
0.61665875,1.7072856,-0.48371148,-51.10865,-19.050158,-45.399784
0.6078369,1.4711782,-0.56790006,-52.685673,-18.506271,-45.453194
0.58172864,1.2142992,-0.65499854,-53.46466,-18.019777,-45.13856
0.5471029,0.9446378,-0.7329459,-53.117466,-17.73712,-44.471046
0.52138716,0.697158,-0.76871204,-51.881187,-17.67123,-43.533276
0.51216835,0.48315674,-0.76490706,-50.251152,-17.693623,-42.344982
0.51664525,0.29126233,-0.7311681,-48.439182,-17.700203,-40.80987
0.53747064,0.10614417,-0.6780077,-46.52078,-17.630682,-38.908325
0.51903653,0.10250366,-0.6547535,-44.925217,-17.025988,-37.573853
0.50134027,0.09900886,-0.63243014,-43.39352,-16.445498,-36.292793
0.4843426,0.09565201,-0.61098784,-41.922283,-15.88792,-35.062305
0.46800703,0.09242593,-0.5903809,-40.508358,-15.352063,-33.87975
0.4522999,0.089323945,-0.57056665,-39.148827,-14.836822,-32.742683
0.43718982,0.08633988,-0.5515057,-37.840973,-14.341165,-31.648844
0.4226477,0.08346799,-0.5331611,-36.58228,-13.86414,-30.596119
0.40864637,0.08070289,-0.5154987,-35.370396,-13.404853,-29.58254
0.3951605,0.07803959,-0.49848655,-34.203125,-12.962474,-28.606276
0.3821663,0.07547338,-0.48209465,-33.07841,-12.536225,-27.665606
0.36964163,0.0729999,-0.46629503,-31.994337,-12.125377,-26.758924
0.3575656,0.07061503,-0.4510614,-30.949099,-11.729247,-25.884724
0.3459187,0.0683149,-0.43636906,-29.940998,-11.347193,-25.041586
0.33468246,0.06609588,-0.4221948,-28.968447,-10.97861,-24.228178
0.32383958,0.06395453,-0.40851673,-28.02994,-10.62293,-23.443245
0.31337366,0.06188764,-0.39531422,-27.124063,-10.279615,-22.685602
0.3032693,0.059892144,-0.38256773,-26.24948,-9.948161,-21.95413
0.2935118,0.057965156,-0.3702589,-25.40492,-9.628086,-21.24777
0.28408742,0.05610395,-0.3583702,-24.589191,-9.318937,-20.565525
0.274983,0.054305926,-0.34688517,-23.801157,-9.020284,-19.90644
0.26618606,0.052568637,-0.33578804,-23.03974,-8.731718,-19.269617
0.25768483,0.050889745,-0.32506394,-22.303915,-8.452851,-18.654202
0.24946807,0.04926703,-0.31469867,-21.592712,-8.183316,-18.059378
0.24152505,0.04769838,-0.3046787,-20.905207,-7.9227614,-17.484371
0.23384562,0.04618178,-0.29499128,-20.240513,-7.6708527,-16.928444
0.22642004,0.044715315,-0.28562406,-19.597792,-7.4272704,-16.390894
0.21923904,0.04329715,-0.27656537,-18.976238,-7.191712,-15.871051
0.21229376,0.04192554,-0.26780406,-18.37509,-6.9638853,-15.368272
0.20557575,0.04059881,-0.25932944,-17.793613,-6.743514,-14.881945
0.1990769,0.039315365,-0.25113127,-17.231106,-6.530332,-14.411484
0.19278948,0.038073674,-0.24319983,-16.686897,-6.324085,-13.956327
0.18670607,0.036872268,-0.23552573,-16.160347,-6.124531,-13.515939
0.18081953,0.035709746,-0.22809999,-15.650838,-5.931434,-13.089804
0.17512307,0.03458476,-0.22091402,-15.157781,-5.744573,-12.677428
0.16961013,0.033496022,-0.21395957,-14.680609,-5.5637317,-12.278338
0.16427444,0.032442283,-0.2072287,-14.218778,-5.388705,-11.892079
0.15910996,0.031422358,-0.20071383,-13.771766,-5.219294,-11.518215
0.1541109,0.030435102,-0.19440761,-13.339071,-5.0553093,-11.156324
0.14927167,0.02947941,-0.18830302,-12.920212,-4.8965673,-10.8060055
0.1445869,0.028554225,-0.1823933,-12.514722,-4.742893,-10.466868
0.14005147,0.02765853,-0.17667194,-12.122157,-4.5941167,-10.138541
0.13566038,0.02679134,-0.17113267,-11.742086,-4.4500756,-9.820663
0.13140886,0.025951713,-0.16576946,-11.374095,-4.3106127,-9.512889
0.12729229,0.02513874,-0.1605765,-11.017786,-4.1755767,-9.214884
0.12330624,0.024351543,-0.1555482,-10.672773,-4.044822,-8.926328
0.119446434,0.023589276,-0.15067913,-10.338688,-3.9182086,-8.646911
0.11570874,0.022851124,-0.14596412,-10.015172,-3.795601,-8.376333
0.11208918,0.022136305,-0.14139812,-9.70188,-3.6768682,-8.114308
0.10858391,0.021444054,-0.13697629,-9.398482,-3.5618846,-7.860556
0.10518923,0.020773644,-0.13269398,-9.104655,-3.4505289,-7.61481
0.10190155,0.020124368,-0.12854664,-8.820091,-3.342683,-7.3768106
0.09871744,0.019495543,-0.12452995,-8.54449,-3.2382343,-7.1463075
0.09563355,0.01888651,-0.12063969,-8.277564,-3.1370733,-6.92306
0.09264666,0.018296635,-0.11687179,-8.019033,-3.0390942,-6.7068343
0.089753665,0.0177253,-0.11322234,-7.76863,-2.944195,-6.4974055
0.08695155,0.017171916,-0.10968753,-7.526093,-2.852277,-6.294556
0.08423742,0.016635906,-0.106263705,-7.291171,-2.763245,-6.098076
0.08160845,0.016116716,-0.102947325,-7.0636215,-2.6770072,-5.9077616
0.079061955,0.015613812,-0.09973497,-6.843209,-2.5934741,-5.7234163
0.076595284,0.015126674,-0.096623324,-6.6297064,-2.51256,-5.5448503
0.07420592,0.014654802,-0.093609184,-6.4228945,-2.4341812,-5.3718805
0.07189139,0.014197711,-0.09068946,-6.222561,-2.3582578,-5.2043285
0.06964934,0.013754932,-0.087861165,-6.0285,-2.2847116,-5.042023
0.06747747,0.0133260125,-0.08512139,-5.8405137,-2.2134676,-4.8847976
0.065373555,0.012910514,-0.08246735,-5.658409,-2.1444528,-4.732492
0.06333545,0.012508012,-0.07989632,-5.4820013,-2.0775967,-4.5849504
0.06136108,0.012118096,-0.0774057,-5.3111095,-2.0128312,-4.442023
0.059448432,0.011740371,-0.07499293,-5.1455603,-1.9500905,-4.303563
0.05759556,0.01137445,-0.07265557,-4.9851847,-1.8893107,-4.169431
0.055800583,0.011019964,-0.070391245,-4.8298206,-1.83043,-4.03949
0.054061677,0.010676551,-0.06819766,-4.6793094,-1.7733886,-3.913608
0.052377082,0.010343863,-0.066072576,-4.5334992,-1.7181287,-3.7916577
0.05074509,0.010021563,-0.06401385,-4.392242,-1.6645943,-3.673515
0.049164046,0.009709325,-0.062019397,-4.255395,-1.6127312,-3.5590608
0.04763235,0.009406833,-0.060087197,-4.122819,-1.562487,-3.4481792
0.046148457,0.009113782,-0.058215298,-3.9943807,-1.5138108,-3.3407578
0.044710867,0.008829874,-0.056401808,-3.86995,-1.4666533,-3.2366884
0.04331813,0.008554825,-0.054644898,-3.7494013,-1.4209672,-3.135866
0.041968834,0.008288355,-0.05294279,-3.6326132,-1.3767062,-3.0381885
0.040661626,0.008030196,-0.05129377,-3.5194676,-1.3338257,-2.9435575
0.03939518,0.007780088,-0.04969618,-3.4098506,-1.2922826,-2.8518777
0.03816823,0.0075377794,-0.04814841,-3.3036518,-1.2520348,-2.7630568
0.03697953,0.0073030256,-0.04664889,-3.200764,-1.2130419,-2.677005
0.035827894,0.0070755905,-0.045196123,-3.101084,-1.1752646,-2.5936363
0.034712154,0.006855245,-0.04378864,-3.004511,-1.138665,-2.5128663
0.033631194,0.006641768,-0.042425033,-2.9109485,-1.1032062,-2.4346137
0.032583922,0.0064349445,-0.041103926,-2.820302,-1.0688524,-2.3588002
0.03156929,0.006234566,-0.039823987,-2.7324805,-1.0355694,-2.2853494
0.030586276,0.0060404325,-0.038583938,-2.6473958,-1.0033236,-2.2141876
0.029633895,0.005852348,-0.037382524,-2.5649621,-0.97208244,-2.1452432
0.028711187,0.0056701237,-0.03621855,-2.4850972,-0.9418148,-2.0784469
0.027817225,0.005493577,-0.035090838,-2.4077206,-0.9124902,-2.0137317
0.026951117,0.005322531,-0.03399826,-2.3327544,-0.88407916,-1.9510328
0.02611199,0.005156813,-0.03293972,-2.2601237,-0.8565532,-1.890287
0.025299001,0.0049962574,-0.031914152,-2.1897557,-0.82988477,-1.8314337
0.02451134,0.004840703,-0.030920533,-2.1215794,-0.804047,-1.7744136
0.02374821,0.0046899943,-0.029957863,-2.0555267,-0.779014,-1.7191695
0.023008851,0.0045439797,-0.029025177,-1.9915315,-0.75476074,-1.6656461
0.022292519,0.004402512,-0.028121538,-1.9295294,-0.7312629,-1.6137898
0.021598497,0.0042654513,-0.027246045,-1.8694583,-0.70849687,-1.5635484
0.02092609,0.0041326587,-0.026397817,-1.8112581,-0.6864398,-1.5148718
0.020274622,0.004004001,-0.025576005,-1.7548704,-0.6650697,-1.4677111
0.019643445,0.0038793508,-0.024779785,-1.7002386,-0.6443651,-1.4220191
0.01903192,0.0037585818,-0.024008362,-1.6473081,-0.62430525,-1.3777499
0.018439438,0.0036415737,-0.023260958,-1.596026,-0.60487,-1.3348593
0.017865406,0.0035282092,-0.02253683,-1.5463406,-0.58604,-1.2933042
0.017309248,0.0034183743,-0.021835249,-1.4982023,-0.56779635,-1.253043
0.016770408,0.0033119598,-0.021155512,-1.451563,-0.5501207,-1.2140356
0.016248345,0.0032088584,-0.020496942,-1.4063758,-0.53299546,-1.1762427
0.015742537,0.0031089673,-0.019858876,-1.3625957,-0.51640344,-1.1396265
0.015252478,0.0030121864,-0.019240677,-1.3201785,-0.500328,-1.1041504
0.014777678,0.0029184187,-0.018641725,-1.2790822,-0.48475307,-1.0697788
0.01431766,0.0028275705,-0.018061422,-1.2392653,-0.46966305,-1.0364773
0.013871963,0.0027395508,-0.017499186,-1.200688,-0.45504287,-1.0042127
0.013440143,0.0026542714,-0.016954456,-1.1633118,-0.44087785,-0.97295266
0.013021768,0.002571647,-0.016426682,-1.1270994,-0.42715386,-0.9426658
0.012616417,0.002491595,-0.015915342,-1.0920142,-0.4138571,-0.91332185
0.012223686,0.0024140351,-0.01541992,-1.0580214,-0.40097433,-0.88489145
0.011843181,0.00233889,-0.014939921,-1.0250868,-0.3884926,-0.8573461
0.011474523,0.0022660843,-0.014474866,-0.99317753,-0.3763995,-0.8306583
0.011117341,0.002195545,-0.014024288,-0.9622616,-0.36468282,-0.8048014
0.010771278,0.0021272018,-0.013587738,-0.9323082,-0.3533309,-0.7797494
0.010435989,0.0020609861,-0.013164778,-0.90328723,-0.3423324,-0.7554773
0.010111138,0.0019968317,-0.012754985,-0.8751697,-0.33167627,-0.73196083
0.0097964,0.0019346745,-0.012357949,-0.8479275,-0.3213519,-0.7091764
0.009491459,0.0018744522,-0.011973273,-0.8215334,-0.3113489,-0.68710124
0.00919601,0.0018161046,-0.011600572,-0.79596084,-0.3016573,-0.6657133
0.00890976,0.0017595735,-0.011239472,-0.7711844,-0.2922674,-0.6449912
0.00863242,0.0017048022,-0.010889614,-0.74717927,-0.2831698,-0.62491417
0.0083637135,0.0016517357,-0.010550646,-0.72392136,-0.2743554,-0.6054621
0.008103372,0.0016003213,-0.010222231,-0.70138747,-0.2658154,-0.5866155
0.007851134,0.0015505073,-0.009904038,-0.67955506,-0.25754124,-0.5683557
0.007606748,0.0015022439,-0.009595751,-0.6584022,-0.24952462,-0.5506642
