ax,ay,az,gx,gy,gz
-1.4091036,-0.84818953,-4.685497,-5.937327,25.191137,-0.3327303
-2.0213144,-0.4850314,-5.473813,-3.573895,20.516932,-1.0466063
-2.6223013,-0.05618008,-5.981244,-8.750401,14.517701,-6.1918583
-3.0944614,-0.014273888,-6.407639,-15.229626,5.300767,-9.337915
-3.0787833,-0.41751713,-6.5444446,-18.125587,-4.2713804,-6.9173594
-2.8868508,-0.75221765,-6.5114384,-21.449024,-11.948064,-1.0859323
-2.7322984,-1.154392,-6.5143733,-25.043179,-17.98713,4.4092
-2.6589978,-1.7183303,-6.6271744,-24.69569,-23.335445,7.337311
-2.6312292,-2.3014429,-6.8020883,-21.445848,-30.702847,9.730585
-2.5308633,-2.8308191,-6.8915215,-17.221699,-39.581493,13.178741
-2.3568244,-3.2099068,-6.8347616,-12.222265,-48.721676,16.828442
-2.1413703,-3.4128056,-6.659805,-6.037134,-57.04436,20.142715
-1.8968332,-3.44112,-6.395592,0.17160474,-64.69397,23.396452
-1.6161478,-3.3185916,-6.0408278,6.317035,-71.03584,26.565775
-1.3412043,-2.9970288,-5.611721,12.114096,-75.886375,28.868822
-1.0789477,-2.5087333,-5.14666,16.440294,-80.00089,30.79204
-0.79435974,-1.8161558,-4.6134224,18.907051,-83.77008,32.59852
-0.4335094,-0.9204447,-3.9788532,18.659843,-86.26384,33.09429
-0.077842124,-0.032921948,-3.3500051,16.53381,-86.64191,31.498232
0.21374398,0.7569517,-2.8211508,13.462953,-85.9659,28.961338
0.49382395,1.434981,-2.3761642,9.046539,-84.33763,25.729166
0.7674206,1.9522657,-2.0244153,3.7119699,-81.817085,21.961414
1.0072317,2.2840188,-1.7623572,-1.8435067,-78.62054,17.801102
1.1880941,2.4586527,-1.579419,-6.7335544,-74.78263,12.866866
1.2823346,2.4732158,-1.4907454,-10.75834,-71.23054,7.7109327
1.3364532,2.403473,-1.4374076,-14.0588455,-68.28405,2.6200647
1.3846569,2.2625167,-1.38885,-16.85837,-65.64641,-2.2661026
1.4174094,2.0589414,-1.3374184,-19.197008,-63.082794,-6.662191
1.4185976,1.8144703,-1.2907622,-21.011848,-60.610634,-10.609678
1.3942627,1.5391523,-1.2461624,-21.984875,-58.408096,-14.224145
1.3761535,1.2548326,-1.191985,-22.674437,-56.391064,-17.31042
1.3766356,0.95182776,-1.1281037,-23.271736,-54.474033,-19.62846
1.3793715,0.6268668,-1.0521404,-23.468887,-52.49181,-21.27337
1.3778201,0.31329283,-0.9663517,-23.068426,-50.459503,-22.063334
1.3932446,0.032775037,-0.85282284,-22.525728,-48.227314,-22.325302
1.4098997,-0.22641584,-0.73031706,-21.711899,-45.811565,-22.206572
1.4315001,-0.47069472,-0.6033354,-20.442848,-43.381687,-21.747576
1.4799522,-0.6895163,-0.4516693,-18.889658,-40.649616,-20.845892
1.5470986,-0.8703848,-0.27726078,-17.244314,-37.498714,-19.195919
1.6317447,-0.9753876,-0.065901265,-15.660787,-34.230515,-17.26207
1.7355193,-1.0377921,0.16222697,-13.997724,-30.549322,-15.406202
1.842504,-1.0937583,0.37131116,-11.978373,-26.425539,-13.734783
1.9573447,-1.1324562,0.5561761,-9.711913,-21.622513,-12.226269
2.0582764,-1.1451727,0.69418305,-7.6859474,-16.263788,-10.649776
2.109018,-1.1330563,0.7492681,-6.1330276,-10.6123,-8.873487
2.115064,-1.1059842,0.7403628,-4.8127737,-5.098071,-7.052888
2.0832036,-1.0775436,0.6728716,-3.5006227,0.072836675,-5.273663
2.0171733,-1.0394543,0.5572237,-2.124538,4.83695,-3.6839356
1.9237487,-0.98655844,0.40706444,-0.73694634,9.094078,-2.4574947
1.8014297,-0.9210021,0.22357096,0.29168117,12.930677,-1.2898401
1.6635381,-0.8631597,0.018321147,0.99821115,16.09704,-0.103825346
1.5140694,-0.8060993,-0.19413568,1.6550417,18.67455,1.0508953
1.357354,-0.7372772,-0.4073023,2.2522268,20.656546,2.035308
1.1980805,-0.65673906,-0.6165811,2.6381662,22.07272,2.755335
1.0287293,-0.57346475,-0.8303014,2.7327402,23.021736,3.3373768
0.8528078,-0.49847028,-1.0508398,2.7049947,23.565212,3.8214288
0.6729095,-0.42982733,-1.2801733,2.345087,23.428541,4.348041
0.503444,-0.3752662,-1.5102986,1.5601413,22.760744,4.9676433
0.3301831,-0.34611627,-1.7515858,0.5819787,21.406994,5.640843
0.14470756,-0.3468291,-2.0065794,-0.1785305,18.97211,6.1847486
-0.04247834,-0.36619407,-2.2658017,-0.50382334,15.719039,6.4358773
-0.22340311,-0.40798062,-2.5288112,-0.4756432,11.56347,6.5457416
-0.38692012,-0.4798569,-2.788397,-0.30049014,6.5266647,6.86877
-0.5393718,-0.57901144,-3.0448844,0.4255612,0.463342,7.389226
-0.6852059,-0.6880176,-3.3104224,2.1635337,-6.17535,7.363576
-0.80670005,-0.7694778,-3.557071,5.457042,-13.406595,6.1688104
-0.8244001,-0.79481244,-3.6945868,10.002122,-20.701408,4.3123713
-0.6888744,-0.73064494,-3.6682396,14.895492,-27.331964,2.5713573
-0.41485772,-0.57742184,-3.4856791,18.462599,-33.160717,2.1520112
-0.0069014756,-0.34463415,-3.108882,19.905748,-38.014008,3.1830094
0.4147495,-0.12173554,-2.6591809,19.4216,-41.090683,5.246545
0.7826963,0.08251107,-2.2128282,18.111254,-42.7068,7.200845
1.0719233,0.24491763,-1.8081263,16.857811,-42.67829,8.191263
1.2637405,0.3708621,-1.4777747,15.502396,-41.558952,8.610913
1.3413306,0.4485434,-1.2405694,13.619162,-40.08385,9.070927
1.3648956,0.4873545,-1.0600173,11.803341,-38.51022,9.380701
1.3521589,0.49828133,-0.92531425,10.359317,-36.88376,9.371637
1.3189603,0.49132422,-0.82550246,9.278415,-35.354527,9.11807
1.2753844,0.4762624,-0.7532578,8.654375,-34.032837,8.6762705
1.2383265,0.46020618,-0.6981381,8.162143,-32.803963,8.235306
1.2122942,0.440888,-0.65005934,7.7358003,-31.664764,7.827798
1.2006372,0.41901267,-0.6040017,7.3366356,-30.539223,7.5064526
1.1934133,0.3999484,-0.5606203,7.067425,-29.371128,7.181975
1.1829628,0.39083293,-0.52013993,6.7972636,-28.148432,6.8468137
1.173601,0.39674497,-0.47131044,6.4053664,-26.677225,6.528137
1.1619953,0.40846553,-0.42661712,5.828582,-24.927242,6.2234807
1.1495672,0.4144139,-0.38906237,5.0499244,-22.982204,5.9208913
1.1348064,0.41327167,-0.36035845,4.2041755,-20.947905,5.585819
1.0992264,0.40031418,-0.34905997,4.07236,-20.291117,5.4106846
1.0647773,0.38776854,-0.33812064,3.9447346,-19.655203,5.2411165
1.0314215,0.37562117,-0.32752854,3.8211603,-19.039476,5.076931
0.9991235,0.3638589,-0.31727225,3.701504,-18.443272,4.9179516
0.96784836,0.35246918,-0.3073408,3.5856373,-17.86595,4.764007
0.93756264,0.34143978,-0.29772356,3.4734364,-17.306892,4.6149325
0.9082341,0.330759,-0.28841028,3.3647814,-16.765503,4.4705696
0.8798317,0.32041544,-0.27939108,3.2595575,-16.24121,4.3307657
0.8523253,0.31039822,-0.2706564,3.1576533,-15.7334585,4.195372
0.82568604,0.3006968,-0.26219708,3.0589614,-15.241712,4.064246
0.79988587,0.29130092,-0.25400424,2.9633782,-14.765454,3.9372509
0.77489775,0.2822008,-0.24606924,2.8708036,-14.304188,3.8142529
0.75069565,0.27338693,-0.23838384,2.7811406,-13.85743,3.6951237
0.72725433,0.2648501,-0.23094004,2.6942964,-13.424716,3.579739
0.70454943,0.2565815,-0.22373007,2.6101804,-13.005595,3.4679794
0.6825574,0.24857245,-0.2167465,2.5287054,-12.599635,3.3597288
0.6612555,0.24081478,-0.20998207,2.4497871,-12.206413,3.2548752
0.6406217,0.2333004,-0.2034298,2.3733442,-11.825525,3.1533105
0.62063485,0.22602163,-0.19708297,2.2992978,-11.456579,3.0549297
0.6012743,0.21897095,-0.19093502,2.2275717,-11.099195,2.9596322
0.58252025,0.21214113,-0.18497965,2.1580927,-10.753004,2.8673196
0.5643534,0.20552516,-0.17921075,2.090789,-10.417654,2.7778976
0.5467552,0.19911627,-0.17362243,2.025592,-10.092801,2.6912744
0.5297076,0.19290793,-0.16820897,1.962435,-9.778112,2.6073618
0.5131933,0.18689378,-0.16296484,1.9012536,-9.473268,2.526074
0.49719542,0.18106769,-0.1578847,1.8419853,-9.177955,2.447328
0.48169765,0.17542374,-0.15296337,1.78457,-8.891874,2.371044
0.46668425,0.16995618,-0.14819585,1.7289491,-8.614735,2.297144
0.45213994,0.16465947,-0.14357731,1.675066,-8.346255,2.225553
0.43804997,0.15952821,-0.13910303,1.6228662,-8.086163,2.1561985
0.42440006,0.15455721,-0.13476849,1.5722966,-7.8341923,2.08901
0.41117638,0.14974144,-0.1305693,1.5233061,-7.5900903,2.0239193
0.39836553,0.145076,-0.1265012,1.4758451,-7.353609,1.960861
0.38595453,0.14055619,-0.12256009,1.4298656,-7.124509,1.8997709
0.37393087,0.13617744,-0.11874197,1.3853209,-6.902559,1.8405873
0.3622824,0.13193531,-0.115042984,1.3421662,-6.6875343,1.7832503
0.35099733,0.12782554,-0.11145941,1.3003578,-6.479218,1.7277021
0.3400643,0.12384397,-0.10798761,1.2598536,-6.2774005,1.6738869
0.32947224,0.119986586,-0.10462411,1.2206128,-6.081877,1.62175
0.31921053,0.116249494,-0.10136549,1.1825956,-5.8924513,1.5712391
0.3092688,0.11262893,-0.098208494,1.145764,-5.708933,1.5223033
0.29963705,0.109121256,-0.09514993,1.1100807,-5.531136,1.4748933
0.29030558,0.10572294,-0.09218671,1.07551,-5.358882,1.4289613
0.281265,0.10243056,-0.08931587,1.0420169,-5.1919975,1.3844612
0.2725062,0.099240795,-0.08653451,1.0095677,-5.0303154,1.341348
0.2640204,0.09615045,-0.083839834,0.9781299,-4.873672,1.2995787
0.25579906,0.09315642,-0.08122914,0.9476719,-4.7219105,1.259111
0.24783392,0.090255685,-0.078699805,0.918163,-4.574878,1.2199044
0.24011697,0.08744534,-0.07624929,0.88957363,-4.4324274,1.1819196
0.23264048,0.08472256,-0.073875114,0.86187506,-4.2944155,1.1451182
0.2253969,0.08208462,-0.07157492,0.83503944,-4.160703,1.1094635
0.21837902,0.07952885,-0.06934638,0.8090399,-4.031157,1.0749196
0.21157975,0.07705271,-0.06718727,0.7838503,-3.905646,1.0414518
0.2049923,0.07465371,-0.065095425,0.7594454,-3.7840452,1.0090265
0.19861002,0.072329424,-0.06306873,0.73580074,-3.666232,0.97761136
0.19242656,0.07007754,-0.06110517,0.71289253,-3.5520887,0.9471747
0.1864357,0.0678958,-0.059202764,0.69069785,-3.4415007,0.91768605
0.18063141,0.06578201,-0.057359613,0.66919446,-3.3343568,0.88911587
0.17500791,0.06373405,-0.055573866,0.6483608,-3.23055,0.8614355
0.16955954,0.06174987,-0.05384373,0.6281759,-3.129976,0.83461714
0.16428085,0.059827488,-0.05216748,0.60861963,-3.0325341,0.808634
0.15916653,0.057964966,-0.050543427,0.5896724,-2.9381268,0.78346
0.15421149,0.056160446,-0.048969947,0.57131517,-2.8466594,0.7590699
0.14941074,0.05441212,-0.04744547,0.5535296,-2.7580404,0.7354394
0.14475948,0.052718233,-0.045968458,0.53629786,-2.6721807,0.7125447
0.14025305,0.051077094,-0.04453744,0.5196027,-2.5889945,0.6903629
0.13588695,0.049487054,-0.04315098,0.5034273,-2.5083985,0.6688717
0.1316568,0.04794652,-0.041807692,0.48775566,-2.4303122,0.6480497
0.12755835,0.046453957,-0.040506225,0.47257194,-2.354657,0.6278761
0.123587504,0.045007862,-0.039245285,0.45786095,-2.2813575,0.60833055
0.11974029,0.043606795,-0.038023602,0.443608,-2.2103403,0.58939356
0.116012864,0.042249348,-0.036839955,0.4297988,-2.1415339,0.5710462
0.11240149,0.04093416,-0.035693157,0.41641957,-2.0748699,0.55327004
0.10890255,0.039659925,-0.034582067,0.40345684,-2.0102813,0.5360473
0.10551254,0.038425356,-0.03350557,0.39089772,-1.9477036,0.5193608
0.102228075,0.037229225,-0.032462586,0.37872958,-1.8870741,0.50319374
0.09904586,0.036070332,-0.03145207,0.36694026,-1.8283322,0.48753005
0.09596271,0.03494752,-0.030473016,0.35551798,-1.771419,0.472354
0.09297555,0.03385966,-0.02952444,0.34445128,-1.7162777,0.4576504
0.090081386,0.032805666,-0.028605396,0.33372912,-1.6628529,0.44340453
0.087277316,0.031784486,-0.027714962,0.32334074,-1.6110914,0.42960215
0.08456054,0.030795097,-0.02685225,0.31327575,-1.5609412,0.41622946
0.08192834,0.029836508,-0.026016394,0.3035241,-1.5123522,0.40327308
0.07937808,0.02890776,-0.025206557,0.29407606,-1.4652759,0.39072004
0.07690722,0.028007925,-0.02442193,0.2849221,-1.419665,0.37855777
0.074513264,0.027136099,-0.02366173,0.2760531,-1.375474,0.36677408
0.07219384,0.026291415,-0.022925194,0.2674602,-1.3326586,0.35535726
0.06994661,0.025473025,-0.022211587,0.2591348,-1.2911761,0.34429583
0.06776934,0.024680112,-0.021520194,0.25106856,-1.2509849,0.33357874
0.06565985,0.02391188,-0.020850323,0.24325341,-1.2120448,0.32319525
0.06361602,0.023167564,-0.020201305,0.23568153,-1.1743169,0.31313497
0.06163582,0.022446416,-0.01957249,0.22834538,-1.1377634,0.30338788
