ax,ay,az,gx,gy,gz
-2.6318421,-0.2172747,-4.6418605,21.473831,60.702374,-26.301147
-2.9578207,-0.57449406,-5.490038,19.064894,58.505207,-29.415266
-3.3178854,-0.8529034,-6.1638265,15.744076,53.129272,-32.848495
-3.6677437,-1.1525716,-6.870139,12.083939,45.965157,-34.638653
-3.861748,-1.5597023,-7.415273,7.2911453,36.7031,-32.693462
-3.8513637,-1.9896942,-7.7528276,3.46847,28.568592,-27.23255
-3.8330429,-2.2814724,-8.034024,-0.74633306,19.699865,-19.756704
-3.8528926,-2.4782054,-8.318529,-3.9506404,9.02496,-12.771614
-3.8630228,-2.6821218,-8.572775,-4.851432,-2.2138517,-7.8018994
-3.8316445,-2.9124386,-8.720205,-3.3126333,-12.682697,-4.5449038
-3.826361,-3.155846,-8.8401375,0.78221077,-23.113607,-2.2251565
-3.7798932,-3.3481534,-8.886131,5.9258814,-33.605633,0.30655372
-3.6529183,-3.437687,-8.811727,11.165808,-44.27429,4.38714
-3.4559329,-3.3592591,-8.574817,16.430918,-53.972797,8.419901
-3.2220786,-3.1018403,-8.216265,21.344723,-63.17087,11.669192
-2.9066458,-2.735246,-7.7104926,25.543371,-70.7697,13.681426
-2.5283577,-2.326782,-7.106754,28.917624,-76.674225,15.236987
-2.105873,-1.8805522,-6.445169,30.736408,-80.91286,17.078499
-1.6289089,-1.3691639,-5.7105927,30.5748,-83.508965,19.050188
-1.1741999,-0.8833119,-4.990024,28.794226,-84.60121,20.67395
-0.769888,-0.452234,-4.3220444,26.246643,-84.24666,21.576805
-0.4366796,-0.1014673,-3.7406688,23.490963,-82.72539,21.591034
-0.16330498,0.17455924,-3.247909,20.443527,-80.05355,21.003107
0.03474003,0.3712949,-2.8780751,17.224915,-77.070984,20.297739
0.1691307,0.52101135,-2.6154273,14.465282,-74.20578,19.373545
0.2699628,0.66172266,-2.4227307,11.896366,-71.65438,18.217505
0.35691184,0.78898185,-2.2699208,9.464435,-69.28544,16.822855
0.42881477,0.89806324,-2.1538472,7.68366,-66.98606,14.954632
0.48906913,1.0114478,-2.0687165,6.367125,-64.64282,12.933357
0.53789645,1.1385901,-2.0048313,5.1195636,-62.3757,10.960464
0.5740974,1.2723773,-1.9586607,3.7245615,-60.391487,9.048028
0.6072144,1.404805,-1.9146082,2.0183635,-58.445793,7.1823506
0.63461995,1.537201,-1.8672794,-0.35363582,-56.509804,5.2998447
0.64523464,1.6478404,-1.8199044,-2.8313122,-54.61017,3.316082
0.6428566,1.7300994,-1.7757914,-5.5111985,-52.861534,1.2815819
0.6297604,1.7694008,-1.7367241,-8.295306,-51.290073,-0.77134943
0.6153591,1.7614808,-1.697475,-11.153417,-49.901875,-2.7759588
0.61026317,1.6990525,-1.6410263,-13.825052,-48.303837,-4.681758
0.5924788,1.5715607,-1.5786108,-16.007195,-46.54138,-6.4935617
0.5639766,1.4148926,-1.5109053,-17.903633,-44.998,-8.170995
0.548409,1.2345923,-1.4275994,-19.53815,-43.49036,-9.572299
0.54193753,1.046284,-1.3389765,-20.91283,-42.10985,-10.787778
0.54887396,0.8450403,-1.242681,-21.925014,-40.63412,-11.793207
0.56919414,0.62502193,-1.1389267,-22.43259,-38.953373,-12.537582
0.5901529,0.4113755,-1.0426067,-22.433584,-37.094357,-12.996004
0.6080438,0.217319,-0.9523401,-22.084572,-35.179657,-13.180699
0.6235745,0.04893913,-0.8614824,-21.438171,-33.287056,-12.97855
0.6404293,-0.074016534,-0.7598756,-20.721718,-31.787416,-12.397354
0.69592035,-0.16351372,-0.6107851,-19.89869,-30.235426,-11.829023
0.78166753,-0.25222445,-0.43642145,-18.698412,-28.231483,-11.351409
0.88151157,-0.34152675,-0.26223952,-17.24846,-25.630419,-10.849162
0.97704476,-0.41292852,-0.09395272,-15.778507,-22.576317,-10.147044
1.0601269,-0.44389936,0.073983535,-14.439865,-19.27334,-9.214716
1.1338993,-0.43182835,0.23707107,-13.096723,-15.822457,-8.394567
1.2039677,-0.39771256,0.3888596,-11.734788,-12.051058,-7.8839517
1.2616551,-0.35617328,0.51245445,-10.49348,-7.788035,-7.6298094
1.2917547,-0.32700008,0.5818233,-9.6286,-3.313141,-7.3568516
1.2851754,-0.32005224,0.58612233,-9.009009,1.0860627,-6.8697205
1.1956552,-0.34148175,0.49225882,-8.144411,4.6597137,-6.250479
1.091857,-0.3624755,0.3781804,-7.1494937,7.529811,-5.6075087
0.9894124,-0.38506773,0.25555393,-6.092504,10.015199,-5.0506487
0.8852734,-0.40638313,0.12571903,-4.9657335,12.239575,-4.5943727
0.78320366,-0.41567838,-0.0046757916,-3.9018273,14.169631,-4.122386
0.6826607,-0.40936893,-0.13398422,-3.0163515,15.818531,-3.595863
0.58232,-0.40005872,-0.2625532,-2.286981,17.3401,-3.1365154
0.46912518,-0.38981402,-0.4013109,-1.4962634,18.574562,-2.8241415
0.3461209,-0.37286657,-0.5509972,-0.6737107,19.4209,-2.690593
0.23034242,-0.34104002,-0.69546765,-0.13278785,19.693882,-2.4815142
0.12608863,-0.3142435,-0.8379882,0.17163025,19.72183,-2.1488404
0.022740418,-0.2987387,-0.98230857,0.22648749,19.526976,-1.6891323
-0.08722589,-0.29715502,-1.1361486,0.26009476,19.103476,-1.1825573
-0.20435373,-0.30764264,-1.3026892,0.3798976,18.336931,-0.6423322
-0.32913655,-0.322642,-1.4799829,0.6353,16.799171,0.07773689
-0.4476844,-0.33606896,-1.6515955,0.6751568,14.758439,0.97345155
-0.55901444,-0.35786194,-1.8099717,0.6363767,12.332225,2.0601857
-0.6664167,-0.38666314,-1.960444,0.67804104,9.722749,3.2002184
-0.788619,-0.4301099,-2.1214345,0.93830866,6.7179523,4.2200747
-0.9231425,-0.49058765,-2.2923155,1.7838356,2.8836975,5.0255623
-1.0424464,-0.55632913,-2.4466398,3.0391197,-1.5811297,5.9166183
-1.1148845,-0.59446806,-2.5585454,4.201818,-6.5114636,7.0232434
-1.1370351,-0.6281937,-2.627332,5.4519486,-11.472948,8.313339
-1.1277473,-0.6626586,-2.6636183,6.9269624,-16.261143,9.500389
-1.0865445,-0.6856026,-2.6666818,9.0861225,-20.72835,10.413085
-0.9797321,-0.6348739,-2.5980308,11.335234,-24.96972,11.108462
-0.8193467,-0.5426004,-2.4761243,13.151808,-29.119326,11.8985405
-0.6135967,-0.4405284,-2.3032582,14.406251,-32.69736,12.812857
-0.38497615,-0.34755212,-2.0998812,15.377361,-35.479267,13.925929
-0.14325306,-0.22168532,-1.8607959,15.815909,-37.107994,15.066701
0.085070394,-0.07220214,-1.605178,15.949635,-37.9424,15.845843
0.2726976,0.06936459,-1.3696563,15.91652,-38.23764,16.336248
0.41646388,0.19550456,-1.1618477,15.662635,-38.230976,16.753727
0.52329314,0.30070418,-0.98132664,15.04222,-38.023834,17.091082
0.600977,0.37546405,-0.82718235,14.382229,-37.37619,17.129269
0.65088814,0.42945918,-0.70786107,13.733542,-36.63826,16.971424
0.6871158,0.4726135,-0.6135825,13.134013,-35.96185,16.809029
0.72654635,0.5182829,-0.5249703,12.270933,-35.228523,16.668928
0.7657646,0.55219465,-0.44543764,11.381653,-34.26457,16.36724
0.7968705,0.57412946,-0.3784136,10.459365,-33.054363,15.901474
0.82593423,0.5796561,-0.3202501,9.669086,-31.594305,15.438941
0.8509592,0.5838217,-0.2718209,8.917053,-30.014322,15.088185
0.8757904,0.5944464,-0.22819449,8.001842,-28.358232,14.824732
0.89893556,0.5988978,-0.18878102,7.0868263,-26.578865,14.634355
0.91791934,0.60708064,-0.1524165,6.1452975,-24.693428,14.413743
0.9381175,0.6117291,-0.11660067,5.145681,-22.53947,14.120055
0.9478198,0.60936564,-0.09027278,4.0726647,-20.07214,13.795574
0.9410854,0.59915054,-0.0737262,2.8828394,-17.413656,13.55747
0.9145635,0.57970876,-0.07663626,2.0045254,-14.905191,13.431536
0.87708104,0.56699044,-0.09199542,1.4183915,-12.840875,13.340025
0.85480845,0.56617975,-0.10001153,0.7592604,-10.803168,13.215199
0.84053093,0.55999917,-0.11317193,-0.15142865,-8.686495,13.2522745
0.8143207,0.54253674,-0.10964289,-0.14670666,-8.415625,12.839029
0.7889306,0.52562076,-0.10622428,-0.14213242,-8.15323,12.438714
0.7643347,0.50923383,-0.102912605,-0.13770126,-7.899042,12.050921
0.74050784,0.49335936,-0.09970449,-0.13340867,-7.6528034,11.675256
0.71742594,0.47798118,-0.09659666,-0.12925026,-7.414263,11.311333
0.69506544,0.4630836,-0.09358596,-0.12522183,-7.183177,10.958785
0.67340356,0.4486515,-0.09066934,-0.121319264,-6.959312,10.617252
0.65241843,0.43467024,-0.08784383,-0.117538616,-6.74244,10.286388
0.63208866,0.42112565,-0.08510656,-0.11387604,-6.5323415,9.965858
0.6123937,0.408004,-0.08245476,-0.110327825,-6.328803,9.655336
0.5933136,0.39529198,-0.07988575,-0.10689039,-6.131619,9.354509
0.57482904,0.38297674,-0.07739693,-0.10356024,-5.94059,9.063071
0.55692136,0.37104586,-0.07498578,-0.100334026,-5.7555227,8.780729
0.5395725,0.35948724,-0.07264987,-0.09720848,-5.57623,8.507197
0.52276486,0.34828925,-0.07038683,-0.09418044,-5.4025307,8.242199
0.5064815,0.33744055,-0.06819438,-0.09124686,-5.23425,7.9854665
0.49070603,0.32693025,-0.066070326,-0.08840478,-5.071218,7.736742
0.47542256,0.3167477,-0.064012505,-0.08565133,-4.9132705,7.4957743
0.46061563,0.30688268,-0.06201885,-0.08298375,-4.7602477,7.26232
0.4462704,0.29732525,-0.060087357,-0.08039933,-4.6119967,7.036145
0.4323724,0.28806576,-0.05821608,-0.077895485,-4.468367,6.8170214
0.4189076,0.27909493,-0.056403138,-0.075469695,-4.3292146,6.604728
0.40586254,0.2704037,-0.054646704,-0.07311951,-4.1944,6.3990526
0.39322403,0.2619834,-0.052945014,-0.07084259,-4.063787,6.1997867
0.38097942,0.2538255,-0.051296357,-0.06863661,-3.9372444,6.0067315
0.36911637,0.24592178,-0.049699076,-0.06649939,-3.8146455,5.819692
0.35762298,0.23826437,-0.048151568,-0.064428754,-3.6958666,5.638481
0.3464877,0.23084556,-0.046652276,-0.062422644,-3.5807886,5.462916
0.33569935,0.22365788,-0.045199696,-0.060479034,-3.4692962,5.292821
0.3252471,0.21669413,-0.043792374,-0.058595978,-3.361277,5.1280255
0.3151205,0.20994733,-0.042428892,-0.056771584,-3.2566233,4.9683633
0.30530933,0.2034107,-0.04110788,-0.05500402,-3.1552296,4.8136754
0.2958038,0.19707768,-0.039828025,-0.053291515,-3.0569942,4.6638055
0.28659433,0.19094191,-0.03858803,-0.051632352,-2.9618187,4.5186043
0.2776717,0.18499728,-0.037386656,-0.05002487,-2.8696074,4.377925
0.269027,0.17923777,-0.036222704,-0.048467454,-2.7802684,4.2416277
0.2606515,0.17365766,-0.035095,-0.04695854,-2.6937118,4.1095753
0.25253686,0.16825132,-0.03400242,-0.04549662,-2.6098506,3.9816353
0.24467494,0.16301335,-0.03294386,-0.044080228,-2.5286012,3.8576798
0.23705783,0.1579385,-0.03191827,-0.042707942,-2.449882,3.7375846
0.22967793,0.15302168,-0.030924615,-0.041378394,-2.3736143,3.621229
0.22252785,0.14825797,-0.029961903,-0.040090244,-2.2997215,3.5084968
0.2156004,0.1436426,-0.029029168,-0.03884221,-2.2281296,3.3992748
0.20888868,0.13917094,-0.028125478,-0.037633035,-2.158767,3.293454
0.20238593,0.13483854,-0.027249927,-0.03646151,-2.0915642,3.1909282
0.19608565,0.13064101,-0.026401637,-0.035326462,-2.0264537,3.0915945
0.18998155,0.12657417,-0.025579758,-0.03422676,-1.9633707,2.995354
0.1840675,0.12263398,-0.024783472,-0.033161294,-1.9022517,2.9021096
0.17833759,0.11881645,-0.024011975,-0.032129,-1.8430357,2.8117685
0.17278606,0.11511778,-0.023264501,-0.031128848,-1.7856634,2.7242403
0.1674074,0.11153427,-0.022540297,-0.030159835,-1.7300773,2.6394372
0.16219617,0.10806232,-0.02183864,-0.02922099,-1.6762217,2.5572743
0.1571472,0.10469847,-0.02115883,-0.028311376,-1.624043,2.4776692
0.1522554,0.10143934,-0.020500183,-0.02743008,-1.5734886,2.4005427
0.14751591,0.09828168,-0.019862043,-0.026576221,-1.5245081,2.325817
0.14292397,0.095222324,-0.019243767,-0.025748944,-1.4770526,2.2534182
0.13847499,0.09225821,-0.01864474,-0.024947422,-1.4310744,2.1832728
0.1341645,0.089386374,-0.018064361,-0.024170851,-1.3865274,2.1153114
0.12998821,0.08660394,-0.01750205,-0.023418458,-1.3433675,2.0494657
0.12594192,0.083908126,-0.016957246,-0.022689486,-1.301551,1.9856697
0.1220216,0.08129623,-0.016429402,-0.021983208,-1.2610363,1.9238598
0.118223324,0.078765646,-0.015917988,-0.021298917,-1.2217829,1.8639741
0.11454328,0.076313846,-0.015422496,-0.020635927,-1.1837515,1.8059525
0.110977806,0.07393836,-0.014942428,-0.019993577,-1.1469039,1.7497373
0.10752332,0.07163683,-0.014477304,-0.019371223,-1.1112034,1.695272
0.10417637,0.06940695,-0.01402666,-0.018768242,-1.0766143,1.6425022
0.10093361,0.067246474,-0.013590043,-0.01818403,-1.0431018,1.591375
0.0977918,0.065153256,-0.013167019,-0.017618008,-1.0106326,1.5418394
0.09474778,0.0631252,-0.012757163,-0.017069602,-0.97917414,1.4938458
0.09179853,0.061160274,-0.012360064,-0.01653827,-0.948695,1.4473462
