ax,ay,az,gx,gy,gz
-3.9936728,-0.07818253,-7.2173386,17.47834,66.69515,-49.161354
-4.491737,-0.11144825,-7.8027554,2.519974,57.8914,-47.14144
-4.6420937,-0.5317422,-8.222303,-8.413044,46.63863,-38.948723
-4.6371746,-0.98249614,-8.48907,-14.526614,36.5808,-26.873653
-4.632405,-1.3541262,-8.766668,-17.260193,26.846262,-13.900138
-4.821658,-1.6185582,-9.077017,-18.201633,12.656287,-3.1050427
-5.1469827,-1.9162076,-9.368035,-17.346037,-1.7380831,2.2078428
-5.296401,-2.2503266,-9.576259,-15.710744,-15.969961,4.292782
-5.162008,-2.6515355,-9.622437,-14.157168,-28.749233,7.6528597
-4.881354,-3.0848384,-9.54059,-12.578157,-39.17617,13.799744
-4.605039,-3.4313712,-9.412095,-10.550991,-48.724277,22.88534
-4.3302937,-3.4931972,-9.186193,-8.164377,-58.445435,31.120174
-3.993491,-3.350485,-8.83104,-4.7746706,-68.34603,35.676178
-3.5295029,-3.0828135,-8.29847,-0.50311637,-77.0072,37.359978
-2.8811233,-2.735997,-7.5598855,2.725463,-82.69559,38.84387
-2.1624222,-2.3519316,-6.72667,3.5230653,-85.693085,42.386364
-1.5344633,-1.888426,-5.9314756,2.7712722,-87.24536,46.31187
-1.0233424,-1.3546797,-5.233206,0.9147602,-88.18423,49.315525
-0.584511,-0.81517214,-4.6096225,-1.4036375,-88.02891,50.450016
-0.17952985,-0.28731272,-4.058308,-3.7258174,-86.7205,49.68195
0.21324687,0.22796786,-3.5594704,-6.9889855,-83.86113,47.445236
0.5510669,0.7083045,-3.1723654,-10.576034,-80.31056,44.422478
0.8231481,1.1578114,-2.8853421,-14.831121,-76.68993,40.611713
1.0542654,1.5687466,-2.669164,-19.671228,-73.05024,35.98768
1.2614115,1.933608,-2.505969,-24.959925,-69.201355,30.68766
1.4357479,2.2398787,-2.4015787,-30.672535,-65.3711,24.76458
1.5846189,2.4561944,-2.340856,-36.511044,-61.63065,18.727406
1.7273337,2.60038,-2.2955406,-42.322277,-57.755905,12.83554
1.8394578,2.688903,-2.2708848,-48.164185,-53.85462,7.291427
1.9106791,2.7329261,-2.2588613,-53.952023,-50.12889,1.8678719
1.9363697,2.7148724,-2.2590327,-59.323658,-46.847054,-3.8590603
1.9187362,2.5769415,-2.2578514,-64.11685,-43.877968,-9.699611
1.8816077,2.3290157,-2.259018,-68.28773,-41.28411,-15.046827
1.831028,1.9776078,-2.2557862,-71.89812,-39.08976,-19.025917
1.7807354,1.5618536,-2.2439885,-75.0412,-37.34654,-21.546207
1.7464205,1.1139491,-2.217594,-76.36818,-35.43884,-23.788507
1.7363061,0.6389022,-2.188562,-76.2061,-33.392048,-26.065243
1.7479545,0.15920523,-2.1500483,-74.954865,-31.541971,-27.447382
1.7721238,-0.29141384,-2.0746613,-73.05564,-29.61854,-27.727736
1.7808219,-0.68283504,-1.9704611,-70.4758,-27.448635,-27.117792
1.7693511,-1.0054696,-1.8452454,-67.28113,-24.983116,-25.64097
1.750004,-1.2413049,-1.7047297,-63.556236,-22.482111,-23.873892
1.7445989,-1.4129417,-1.5500181,-59.292915,-19.714088,-22.419388
1.7468703,-1.55265,-1.3873502,-54.676476,-16.624924,-21.335867
1.7507249,-1.6895858,-1.2294137,-49.887318,-13.208171,-20.17251
1.7524025,-1.8227619,-1.087585,-44.601116,-9.300504,-18.864923
1.7525266,-1.9123044,-0.98446566,-38.67555,-5.1137,-17.684998
1.7467465,-1.9471749,-0.90868574,-32.490326,-1.0467412,-16.71629
1.7584836,-1.9486691,-0.82744956,-26.615105,3.2299469,-15.848783
1.7765723,-1.9445778,-0.76711816,-21.147692,7.759966,-15.046576
1.7863677,-1.9342041,-0.7410767,-16.142368,12.533458,-14.176797
1.7776293,-1.9033204,-0.7622852,-11.577452,17.256458,-13.248283
1.7598022,-1.8717065,-0.80780965,-7.526583,21.922255,-12.047186
1.7305377,-1.8339632,-0.8818587,-3.883767,26.495934,-10.485197
1.6757598,-1.773672,-0.99009144,-0.46944034,30.713516,-8.766958
1.5961354,-1.6900244,-1.1159557,2.4868388,34.326656,-7.0696654
1.4869912,-1.5833172,-1.2680753,5.168741,37.119644,-5.5687504
1.369894,-1.4633582,-1.4226953,7.395698,39.21761,-4.252076
1.2471255,-1.3438087,-1.5838313,9.211872,40.680107,-3.0842693
1.1193708,-1.2242727,-1.7573196,10.504267,41.49423,-1.9142127
0.98244596,-1.1064831,-1.9509361,11.334765,41.524265,-0.73188317
0.8005517,-1.0055166,-2.2089522,11.867259,40.42812,0.43474847
0.5844545,-0.936533,-2.5204687,12.387154,37.652016,1.8468354
0.35176796,-0.893051,-2.847471,12.48762,33.12188,3.5506396
0.10934216,-0.8617116,-3.1747649,12.525727,27.303902,5.182177
-0.14352791,-0.83587307,-3.5065558,13.081865,19.769829,5.929029
-0.38399923,-0.84235084,-3.8347735,13.826473,11.053833,6.394301
-0.60867053,-0.86470115,-4.149602,14.680644,0.90617144,7.0918183
-0.8477944,-0.86506206,-4.4602675,15.603575,-10.596285,7.580718
-1.08657,-0.7947495,-4.7378025,16.437239,-23.340889,6.698672
-1.2048048,-0.6949398,-4.9070687,17.664846,-36.07677,3.6539404
-1.0009693,-0.6211123,-4.7854166,19.096226,-46.416393,1.8377452
-0.67669624,-0.52479815,-4.5248284,19.4686,-54.299744,2.5740063
-0.37445813,-0.4037469,-4.2647676,18.704018,-60.48711,5.2876077
-0.08990276,-0.26484245,-4.0359893,16.897236,-65.51425,7.9527435
0.24730207,-0.16848877,-3.8015008,14.919741,-69.07897,9.839198
0.6448878,-0.11776625,-3.5388136,13.222863,-71.41213,11.801087
1.0366453,-0.0551132,-3.2667012,11.484799,-72.75955,13.901567
1.3916788,0.018507566,-2.988461,9.652895,-73.17151,15.720112
1.6791013,0.08325077,-2.7225366,7.7686706,-72.582954,17.031435
1.8912117,0.12734789,-2.4902437,6.095274,-71.03664,17.871622
2.0174098,0.15664513,-2.3137887,4.652552,-69.144295,18.473381
2.1031215,0.18500046,-2.16723,3.5058384,-67.036316,18.685242
2.1778147,0.20927069,-2.0326047,2.495705,-64.6007,18.42785
2.239276,0.21576591,-1.9209226,1.6348976,-61.936253,17.84695
2.2824123,0.20223944,-1.8297994,1.1561615,-59.140427,17.215635
2.286636,0.1861319,-1.7587208,0.7750908,-56.516235,16.70983
2.2785544,0.17279623,-1.6816263,0.38891324,-53.98142,16.503494
2.2695386,0.17308481,-1.5895845,-0.18206099,-51.391426,16.627136
2.259744,0.18354954,-1.4907215,-0.8611541,-48.3979,16.817614
2.2397656,0.18663363,-1.4048958,-1.5530865,-44.962116,16.740093
2.210244,0.16863948,-1.3433669,-2.2536745,-41.5397,16.737679
2.1871974,0.12097691,-1.2851325,-2.635921,-38.197,16.964602
2.118756,0.11719132,-1.2449185,-2.5534382,-37.001743,16.433748
2.052478,0.11352538,-1.2059753,-2.4735625,-35.84427,15.919673
1.9882926,0.109975204,-1.1682619,-2.3962088,-34.723343,15.421831
1.9261322,0.10653702,-1.1317383,-2.3212957,-33.63778,14.939695
1.8659313,0.10320723,-1.0963659,-2.248744,-32.586437,14.472757
1.8076266,0.099982314,-1.0621079,-2.1784775,-31.568209,14.020528
1.751157,0.09685891,-1.028928,-2.1104228,-30.582031,13.582533
1.6964638,0.09383375,-0.9967919,-2.0445087,-29.626873,13.158314
1.6434897,0.090903684,-0.96566594,-1.9806666,-28.70174,12.747431
1.5921799,0.08806567,-0.9355178,-1.91883,-27.80567,12.349455
1.5424811,0.085316755,-0.9063163,-1.8589351,-26.937735,11.963975
1.4943419,0.08265411,-0.8780311,-1.8009197,-26.097036,11.590592
1.4477125,0.08007498,-0.8506331,-1.7447239,-25.282707,11.22892
1.4025452,0.077576704,-0.82409406,-1.69029,-24.493908,10.878588
1.3587931,0.07515672,-0.79838663,-1.6375619,-23.729828,10.539233
1.3164116,0.07281254,-0.7734845,-1.5864854,-22.989681,10.210508
1.2753572,0.07054176,-0.7493622,-1.5370083,-22.27271,9.892077
1.2355878,0.06834206,-0.7259948,-1.4890798,-21.57818,9.583612
1.1970627,0.066211194,-0.70335865,-1.442651,-20.905384,9.284801
1.1597428,0.06414697,-0.6814306,-1.3976746,-20.253632,8.995335
1.1235899,0.062147304,-0.66018814,-1.3541045,-19.622261,8.714921
1.0885671,0.06021015,-0.6396098,-1.3118966,-19.010628,8.443274
1.054639,0.058333535,-0.6196747,-1.2710078,-18.41811,8.180117
1.021771,0.05651556,-0.60036236,-1.2313966,-17.844105,7.9251814
0.9899297,0.054754376,-0.58165336,-1.1930227,-17.288033,7.6782103
0.95908284,0.053048193,-0.5635287,-1.1558474,-16.749327,7.4389524
0.9291992,0.05139529,-0.54596996,-1.1198329,-16.227442,7.2071652
0.9002485,0.04979399,-0.5289594,-1.0849427,-15.72185,6.9826145
0.8722015,0.04824267,-0.5124798,-1.0511416,-15.232039,6.765073
0.8450298,0.04673976,-0.4965145,-1.0183953,-14.757516,6.5543203
0.8187059,0.04528375,-0.48104736,-0.98667085,-14.297798,6.350144
0.7932033,0.043873165,-0.46606278,-0.95593613,-13.852423,6.1523376
0.7684962,0.042506583,-0.45154563,-0.92616016,-13.42094,5.9607015
0.7445597,0.041182622,-0.43748125,-0.8973129,-13.002916,5.7750425
0.72136974,0.039899953,-0.4238555,-0.8693653,-12.597929,5.5951734
0.69890285,0.03865728,-0.41065463,-0.84228915,-12.205569,5.420913
0.6771365,0.037453353,-0.39786536,-0.8160572,-11.825444,5.2520866
0.6560487,0.036286958,-0.3854748,-0.79064304,-11.457169,5.088523
0.63561827,0.035156924,-0.3734705,-0.76602113,-11.100374,4.930058
0.6158247,0.034062114,-0.36184037,-0.7421667,-10.754701,4.7765326
0.596648,0.033001423,-0.3505727,-0.7190557,-10.419801,4.627792
0.578069,0.03197379,-0.3396562,-0.69666505,-10.095338,4.483687
0.56006885,0.03097818,-0.3290799,-0.67497206,-9.780987,4.344073
0.54262966,0.030013595,-0.31883314,-0.6539551,-9.47643,4.208809
0.5257339,0.029079065,-0.30890566,-0.6335929,-9.181363,4.0777593
0.5093645,0.02817365,-0.29928747,-0.6138652,-8.89549,3.950793
0.49350503,0.027296443,-0.28996897,-0.5947521,-8.618523,3.8277824
0.47813967,0.026446564,-0.2809407,-0.57623434,-8.3501835,3.7086039
0.46325296,0.02562316,-0.27219373,-0.5582935,-8.090203,3.5931377
0.44882998,0.024825405,-0.2637192,-0.5409115,-7.8383217,3.4812684
0.43485624,0.024052499,-0.25550866,-0.5240709,-7.594286,3.3728836
0.42131776,0.023303665,-0.24755384,-0.5077549,-7.357851,3.2678747
0.40820092,0.022578156,-0.23984678,-0.49194703,-7.12878,3.1661365
0.3954926,0.02187524,-0.23237975,-0.4766315,-6.906843,3.0675666
0.38318008,0.021194218,-0.22514527,-0.46179295,-6.691818,2.9720669
0.371251,0.020534404,-0.21813609,-0.44741648,-6.48349,2.879541
0.35969338,0.019895136,-0.21134518,-0.43348774,-6.281649,2.7898965
0.3484957,0.019275777,-0.20476575,-0.41999274,-6.086094,2.7030437
0.3376467,0.018675704,-0.19839121,-0.406918,-5.896628,2.6188955
0.32713553,0.018094316,-0.19221516,-0.39425033,-5.713062,2.5373673
0.31695166,0.017531034,-0.18623142,-0.38197717,-5.535212,2.458378
0.3070849,0.016985288,-0.18043399,-0.37008613,-5.3629,2.3818483
0.29752535,0.016456537,-0.17481709,-0.35856536,-5.1959524,2.3077013
0.28826344,0.015944248,-0.16937506,-0.3474033,-5.0342035,2.2358632
0.2792899,0.01544791,-0.16410248,-0.33658877,-4.877491,2.1662617
0.27059576,0.014967025,-0.15899406,-0.32611096,-4.7256575,2.0988271
0.2621723,0.0145011125,-0.1540447,-0.31595936,-4.5785513,2.033492
0.25401112,0.014049706,-0.14924942,-0.30612382,-4.436025,1.9701914
0.24610403,0.013612353,-0.14460345,-0.2965945,-4.297936,1.9088613
0.2384431,0.013188616,-0.14010212,-0.28736186,-4.1641464,1.8494407
0.23102067,0.012778072,-0.13574092,-0.27841666,-4.034522,1.79187
0.22382933,0.0123803085,-0.13151549,-0.26974994,-3.9089332,1.7360917
0.21686187,0.011994929,-0.12742162,-0.26135305,-3.787254,1.6820498
0.21011132,0.011621547,-0.12345519,-0.25321755,-3.669363,1.6296904
0.20357092,0.011259788,-0.11961225,-0.24533534,-3.5551422,1.5789609
0.19723412,0.010909292,-0.11588894,-0.2376985,-3.444477,1.5298108
0.1910946,0.010569707,-0.11228154,-0.2302994,-3.3372571,1.4821907
0.18514621,0.010240693,-0.10878644,-0.22313064,-3.233375,1.4360532
0.17938301,0.009921921,-0.105400145,-0.21618505,-3.1327267,1.3913518
0.1737992,0.009613073,-0.10211927,-0.20945568,-3.0352118,1.348042
0.16838922,0.0093138395,-0.09894052,-0.20293579,-2.9407325,1.3060805
0.16314764,0.009023921,-0.09586073,-0.19661887,-2.849194,1.2654251
0.15806924,0.008743027,-0.09287681,-0.19049858,-2.7605054,1.2260355
0.15314893,0.008470878,-0.08998578,-0.18456882,-2.6745775,1.1878719
0.14838178,0.0082072,-0.08718474,-0.17882365,-2.5913246,1.1508963
0.14376302,0.007951731,-0.0844709,-0.1732573,-2.510663,1.1150719
0.13928805,0.0077042137,-0.081841536,-0.16786425,-2.4325125,1.0803626
