ax,ay,az,gx,gy,gz
-1.3227394,0.4609133,-7.8218894,-17.81107,-21.307467,-10.764643
-2.4525666,0.54671866,-8.871598,-15.286239,-35.932396,-8.660258
-3.189525,0.5044748,-9.312203,-12.772254,-49.39019,-15.447629
-3.5380025,0.24975866,-9.703356,-9.256999,-56.499355,-23.783909
-3.7141979,-0.06766205,-10.078368,-2.7217684,-61.34438,-30.170387
-3.8859437,-0.38264525,-10.358481,5.940597,-66.88905,-32.63182
-4.149569,-0.68313676,-10.565653,15.47669,-74.616875,-31.633183
-4.502995,-0.9695116,-10.738235,27.000399,-86.01816,-29.851599
-4.8418455,-1.2215115,-10.861427,38.820858,-97.59884,-29.905832
-5.038369,-1.4066601,-10.920061,50.21764,-108.64111,-31.255226
-5.073686,-1.5566784,-10.961097,61.616474,-119.515045,-32.48448
-4.9053698,-1.6250256,-10.95299,73.082214,-130.32555,-33.24052
-4.525913,-1.5527135,-10.852141,85.14155,-139.75795,-35.850376
-3.8290915,-1.2331492,-10.54756,97.201836,-145.94014,-42.25903
-2.7989173,-0.6646093,-10.013985,108.17216,-148.40358,-51.02528
-1.4410126,0.12992062,-9.232341,117.064125,-147.2789,-59.03645
0.09976122,1.1059033,-8.201407,123.110344,-143.59213,-63.56426
1.6653273,2.2298281,-6.9520106,124.17285,-136.4734,-63.488594
3.106097,3.4457903,-5.5245805,120.668755,-126.66427,-61.144592
4.2961245,4.5196877,-4.212399,113.259514,-114.12646,-57.38624
5.1511474,5.360387,-3.1513822,102.81149,-99.532196,-52.790657
5.656851,5.9235253,-2.42785,90.55857,-84.11736,-47.34617
5.8508244,6.2317543,-2.0246036,77.14466,-68.64459,-41.334126
5.8065767,6.360878,-1.8765025,63.609272,-53.521458,-35.761593
5.655445,6.395047,-1.8857658,50.452927,-39.02113,-30.666084
5.3950915,6.3746467,-2.046056,38.58126,-25.73066,-26.850939
5.036041,6.301133,-2.3150458,28.17611,-14.202964,-25.276388
4.6335983,6.218228,-2.6254327,19.282187,-5.3921227,-26.608131
4.2877693,6.1418657,-2.9415894,11.286762,1.5478017,-29.102644
4.0100756,6.0714746,-3.2698288,3.790966,7.134086,-31.854206
3.7750425,5.9656816,-3.6351984,-3.1404402,12.030651,-34.23307
3.4682045,5.8226314,-4.038704,-9.16668,15.556904,-36.217678
3.0775945,5.6281056,-4.471699,-13.873243,15.960237,-37.99989
2.6467247,5.3659844,-4.895307,-17.436798,14.352493,-39.908085
2.2408302,5.055032,-5.2749476,-19.864742,11.713973,-42.243202
1.8688169,4.693469,-5.609427,-21.070187,8.492101,-44.52504
1.5348146,4.2891684,-5.911082,-20.93349,4.35036,-46.243725
1.2467619,3.8248582,-6.1683817,-18.828222,-1.1382943,-46.520508
1.0024709,3.3195977,-6.305761,-15.655937,-7.3777046,-45.97199
0.81289685,2.846525,-6.305806,-12.827105,-14.162636,-45.27296
0.7209382,2.2995832,-6.2303243,-10.009251,-20.654974,-44.85142
0.7639139,1.6674787,-6.080479,-6.539077,-26.129757,-44.20809
0.952349,1.0160396,-5.875993,-1.7660447,-29.55223,-42.182457
1.2370749,0.46797097,-5.655588,3.8481631,-31.1104,-39.045662
1.4783337,0.12349284,-5.4427266,10.107374,-31.65577,-35.709385
1.7001655,0.012797271,-5.2156806,16.598364,-31.60348,-32.9838
1.9873326,0.16743578,-4.9377,22.503515,-30.81391,-30.606588
2.3491633,0.543771,-4.6204896,26.613441,-28.817127,-27.434155
2.6955225,1.0287032,-4.3027472,28.773409,-25.589272,-23.441868
2.9297512,1.4547576,-4.071866,29.105692,-20.394615,-18.402813
3.0183275,1.8104538,-3.9650226,28.558376,-14.103375,-12.563715
2.917027,1.7496917,-3.8319492,27.599907,-13.63004,-12.142055
2.8195775,1.6912395,-3.7039347,26.677872,-13.1747,-11.736423
2.7257907,1.6349843,-3.5807319,25.790495,-12.736474,-11.346038
2.6354916,1.580821,-3.4621105,24.936115,-12.314544,-10.97017
2.5485168,1.5286518,-3.347856,24.11319,-11.908147,-10.608139
2.464713,1.4783846,-3.2377675,23.320269,-11.516568,-10.259309
2.3839374,1.4299338,-3.1316566,22.555996,-11.139137,-9.923081
2.3060553,1.3832185,-3.029347,21.819103,-10.775227,-9.598899
2.2309406,1.3381633,-2.9306726,21.108393,-10.424248,-9.286236
2.1584747,1.2946966,-2.8354776,20.422745,-10.085644,-8.984598
2.0885453,1.2527516,-2.7436152,19.761097,-9.758894,-8.69352
2.0210474,1.2122649,-2.6549466,19.122454,-9.443504,-8.41256
1.9558809,1.1731768,-2.5693407,18.505873,-9.1390085,-8.141307
1.8929518,1.1354307,-2.486674,17.91046,-8.844968,-7.879366
1.8321708,1.098973,-2.406829,17.335371,-8.560964,-7.6263666
1.7734535,1.0637531,-2.329695,16.779806,-8.286602,-7.381957
1.7167193,1.0297228,-2.2551663,16.243008,-8.021507,-7.1458025
1.6618922,0.9968364,-2.1831427,15.724252,-7.765323,-6.917586
1.6088996,0.96505046,-2.1135292,15.222855,-7.517711,-6.6970057
1.5576726,0.93432343,-2.0462348,14.738162,-7.278349,-6.483774
1.5081455,0.90461606,-1.9811735,14.269553,-7.0469294,-6.277619
1.4602555,0.8758907,-1.918263,13.816435,-6.8231597,-6.078278
1.4139429,0.84811145,-1.8574245,13.378242,-6.6067605,-5.885503
1.3691506,0.8212441,-1.7985831,12.954432,-6.3974648,-5.699056
1.325824,0.79525596,-1.7416672,12.544491,-6.195018,-5.51871
1.2839109,0.7701156,-1.6866081,12.1479225,-5.9991755,-5.344248
1.2433612,0.74579316,-1.6333401,11.7642565,-5.8097043,-5.175461
1.2041273,0.7222599,-1.5818005,11.393039,-5.6263804,-5.012151
1.1661632,0.6994882,-1.5319289,11.033835,-5.44899,-4.854126
1.1294249,0.67745185,-1.4836677,10.68623,-5.2773275,-4.701204
1.0938702,0.6561254,-1.4369613,10.349823,-5.111195,-4.553208
1.0594586,0.63548464,-1.3917565,10.024233,-4.950404,-4.4099708
1.0261512,0.6155062,-1.3480023,9.709089,-4.794773,-4.2713294
0.9939106,0.5961676,-1.3056495,9.40404,-4.644126,-4.137129
0.96270084,0.57744735,-1.2646508,9.108744,-4.4982963,-4.007219
0.9324873,0.55932474,-1.2249609,8.822874,-4.357121,-3.881456
0.9032368,0.5417797,-1.1865361,8.546116,-4.2204456,-3.7597013
0.87491727,0.524793,-1.1493341,8.278166,-4.0881205,-3.6418219
0.8474978,0.5083463,-1.1133145,8.018733,-3.960001,-3.5276892
0.8209488,0.49242163,-1.0784384,7.7675347,-3.8359485,-3.4171793
0.7952415,0.47700188,-1.0446681,7.5243015,-3.7158291,-3.3101735
0.77034837,0.4620705,-1.0119673,7.288771,-3.599514,-3.2065563
0.74624276,0.44761148,-0.98030096,7.0606923,-3.4868786,-3.1062174
0.7228991,0.43360946,-0.9496355,6.8398223,-3.3778033,-3.00905
0.70029247,0.42004955,-0.9199384,6.6259265,-3.2721722,-2.9149504
0.6783991,0.40691745,-0.8911782,6.418779,-3.1698735,-2.8238196
0.6571958,0.3941993,-0.8633246,6.218161,-3.0707998,-2.7355616
0.63666046,0.38188177,-0.8363483,6.0238624,-2.9748466,-2.6500838
0.61677146,0.36995196,-0.81022114,5.8356795,-2.8819137,-2.5672963
0.5975081,0.35839736,-0.78491575,5.6534157,-2.7919037,-2.4871128
0.57885015,0.347206,-0.76040584,5.476881,-2.7047234,-2.4094498
0.56077844,0.3363662,-0.73666596,5.3058925,-2.6202817,-2.3342266
0.5432741,0.3258668,-0.71367145,5.1402726,-2.5384915,-2.2613654
0.5263191,0.3156968,-0.6913985,4.9798503,-2.4592679,-2.1907904
0.5098959,0.30584586,-0.6698242,4.8244596,-2.382529,-2.1224294
0.49398756,0.29630372,-0.6489262,4.6739407,-2.308196,-2.0562112
0.47857776,0.2870606,-0.62868315,4.528138,-2.2361927,-1.9920683
0.46365067,0.27810702,-0.6090742,4.3869033,-2.1664445,-1.9299346
0.44919094,0.2694338,-0.5900792,4.25009,-2.0988803,-1.8697464
0.43518385,0.26103204,-0.57167876,4.11756,-2.033431,-1.8114423
0.42161503,0.2528932,-0.5538541,3.9891763,-1.9700297,-1.7549623
0.40847063,0.24500893,-0.536587,3.8648088,-1.9086115,-1.7002491
0.3957373,0.2373712,-0.51985985,3.7443302,-1.849114,-1.6472468
0.38340202,0.22997226,-0.5036556,3.6276178,-1.7914764,-1.5959015
0.37145224,0.22280455,-0.4879578,3.5145533,-1.7356402,-1.5461609
0.35987586,0.2158608,-0.4727505,3.4050217,-1.6815486,-1.4979745
0.34866112,0.20913397,-0.45801827,3.2989116,-1.6291467,-1.4512935
0.33779663,0.20261723,-0.44374615,3.1961153,-1.5783815,-1.4060702
0.32727137,0.19630396,-0.42991966,3.096529,-1.5292014,-1.3622591
0.31707472,0.1901878,-0.41652483,3.0000517,-1.4815568,-1.3198158
0.30719632,0.18426254,-0.4035481,2.906586,-1.4353992,-1.2786973
0.29762623,0.17852221,-0.39097634,2.816037,-1.3906821,-1.2388619
0.28835472,0.17296098,-0.37879688,2.7283132,-1.3473604,-1.2002696
0.2793725,0.16757326,-0.36699736,2.6433265,-1.3053902,-1.1628813
0.27067047,0.1623536,-0.35556597,2.5609908,-1.2647293,-1.1266593
0.26223984,0.15729676,-0.3444911,2.4812233,-1.2253366,-1.091567
0.25407216,0.1523976,-0.3337616,2.4039433,-1.1871723,-1.0575691
0.24615915,0.14765123,-0.32336667,2.3290732,-1.1501982,-1.0246315
0.23849286,0.14305283,-0.31329587,2.2565374,-1.1143768,-0.9927207
0.23106557,0.13859779,-0.30353904,2.186263,-1.0796722,-0.96180487
0.22386982,0.13428164,-0.29408634,2.1181793,-1.0460495,-0.9318527
0.21689835,0.13010001,-0.28492826,2.0522177,-1.0134748,-0.9028341
0.21014418,0.12604871,-0.27605566,1.9883119,-0.98191535,-0.87472004
0.20360048,0.12212367,-0.26745954,1.9263977,-0.9513394,-0.8474821
0.19726071,0.11832096,-0.2591313,1.866413,-0.92171633,-0.8210929
0.1911185,0.11463673,-0.25106257,1.8082974,-0.89301634,-0.7955261
0.18516766,0.11106729,-0.24324527,1.7519926,-0.86521053,-0.7707558
0.17940222,0.10760907,-0.23567152,1.697442,-0.8382711,-0.7467574
0.1738164,0.10425858,-0.22833371,1.644591,-0.8121709,-0.72350657
0.1684046,0.101012476,-0.2212245,1.5933864,-0.7868839,-0.70098007
0.16316138,0.09786749,-0.21433677,1.5437769,-0.76238453,-0.6791553
0.15808149,0.09482047,-0.20766357,1.4957126,-0.7386483,-0.65801036
0.15315983,0.091868356,-0.20119824,1.4491457,-0.71565145,-0.63752407
0.14839147,0.08900819,-0.19493428,1.404029,-0.6933709,-0.61767584
0.1437716,0.08623711,-0.18886541,1.3603175,-0.6717843,-0.59844583
0.13929564,0.08355234,-0.18298556,1.3179674,-0.65086997,-0.57981473
0.13495907,0.08095117,-0.17728883,1.2769363,-0.63060695,-0.5617638
0.13075756,0.07843102,-0.1717695,1.237183,-0.610975,-0.5442751
0.12668687,0.07598934,-0.16642207,1.1986676,-0.59195447,-0.52733105
0.12274296,0.0736237,-0.16124114,1.1613517,-0.5735262,-0.51091456
0.11892185,0.071331725,-0.15622155,1.1251976,-0.5556718,-0.49500933
0.115219735,0.06911112,-0.15135828,1.0901695,-0.53837335,-0.47959936
0.1116329,0.066959664,-0.14664643,1.0562321,-0.5216136,-0.46466923
0.10815774,0.06487519,-0.14208129,1.0233513,-0.5053756,-0.45020396
0.10479079,0.06285563,-0.1376583,0.9914944,-0.4896433,-0.43618912
0.101528674,0.06089895,-0.13337302,0.9606294,-0.4744008,-0.42261064
0.09836813,0.05900319,-0.12922119,0.9307254,-0.4596329,-0.40945494
0.09530599,0.057166453,-0.1251986,0.9017525,-0.44532478,-0.39670885
0.09233918,0.0553869,-0.121301256,0.87368155,-0.43146214,-0.3843596
0.08946475,0.05366276,-0.11752526,0.8464846,-0.41803113,-0.37239483
0.0866798,0.051992293,-0.11386682,0.82013446,-0.40501824,-0.36080256
0.08398156,0.050373834,-0.110322274,0.7946046,-0.3924105,-0.3495712
0.08136732,0.048805762,-0.106888086,0.7698696,-0.38019526,-0.3386895
0.078834474,0.047286507,-0.10356081,0.7459047,-0.36836034,-0.32814658
0.07638048,0.04581455,-0.100337125,0.7226858,-0.35689384,-0.3179319
0.07400288,0.04438842,-0.0972138,0.70018977,-0.34578434,-0.3080352
0.0716993,0.043006685,-0.0941877,0.6783941,-0.33502066,-0.2984466
0.06946743,0.041667964,-0.09125581,0.6572769,-0.32459208,-0.2891565
0.06730504,0.040370923,-0.08841519,0.63681716,-0.31448814,-0.2801556
0.06520997,0.039114255,-0.085663006,0.6169943,-0.30469877,-0.27143493
0.06318012,0.03789671,-0.082996495,0.5977886,-0.29521415,-0.2629857
0.06121346,0.03671707,-0.08041299,0.5791807,-0.28602475,-0.25479954
0.059308022,0.03557415,-0.07790992,0.5611521,-0.27712145,-0.2468682
0.0574619,0.034466807,-0.07548476,0.5436847,-0.2684953,-0.23918375
0.055673245,0.033393934,-0.07313509,0.5267611,-0.26013765,-0.23173852
0.05394027,0.032354463,-0.070858575,0.5103643,-0.2520402,-0.22452506
0.052261245,0.03134735,-0.06865292,0.4944779,-0.2441948,-0.21753615
0.05063448,0.030371584,-0.06651593,0.47908604,-0.23659363,-0.2107648
0.04905836,0.029426193,-0.06444546,0.46417332,-0.22922908,-0.20420423
