ax,ay,az,gx,gy,gz
-2.1009283,-0.4390949,-1.9400177,-30.240274,-42.392204,-3.6618514
-2.388272,-0.46239656,-2.148702,-33.512997,-51.44927,-6.948115
-2.471561,-0.5605109,-2.2661073,-34.39912,-57.052235,-8.844739
-2.3712974,-0.6259942,-2.3801615,-34.644142,-58.669865,-8.875894
-2.3112571,-0.62047076,-2.5648098,-33.64929,-56.860577,-9.244091
-2.3913116,-0.6405826,-2.906909,-30.696735,-56.046436,-11.299956
-2.450927,-0.6837458,-3.2651672,-25.862457,-56.288013,-14.095134
-2.4724252,-0.69885767,-3.6137428,-20.802345,-57.7206,-16.036148
-2.4909275,-0.68650687,-3.9288998,-16.007032,-60.343975,-16.91631
-2.5242465,-0.64489204,-4.206711,-11.161861,-64.138756,-17.350552
-2.5248766,-0.5967721,-4.4637113,-6.517046,-67.83444,-17.645063
-2.5431516,-0.56474274,-4.692559,-2.4535418,-71.46584,-17.365835
-2.6216223,-0.5720585,-4.910567,1.1241682,-75.74281,-16.60491
-2.7200713,-0.611017,-5.1084166,4.645905,-80.70996,-15.784444
-2.8092127,-0.65986603,-5.2919116,9.408989,-86.63279,-16.39451
-2.797023,-0.6349218,-5.3709917,14.504129,-92.347626,-18.323366
-2.6733553,-0.57541436,-5.359929,19.247755,-97.799965,-20.519007
-2.485943,-0.52770746,-5.2951446,23.111996,-103.30448,-21.477314
-2.2817874,-0.5006581,-5.200462,26.037832,-109.1448,-20.850239
-2.081638,-0.48472232,-5.0633135,28.61673,-115.42272,-19.67347
-1.7872441,-0.46689725,-4.8375025,31.467272,-120.843834,-19.472315
-1.399995,-0.438672,-4.5343094,34.67724,-124.42326,-20.602974
-0.9200293,-0.3991016,-4.1538477,38.205986,-126.34718,-22.355148
-0.34319136,-0.31809098,-3.6694293,41.722374,-126.52546,-23.838783
0.28663328,-0.1633336,-3.0758889,44.670578,-124.871254,-24.985273
0.9721187,0.091984525,-2.3436291,46.577892,-120.53654,-26.001118
1.6893505,0.42676196,-1.5427933,47.1574,-114.078545,-26.765133
2.380824,0.79203176,-0.74997705,45.866585,-105.68301,-26.393137
2.9441075,1.1343883,-0.061127905,42.661312,-96.07744,-24.552149
3.3380792,1.4179,0.45824257,37.728474,-85.459045,-21.70762
3.53811,1.5991771,0.73852867,32.4577,-74.77379,-19.094769
3.6509771,1.7239634,0.8870223,26.967289,-64.14683,-16.691153
3.7042055,1.8056871,0.93404573,21.342253,-53.511497,-14.274218
3.701912,1.8637025,0.90571225,15.746481,-42.78804,-11.944037
3.63675,1.9277143,0.8019558,10.555521,-32.46763,-10.686126
3.4799986,2.0049183,0.6223644,5.699207,-23.411905,-10.419374
3.318346,2.1151357,0.429797,0.7905002,-15.718652,-10.687823
3.1716125,2.2485468,0.21521741,-4.4556184,-9.289644,-11.068496
3.0245147,2.3674061,-0.049488857,-9.85521,-3.9324656,-11.444369
2.8761122,2.4516022,-0.36682504,-14.752965,0.7351687,-12.161885
2.6898663,2.5035355,-0.7321102,-18.8307,4.701709,-13.270651
2.4794157,2.5704517,-1.0881264,-22.433311,7.495321,-14.922705
2.2683883,2.6117563,-1.4305995,-25.750685,9.162607,-16.790358
2.0516732,2.6118002,-1.7595456,-28.573141,9.905028,-18.617847
1.8190683,2.5853815,-2.0593796,-30.672808,9.910837,-20.843771
1.5870756,2.519969,-2.3182182,-32.198753,9.515528,-23.30515
1.3671373,2.4202878,-2.5366623,-33.280457,8.628829,-25.753466
1.1328098,2.2788336,-2.724729,-34.0377,7.083134,-28.037445
0.8975991,2.0794213,-2.8971195,-34.32973,4.573408,-30.186296
0.69794893,1.8241398,-3.033988,-33.805237,1.1880616,-32.06616
0.5603096,1.5056821,-3.1143603,-32.70626,-2.5121276,-33.349915
0.47743517,1.1606106,-3.1543875,-31.127203,-6.4898987,-34.04146
0.4618195,0.79284406,-3.140611,-29.096375,-10.357216,-34.16027
0.5002439,0.41661495,-3.0773582,-26.616062,-13.770594,-33.85029
0.5825912,0.049142703,-2.9722323,-23.429312,-16.391832,-33.220257
0.732497,-0.27764177,-2.8204513,-19.733444,-18.298197,-32.21057
0.91705465,-0.5336501,-2.6457274,-15.686611,-19.57508,-30.768026
1.1176883,-0.7077838,-2.4519176,-11.483964,-20.297752,-28.889551
1.3226997,-0.7889419,-2.2337859,-7.3859987,-20.428244,-26.60577
1.5107523,-0.7877061,-2.003438,-3.6821775,-19.683329,-23.999561
1.6615756,-0.70894605,-1.7924188,-0.32704425,-18.381784,-21.166082
1.7884905,-0.5625757,-1.5990244,2.6298482,-16.641363,-18.228107
1.8989382,-0.34738258,-1.4152623,4.97108,-14.4308195,-15.417909
1.988288,-0.124016866,-1.2721233,6.9362454,-11.731818,-12.598538
2.0285609,0.08936354,-1.1870184,9.122609,-8.632572,-9.86612
1.9634258,0.086494155,-1.1489042,8.82969,-8.355388,-9.549328
1.9005018,0.08372219,-1.1120842,8.546717,-8.087614,-9.243291
1.8397033,0.081043854,-1.0765077,8.2733,-7.828885,-8.947591
1.7809484,0.078455545,-1.0421271,8.009074,-7.578853,-8.66183
1.7241595,0.07595384,-1.008897,7.7536902,-7.337187,-8.385632
1.6692626,0.07353549,-0.9767739,7.5068145,-7.103573,-8.118635
1.6161875,0.07119738,-0.9457168,7.268131,-6.8777103,-7.860498
1.5648667,0.068936564,-0.9156863,7.037337,-6.659314,-7.610894
1.5152363,0.06675021,-0.88664496,6.814145,-6.448111,-7.3695116
1.4672351,0.064635634,-0.8585569,6.5982795,-6.243841,-7.1360526
1.4208046,0.06259025,-0.83138794,6.3894777,-6.0462556,-6.910233
1.375889,0.060611587,-0.8051054,6.187488,-5.855116,-6.6917806
1.3324344,0.058697302,-0.77967787,5.9920692,-5.6701946,-6.480435
1.2903898,0.05684512,-0.75507534,5.802991,-5.4912734,-6.2759466
1.2497059,0.05505289,-0.73126906,5.6200323,-5.3181424,-6.0780764
1.2103357,0.053318527,-0.70823145,5.4429812,-5.150602,-5.8865952
1.1722339,0.05164004,-0.6859361,5.271634,-4.988459,-5.701283
1.1353571,0.05001552,-0.66435754,5.1057963,-4.8315296,-5.521929
1.0996636,0.048443124,-0.64347136,4.9452796,-4.679635,-5.34833
1.0651133,0.046921093,-0.6232542,4.789904,-4.532606,-5.1802907
1.0316677,0.045447726,-0.60368335,4.6394963,-4.390278,-5.017625
0.99928975,0.04402139,-0.5847373,4.49389,-4.252493,-4.8601513
0.9679438,0.042640515,-0.5663951,4.3529243,-4.1190996,-4.7076964
0.9375954,0.04130359,-0.5486367,4.2164454,-3.9899516,-4.5600944
0.9082117,0.040009156,-0.5314427,4.0843043,-3.8649087,-4.4171834
0.8797607,0.03875581,-0.5147945,3.9563577,-3.743835,-4.278809
0.8522118,0.03754221,-0.49867418,3.8324678,-3.6266,-4.1448216
0.82553536,0.03636704,-0.48306438,3.7125018,-3.5130782,-4.015078
0.7997028,0.03522905,-0.46794844,3.596331,-3.4031477,-3.889439
0.7746868,0.034127027,-0.45331025,3.4838316,-3.2966914,-3.767771
0.7504607,0.033059802,-0.43913427,3.3748848,-3.1935968,-3.6499448
0.72699887,0.032026246,-0.4254055,3.269375,-3.0937548,-3.5358357
0.7042767,0.031025272,-0.41210955,3.1671913,-2.99706,-3.4253237
0.68227017,0.030055827,-0.39923236,3.068226,-2.903411,-3.3182929
0.6609563,0.029116895,-0.3867605,2.972376,-2.8127096,-3.2146308
0.6403129,0.028207498,-0.37468097,2.879541,-2.7248614,-3.1142292
0.6203184,0.027326686,-0.3629811,2.789624,-2.6397743,-3.016984
0.600952,0.026473545,-0.35164884,2.7025318,-2.5573604,-2.9227936
0.58219373,0.025647191,-0.34067234,2.618174,-2.4775343,-2.8315604
0.5640241,0.02484677,-0.33004034,2.5364635,-2.400213,-2.7431905
0.5464243,0.024071453,-0.3197418,2.457316,-2.325317,-2.6575923
0.5293763,0.023320444,-0.3097661,2.3806498,-2.252769,-2.5746775
0.51286256,0.02259297,-0.30010304,2.306386,-2.1824944,-2.4943612
0.4968661,0.021888282,-0.29074267,2.2344487,-2.1144214,-2.4165606
0.48137054,0.02120566,-0.28167537,2.1647637,-2.0484796,-2.3411963
0.46635997,0.020544404,-0.2728919,2.09726,-1.984602,-2.2681909
0.4518191,0.01990384,-0.26438326,2.0318685,-1.922723,-2.1974697
0.43773305,0.019283313,-0.25614077,1.9685223,-1.8627797,-2.1289608
0.4240875,0.01868219,-0.24815604,1.9071571,-1.8047109,-2.0625942
0.41086853,0.01809986,-0.24042092,1.8477103,-1.7484573,-1.9983023
0.3980627,0.017535727,-0.23292755,1.7901214,-1.6939619,-1.9360199
0.385657,0.016989224,-0.22566831,1.734332,-1.6411692,-1.8756834
0.37363884,0.016459791,-0.21863586,1.6802852,-1.5900258,-1.8172319
0.36199602,0.015946893,-0.21182302,1.6279265,-1.5404795,-1.7606058
0.35071674,0.015450011,-0.20522292,1.5772027,-1.4924804,-1.7057478
0.3397896,0.014968642,-0.19882888,1.5280623,-1.4459798,-1.6526026
0.32920355,0.014502297,-0.1926344,1.480456,-1.4009306,-1.6011161
0.31894785,0.014050506,-0.18663326,1.4343352,-1.3572874,-1.5512365
0.30901217,0.013612813,-0.18081936,1.3896537,-1.315006,-1.5029132
0.29938647,0.013188775,-0.17518686,1.346366,-1.2740437,-1.4560976
0.29006103,0.012777965,-0.16973005,1.3044288,-1.2343591,-1.4107424
0.28102645,0.012379968,-0.16444345,1.2637995,-1.1959124,-1.3668017
0.27227363,0.011994382,-0.15932171,1.2244374,-1.1586646,-1.3242315
0.26379374,0.0116208205,-0.15435967,1.1863025,-1.1225783,-1.2829887
0.25557825,0.011258906,-0.14955235,1.1493568,-1.087617,-1.2430317
0.24761887,0.010908274,-0.1448949,1.1135628,-1.0537459,-1.2043204
0.23990762,0.010568573,-0.14038265,1.0788847,-1.0209305,-1.166816
0.23243673,0.01023946,-0.13601103,1.0452875,-0.989138,-1.1304805
0.22519869,0.0099206045,-0.13177566,1.0127374,-0.9583364,-1.0952775
0.21818621,0.009611687,-0.1276723,0.9812017,-0.92849475,-1.0611717
0.21139227,0.009312395,-0.1236968,0.9506488,-0.899583,-1.0281285
0.20481002,0.00902243,-0.11984518,0.92104787,-0.87157214,-0.99611515
0.19843286,0.008741499,-0.11611357,0.8923693,-0.8444341,-0.96509916
0.19225441,0.008469321,-0.112498224,0.8645842,-0.8181415,-0.93504953
0.18626843,0.008205622,-0.10899551,0.8376648,-0.7926681,-0.9059361
0.18046893,0.007950139,-0.10560192,0.81158394,-0.76798826,-0.87772965
0.17485009,0.0077026146,-0.10231404,0.78631556,-0.74407727,-0.8504019
0.16940628,0.0074628005,-0.09912858,0.7618343,-0.720911,-0.8239253
0.16413204,0.0072304555,-0.09604234,0.73811555,-0.6984664,-0.7982735
0.15902208,0.007005348,-0.09305223,0.71513563,-0.67672086,-0.77342063
0.15407126,0.006787251,-0.090155244,0.6928714,-0.6556526,-0.7493418
0.14927463,0.006575947,-0.08734849,0.6713006,-0.6352405,-0.72601295
0.14462739,0.006371224,-0.08462914,0.65040153,-0.6154641,-0.70341057
0.14012489,0.0061728763,-0.08199448,0.63015336,-0.5963036,-0.6815121
0.13576259,0.0059807054,-0.079441875,0.61053574,-0.5777398,-0.66029567
0.13153614,0.0057945186,-0.07696875,0.5915291,-0.559754,-0.6397399
0.12744129,0.00561413,-0.074572645,0.5731142,-0.54232836,-0.6198242
0.12347396,0.0054393583,-0.07225115,0.55527276,-0.5254453,-0.6005286
0.119630165,0.005270029,-0.07000194,0.5379869,-0.509088,-0.5818339
0.11590605,0.005105972,-0.06782276,0.5212392,-0.49323997,-0.5637213
0.11229789,0.004947023,-0.06571144,0.50501305,-0.4778854,-0.5461726
0.10880209,0.004793023,-0.06366586,0.48929211,-0.46300894,-0.5291704
0.10541512,0.004643818,-0.061683964,0.47406065,-0.44859564,-0.5126975
0.10213361,0.004499259,-0.059763778,0.4593034,-0.4346311,-0.49673757
0.09895426,0.0043592,-0.057903375,0.44500563,-0.42110136,-0.4812745
0.09587391,0.0042235022,-0.056100894,0.431153,-0.40799287,-0.46629283
0.09288945,0.004092029,-0.054354534,0.41773164,-0.39529246,-0.45177764
0.08999791,0.003964649,-0.05266254,0.40472817,-0.38298747,-0.4377143
0.087196395,0.0038412344,-0.051023223,0.3921295,-0.3710656,-0.42408884
0.084482096,0.0037216623,-0.04943494,0.37992308,-0.35951483,-0.41088757
0.081852295,0.0036058128,-0.04789611,0.36809665,-0.34832367,-0.39809728
0.07930437,0.0034935696,-0.04640518,0.3566384,-0.33748093,-0.38570514
0.07683576,0.003384821,-0.04496067,0.34553686,-0.32697576,-0.37369883
0.074444,0.0032794576,-0.043561127,0.33478093,-0.31679758,-0.36206627
0.07212671,0.0031773744,-0.04220515,0.32435986,-0.3069363,-0.35079584
0.06988155,0.003078469,-0.04089139,0.3142632,-0.297382,-0.33987626
0.06770628,0.0029826427,-0.039618526,0.30448082,-0.2881251,-0.32929662
0.06559873,0.0028897997,-0.038385287,0.295003,-0.2791564,-0.31904635
0.06355679,0.0027998465,-0.037190437,0.28582022,-0.27046686,-0.30911514
0.06157841,0.0027126938,-0.036032785,0.27692327,-0.26204786,-0.29949307
0.05966162,0.002628254,-0.03491117,0.2683033,-0.25389093,-0.29017058
0.057804495,0.0025464427,-0.03382447,0.25995168,-0.2459879,-0.28113827
0.056005184,0.0024671783,-0.032771595,0.25186002,-0.23833092,-0.27238712
0.05426188,0.0023903812,-0.0317515,0.24402024,-0.23091227,-0.2639084
0.05257285,0.0023159748,-0.030763157,0.23642452,-0.22372456,-0.25569358
