ax,ay,az,gx,gy,gz
4.6545877,-1.0309184,0.33909398,157.25052,175.72705,-12.318294
4.4384685,0.45657265,-0.99887013,158.72208,176.50891,-14.184475
3.9829762,1.7303076,-1.7260355,146.4437,179.42972,-13.565136
3.458849,2.883521,-2.2325337,128.06018,183.10875,-14.622182
2.978434,3.7799852,-2.6720304,110.27146,187.62419,-18.035374
2.5125082,4.3707867,-3.1595585,95.7801,188.99756,-25.525055
2.0781167,4.821978,-3.6443233,82.1532,186.9632,-33.563873
1.7917099,5.1823897,-4.0197716,67.771866,182.74306,-40.521244
1.6914592,5.456214,-4.2914166,53.167168,178.08336,-47.047615
1.6766411,5.5887256,-4.5435038,39.605835,173.8447,-54.590763
1.656807,5.565992,-4.8352222,28.391083,169.77829,-63.34439
1.6113347,5.420394,-5.159914,18.699102,165.34207,-71.232796
1.5385168,5.2666836,-5.447478,9.968251,160.14104,-77.617744
1.4054487,5.1155853,-5.708846,1.5769478,153.90591,-82.44414
1.1900799,4.928131,-5.960178,-6.499813,146.94777,-86.42779
0.92254657,4.7076244,-6.1975226,-13.545331,138.54623,-90.42099
0.6564228,4.4709973,-6.360831,-19.754753,129.06201,-94.016655
0.46130225,4.2276144,-6.4179254,-25.291435,119.429436,-96.8663
0.30057105,3.9667892,-6.4323344,-30.253204,110.09623,-98.75564
0.14126937,3.6689022,-6.4383965,-34.581985,100.98186,-99.76004
-0.0391331,3.3316138,-6.456269,-37.899094,91.659294,-100.453804
-0.24670397,2.9325135,-6.48625,-40.2305,82.018585,-100.9738
-0.42325228,2.499343,-6.513315,-41.787724,71.95585,-100.98496
-0.5348543,2.0197744,-6.5167603,-43.085777,61.40431,-99.7845
-0.56802934,1.5068635,-6.451478,-44.234165,50.88587,-96.97092
-0.54490674,0.9658514,-6.324866,-44.499706,41.213863,-92.757645
-0.5156433,0.40117288,-6.1506166,-43.446896,32.58919,-88.40241
-0.47104114,-0.14032152,-5.9368286,-41.35523,24.967447,-84.04524
-0.38603124,-0.63976276,-5.688788,-38.541336,18.220133,-79.11433
-0.26633877,-1.0869687,-5.4127393,-35.206894,12.301872,-73.61932
-0.12907569,-1.4553556,-5.1198225,-31.26399,7.391559,-67.807556
0.025301797,-1.7168093,-4.816859,-27.153294,3.3358104,-62.187595
0.18437187,-1.8987908,-4.5118666,-22.583363,0.31505826,-57.20484
0.3317292,-1.9970734,-4.224339,-17.686657,-2.0663414,-52.605816
0.46843952,-2.0124493,-3.9411786,-12.951304,-4.135971,-48.071663
0.6108943,-1.9525932,-3.6468427,-8.646229,-5.7452235,-43.756268
0.7581029,-1.8521523,-3.3632188,-4.625628,-6.8368435,-39.663536
0.8867692,-1.7307267,-3.105908,-0.89671314,-7.372832,-35.85693
0.9830786,-1.5939348,-2.8735473,2.4113574,-7.398114,-32.416264
1.04915,-1.4427378,-2.6694539,5.246835,-7.067336,-29.42543
1.0936414,-1.2836235,-2.494166,7.651186,-6.557331,-26.963467
1.1270143,-1.1096983,-2.3465147,9.6580925,-6.022159,-24.83368
1.1499144,-0.9305226,-2.219512,11.220272,-5.471615,-23.16056
1.1669177,-0.75760853,-2.1069813,12.477829,-4.8480825,-21.900223
1.1845261,-0.5841926,-2.000579,13.318593,-4.133641,-20.849558
1.206713,-0.4054324,-1.8992978,13.445409,-3.141613,-19.904444
1.2230489,-0.21585584,-1.8225241,13.246756,-2.142044,-19.240583
1.2373837,-0.032024357,-1.7585406,12.79242,-1.0930774,-18.926086
1.247224,0.1377665,-1.7090172,12.060775,-0.034069195,-18.865566
1.2485726,0.290616,-1.6705348,11.033103,1.0286704,-18.921253
1.2450455,0.43461075,-1.6370931,9.567884,2.1899796,-18.972712
1.2265515,0.5832018,-1.6109118,7.7882752,3.3578293,-19.141
1.1930925,0.7242067,-1.5948125,5.768435,4.477209,-19.559792
1.1459229,0.8457417,-1.5912596,3.5260494,5.414445,-20.228811
1.0974929,0.951825,-1.590224,1.0758938,6.1833563,-21.030672
1.0544758,1.0516269,-1.5901836,-1.7130831,6.8091497,-22.056795
1.0138164,1.1366426,-1.6042845,-4.6271667,7.297725,-23.2723
0.97102106,1.204789,-1.6307557,-7.5719666,7.6346393,-24.687916
0.9266225,1.2531142,-1.6658181,-10.616669,7.8956804,-26.232271
0.8691763,1.2804065,-1.7209698,-13.531326,7.9585886,-27.980217
0.79774207,1.3031634,-1.7886313,-16.468103,7.6445637,-30.118551
0.7184089,1.3093137,-1.8598207,-19.440477,7.0231605,-32.48851
0.6331726,1.2852588,-1.9271452,-22.341085,6.1215744,-35.107464
0.5441094,1.2269857,-1.9983028,-25.108027,4.96184,-37.756027
0.45932662,1.1367052,-2.078568,-27.683771,3.6259046,-40.170288
0.3746766,1.0253924,-2.1674597,-30.057924,1.8652378,-42.20622
0.2628394,0.8865478,-2.2596471,-32.149986,-0.53007007,-44.14954
0.14207934,0.7294556,-2.3332372,-33.923397,-3.5454547,-46.158062
0.045403063,0.55088043,-2.382828,-35.389652,-7.015028,-48.14583
-0.012356936,0.35739464,-2.4127433,-36.483765,-10.602046,-49.85108
-0.05278208,0.15328912,-2.4290218,-37.345165,-14.438802,-51.163292
-0.10038704,-0.10445531,-2.4220896,-37.958687,-18.64505,-51.90994
-0.126826,-0.42052227,-2.4041457,-38.286404,-23.159958,-51.83535
-0.11823665,-0.7685188,-2.379181,-38.04389,-27.779718,-50.955997
-0.08113304,-1.1195058,-2.3503473,-36.933453,-32.276848,-49.57571
-0.015117595,-1.486254,-2.306255,-34.733295,-36.103382,-47.495068
0.09806026,-1.8738831,-2.2244327,-31.528276,-38.89631,-44.37671
0.21557824,-2.2207932,-2.1299863,-27.617897,-40.553577,-40.305336
0.31931195,-2.5114503,-2.0381625,-23.730389,-40.964905,-35.520588
0.3825795,-2.7404895,-1.9924728,-18.985361,-40.897217,-30.286455
0.4033851,-2.8707728,-1.9913553,-13.410981,-41.96619,-24.6387
0.43211454,-2.9096582,-1.9710078,-7.970075,-43.901882,-18.55998
0.49996707,-2.9046671,-1.9234422,-2.8385198,-46.264957,-12.129471
0.6098758,-2.855917,-1.8528812,1.9806477,-48.423626,-5.6251583
0.75113934,-2.7364333,-1.7730179,6.480545,-50.108543,0.43688348
0.90471715,-2.5435236,-1.6793168,10.679403,-51.053444,4.637678
1.0499402,-2.3180125,-1.5644411,14.864899,-50.926136,7.016791
1.1846688,-2.0912821,-1.4407735,18.744686,-49.57949,7.916722
1.2893054,-1.8809233,-1.3409828,22.479921,-47.35332,7.7259135
1.3654195,-1.6648088,-1.2706262,26.029495,-44.72161,6.709107
1.4322256,-1.4368212,-1.2096767,28.472155,-42.13901,5.7398653
1.4843252,-1.21982,-1.1496264,29.767052,-39.804577,5.5505757
1.5093257,-1.0095347,-1.105564,30.059948,-37.796276,5.988199
1.5032762,-0.81144094,-1.0862393,29.873734,-36.034855,6.39289
1.470766,-0.63111967,-1.0898292,29.57885,-34.43793,6.158531
1.4165474,-0.47775736,-1.1021245,29.268446,-32.977337,4.8589067
1.3529721,-0.3688752,-1.1125625,28.904873,-31.572355,3.2014594
1.2918386,-0.2972118,-1.1238592,28.339102,-30.225012,1.8557061
1.2308496,-0.24142934,-1.1407682,27.430717,-29.1299,1.1130375
1.1723738,-0.191745,-1.1567076,26.049438,-28.246572,0.77318084
1.1117083,-0.15061955,-1.1630257,24.06156,-27.57977,0.6060493
1.058914,-0.11796888,-1.1404485,21.806452,-26.859606,0.36223394
1.0188302,-0.09620948,-1.1045314,19.67364,-25.773317,-0.14260153
0.98702806,-0.09320637,-1.0700542,19.05954,-24.96882,-0.13815032
0.95622396,-0.09029749,-1.0366589,18.464712,-24.18957,-0.1338388
0.926386,-0.08747986,-1.0043111,17.888542,-23.434761,-0.1296625
0.8974835,-0.08475056,-0.97297746,17.330433,-22.703617,-0.12561715
0.8694868,-0.08210679,-0.9426257,16.789816,-21.995382,-0.12169855
0.84236705,-0.07954583,-0.9132247,16.266132,-21.309336,-0.1179027
0.8160964,-0.077065066,-0.8847443,15.758846,-20.644768,-0.114225715
0.7906481,-0.07466195,-0.8571553,15.267439,-20.001003,-0.110663824
0.7659961,-0.07233403,-0.8304296,14.791408,-19.377382,-0.10721338
0.7421152,-0.070078924,-0.8045399,14.330266,-18.773268,-0.10387086
0.7189811,-0.06789433,-0.77945983,13.883546,-18.188044,-0.100632876
0.69657016,-0.06577804,-0.7551637,13.45079,-17.621115,-0.09749611
0.67485964,-0.06372789,-0.73162705,13.03156,-17.071905,-0.09445738
0.65382755,-0.0617418,-0.7088257,12.625428,-16.539856,-0.0915136
0.6334524,-0.05981775,-0.6867367,12.231984,-16.024427,-0.088661775
0.6137136,-0.05795379,-0.66533756,11.850828,-15.525097,-0.08589902
0.5945912,-0.056148034,-0.6446066,11.481574,-15.041357,-0.08322253
0.5760658,-0.054398652,-0.62452286,11.123847,-14.57272,-0.080629595
0.5581186,-0.052703876,-0.605066,10.777287,-14.11871,-0.0781176
0.5407315,-0.05106199,-0.5862164,10.441541,-13.678869,-0.075683996
0.5238869,-0.049471337,-0.5679549,10.116272,-13.252753,-0.073326334
0.5075679,-0.047930308,-0.5502631,9.801151,-12.839931,-0.071042225
0.49175793,-0.046437353,-0.53312325,9.49586,-12.439986,-0.068829365
0.47644106,-0.04499096,-0.516518,9.20009,-12.052516,-0.06668553
0.46160185,-0.043589674,-0.5004306,8.913546,-11.67713,-0.064608544
0.4472254,-0.042232085,-0.4848448,8.635936,-11.313448,-0.06259633
0.4332972,-0.040916827,-0.46974498,8.3669815,-10.961106,-0.060646854
0.41980317,-0.03964257,-0.45511588,8.106412,-10.619749,-0.058758155
0.40672982,-0.038408037,-0.44094285,7.853965,-10.289033,-0.05692833
0.39406398,-0.037211984,-0.42721158,7.609387,-9.968625,-0.05515554
0.38179287,-0.036053207,-0.41390827,7.3724318,-9.658204,-0.053438004
0.36990422,-0.034930546,-0.40101957,7.1428614,-9.357456,-0.051774
0.35838604,-0.03384287,-0.3885325,6.920445,-9.066081,-0.050161842
0.34722677,-0.03278908,-0.37643453,6.704959,-8.783786,-0.048599925
0.33641517,-0.031768132,-0.36471352,6.496187,-8.510285,-0.047086675
0.32594046,-0.03077899,-0.3533577,6.29392,-8.245307,-0.045620568
0.31579208,-0.029820664,-0.34235567,6.0979543,-7.988583,-0.04420014
0.30595985,-0.028892193,-0.33169636,5.9080935,-7.7398577,-0.042823963
0.2964339,-0.027992645,-0.3213691,5.7241473,-7.49888,-0.04149065
0.28720468,-0.027121117,-0.31136355,5.545931,-7.2654085,-0.040198877
0.27826294,-0.026276737,-0.30166966,5.3732653,-7.0392094,-0.038947336
0.2695997,-0.025458656,-0.2922777,5.205978,-6.820056,-0.03773478
0.26120627,-0.024666054,-0.28317824,5.043901,-6.607728,-0.036559988
0.2530743,-0.02389814,-0.2743622,4.886872,-6.402013,-0.035421785
0.24519554,-0.02315414,-0.2658207,4.734733,-6.2027044,-0.03431903
0.23756215,-0.022433309,-0.25754523,4.5873322,-6.009603,-0.033250615
0.23016648,-0.021734927,-0.24952747,4.4445214,-5.822515,-0.032215472
0.22300112,-0.021058291,-0.24175937,4.306158,-5.641253,-0.031212566
0.2160589,-0.020402728,-0.23423319,4.1721034,-5.465636,-0.03024089
0.20933284,-0.019767577,-0.22694135,4.042223,-5.295487,-0.02929947
0.20281622,-0.019152204,-0.21987657,3.916387,-5.130636,-0.028387366
0.1965025,-0.018555991,-0.21303177,3.794469,-4.970918,-0.02750366
0.19038539,-0.017978344,-0.20640008,3.6763473,-4.8161736,-0.026647473
0.18445872,-0.01741868,-0.1999749,3.5619032,-4.6662474,-0.025817942
0.1787166,-0.016876444,-0.19374976,3.4510226,-4.5209885,-0.025014238
0.17315325,-0.01635109,-0.18771844,3.3435943,-4.380253,-0.02423556
0.16776311,-0.015842093,-0.1818749,3.2395108,-4.243899,-0.023481125
0.16254081,-0.015348943,-0.1762133,3.1386676,-4.11179,-0.022750178
0.15748107,-0.0148711465,-0.17072795,3.0409641,-3.9837942,-0.02204199
0.15257888,-0.014408225,-0.1654134,2.9463024,-3.8597834,-0.021355849
0.1478293,-0.013959716,-0.1602643,2.854588,-3.7396336,-0.020691069
0.14322758,-0.013525169,-0.1552755,2.7657287,-3.623224,-0.020046985
0.13876912,-0.013104152,-0.150442,2.6796358,-3.5104387,-0.019422952
0.13444947,-0.012696241,-0.145759,2.596223,-3.4011643,-0.018818349
0.1302643,-0.01230103,-0.14122178,2.5154073,-3.2952921,-0.018232565
0.12620941,-0.011918121,-0.1368258,2.4371073,-3.1927156,-0.01766502
0.12228075,-0.011547132,-0.13256668,2.3612447,-3.0933325,-0.017115142
0.118474394,-0.011187694,-0.12844014,2.287744,-2.9970434,-0.016582381
0.114786536,-0.010839445,-0.12444206,2.2165313,-2.9037516,-0.016066207
0.111213475,-0.010502036,-0.120568454,2.1475356,-2.813364,-0.0155661
0.107751645,-0.01017513,-0.116815425,2.0806875,-2.7257903,-0.015081562
0.10439759,-0.009858402,-0.11317923,2.0159204,-2.6409428,-0.014612108
0.101147935,-0.0095515335,-0.10965622,1.9531696,-2.5587363,-0.014157267
0.09799944,-0.009254217,-0.10624289,1.8923721,-2.479089,-0.013716586
0.09494896,-0.008966156,-0.10293581,1.8334672,-2.4019213,-0.013289622
0.091993436,-0.008687062,-0.09973168,1.7763959,-2.3271554,-0.012875949
0.08912992,-0.008416656,-0.09662729,1.7211013,-2.2547169,-0.012475154
