ax,ay,az,gx,gy,gz
-0.77455246,1.2354658,-1.7100155,47.274975,113.02739,-30.240274
-0.66756064,1.4491775,-1.9396652,40.831722,120.76741,-31.913496
-0.44116333,1.7186406,-2.0457718,34.559486,123.2004,-35.466545
-0.2440532,1.898907,-2.2174377,31.44835,123.566284,-39.140976
-0.1382857,2.079462,-2.3955204,28.025188,121.54896,-41.895397
0.00027663537,2.22783,-2.5225306,21.07425,119.73635,-42.6589
0.1471035,2.3585925,-2.669892,13.231494,118.78888,-42.677044
0.25063902,2.494614,-2.846089,5.087542,118.687355,-43.012814
0.2939633,2.620911,-3.0522668,-2.6688495,118.189384,-44.291
0.3235095,2.699564,-3.2522116,-9.895461,117.658295,-46.351128
0.3000499,2.7280536,-3.4688702,-15.906637,116.12277,-49.172504
0.19338799,2.7659564,-3.6717722,-21.608715,113.33289,-52.06652
0.036711708,2.8123763,-3.8461523,-27.426254,109.101234,-55.085224
-0.15034857,2.857767,-3.9899058,-33.47757,103.769905,-58.606506
-0.35993466,2.8928485,-4.1303835,-39.568047,97.616196,-63.045624
-0.59548944,2.8702466,-4.285295,-45.593678,90.05275,-68.48465
-0.83204544,2.7160456,-4.448808,-51.185764,81.8007,-73.53324
-1.0686923,2.4737515,-4.609397,-56.17089,72.86542,-77.70696
-1.2848343,2.1922412,-4.753302,-60.111897,63.521236,-81.14868
-1.4819922,1.8958911,-4.8930855,-63.013344,53.572968,-84.30319
-1.6420151,1.5641378,-5.0122647,-65.22253,42.344044,-87.14597
-1.6960883,1.1357939,-5.049667,-66.807465,30.929548,-89.18324
-1.6317804,0.6099717,-5.0159245,-67.24726,20.609348,-89.45251
-1.5224187,0.065499865,-4.948472,-66.22756,11.563843,-87.85922
-1.4298598,-0.44796658,-4.859559,-64.13932,3.2132025,-84.94264
-1.3590257,-0.9334679,-4.750111,-60.993385,-4.768571,-81.13236
-1.2838293,-1.4098339,-4.6099367,-57.032288,-12.177489,-77.1357
-1.1629198,-1.8653483,-4.435956,-51.987507,-18.55184,-72.51692
-0.99824685,-2.2340465,-4.2220597,-46.350204,-24.055843,-66.99695
-0.81696934,-2.478618,-3.9679456,-40.50694,-28.460367,-61.294655
-0.6446017,-2.6207283,-3.7039278,-34.539715,-31.563736,-56.316845
-0.4775892,-2.6653752,-3.4433985,-28.378502,-33.694187,-51.849842
-0.30047417,-2.6111722,-3.1795664,-22.692104,-35.37465,-47.4567
-0.09799631,-2.4786882,-2.895715,-17.764675,-36.400196,-43.131145
0.10949986,-2.2993596,-2.6100545,-13.462411,-36.61025,-39.07636
0.298881,-2.0873432,-2.339207,-9.705917,-35.65435,-35.615273
0.42585513,-1.8520373,-2.120775,-6.5594034,-34.393528,-32.746925
0.5206347,-1.6368881,-1.9406527,-3.9899478,-33.023808,-30.286839
0.5951096,-1.4457316,-1.7950317,-1.7900316,-31.695185,-28.157173
0.65734047,-1.2698603,-1.669025,0.060854416,-30.377789,-26.279516
0.7140986,-1.1029572,-1.5547228,1.3668699,-28.769686,-24.762337
0.7600459,-0.9566408,-1.4646246,2.3906343,-26.907917,-23.532557
0.7862874,-0.81985456,-1.3972164,3.1325338,-24.909275,-22.576366
0.79043925,-0.6901703,-1.3501228,3.6377285,-22.960821,-21.917854
0.7910889,-0.5738912,-1.3159226,3.792407,-21.095453,-21.458332
0.79918253,-0.4726338,-1.2931293,3.5863955,-19.452497,-21.09866
0.8272722,-0.3814898,-1.264028,3.1445086,-17.780388,-20.595842
0.8525747,-0.28324398,-1.233159,2.5174923,-15.931275,-20.10299
0.8592376,-0.1768271,-1.2085714,1.7178941,-13.943938,-19.775513
0.84892255,-0.06620251,-1.1894977,0.69326913,-11.958458,-19.6472
0.82481015,0.049826197,-1.1767994,-0.70315087,-10.190323,-19.838865
0.795215,0.1678017,-1.168785,-2.453493,-8.629488,-20.293531
0.76400554,0.27521235,-1.1655517,-4.3820057,-7.199344,-21.108149
0.7349338,0.36538047,-1.1664314,-6.52226,-5.7884626,-22.125616
0.699655,0.4374536,-1.1805626,-8.829593,-4.4381313,-23.220497
0.6528704,0.5007023,-1.2096512,-11.398434,-3.3248248,-24.335499
0.5937834,0.5539502,-1.2559296,-14.074299,-2.4608545,-25.51221
0.52477086,0.59711367,-1.3112197,-16.777527,-1.8701285,-26.874441
0.44245115,0.6295181,-1.3746893,-19.453697,-1.6076248,-28.463015
0.34527177,0.64376813,-1.4436886,-22.128195,-1.74213,-30.267515
0.22897638,0.6340635,-1.5178883,-24.742104,-2.5519092,-32.353348
0.10389024,0.5854651,-1.5987886,-27.213093,-3.9522634,-34.354305
-0.022728886,0.51489943,-1.6798171,-29.625805,-5.883881,-36.129856
-0.15761378,0.42561936,-1.7594332,-31.931538,-8.471038,-37.70633
-0.28986254,0.3147912,-1.825827,-33.9696,-11.640976,-39.183506
-0.41316587,0.18421023,-1.8762759,-35.624516,-15.453289,-40.688667
-0.5085034,0.015278441,-1.9096931,-37.049164,-19.709288,-42.314857
-0.55164284,-0.20610666,-1.9257623,-38.001972,-24.079283,-43.85682
-0.5431909,-0.4721716,-1.9240134,-38.435455,-28.267288,-44.929817
-0.50055206,-0.7787585,-1.9099509,-38.338665,-32.171158,-45.24681
-0.44179007,-1.1153444,-1.8875372,-37.01108,-35.76424,-44.591267
-0.38437387,-1.4529393,-1.8498741,-34.827103,-39.207027,-43.22392
-0.32371145,-1.7666093,-1.7911328,-32.09316,-42.421665,-41.291264
-0.2610827,-2.0528216,-1.7233845,-28.669157,-45.236195,-39.077713
-0.2055151,-2.3059742,-1.6587788,-24.504885,-47.701164,-36.813053
-0.15328473,-2.5273626,-1.596129,-19.323797,-49.782223,-34.29801
-0.07794222,-2.682855,-1.5113391,-13.904596,-51.57928,-31.288115
0.017152,-2.7838616,-1.4084314,-8.690623,-52.91501,-28.158312
0.11761747,-2.85032,-1.3084208,-3.2798815,-53.26561,-25.411242
0.20187324,-2.8591065,-1.2523817,2.515717,-53.156506,-23.026337
0.28416458,-2.7886295,-1.2271038,8.172256,-53.50662,-20.876112
0.40491804,-2.616475,-1.1560808,13.104716,-53.768612,-19.400404
0.55957097,-2.424563,-1.0418837,17.292961,-53.142784,-18.767067
0.72777843,-2.247706,-0.91450006,20.98993,-51.337772,-18.754646
0.89839035,-2.1055129,-0.8093879,24.198374,-48.04108,-18.784788
1.0491341,-1.9858904,-0.7561825,26.928581,-43.69795,-17.742628
1.1246401,-1.8448851,-0.78410864,29.621445,-39.644787,-16.195467
1.1357558,-1.6726456,-0.8467163,31.966177,-36.35834,-14.567408
1.1204002,-1.4832194,-0.90209526,33.708103,-33.794624,-13.127051
1.1043419,-1.2945802,-0.9300471,34.84187,-31.369778,-11.960093
1.0793327,-1.1153752,-0.9491861,35.283825,-28.780972,-11.101685
1.0222993,-0.94933593,-0.981058,35.40408,-26.209269,-10.564845
0.93742853,-0.79440886,-1.02945,35.17087,-24.024714,-10.38126
0.8273932,-0.6541149,-1.0812238,34.76361,-22.489891,-10.50523
0.71229565,-0.5279837,-1.1171595,33.993095,-21.547724,-10.6730175
0.60652405,-0.42287856,-1.1327906,32.771633,-21.01132,-10.720988
0.5178452,-0.3502579,-1.1304524,31.466593,-20.501377,-10.673938
0.4504959,-0.29324105,-1.1151546,30.124462,-19.742342,-10.506289
0.39454833,-0.24595687,-1.0937768,28.708273,-18.728773,-10.282895
0.34245482,-0.2070337,-1.0661993,27.064,-17.62696,-9.994088
0.30052638,-0.18698128,-1.0300568,24.983437,-16.388243,-9.439862
0.2911421,-0.18114257,-0.99789214,24.2033,-15.876501,-9.145092
0.28205264,-0.1754873,-0.9667379,23.447672,-15.380836,-8.859582
0.27324855,-0.17000957,-0.9365619,22.715769,-14.900734,-8.583035
0.26472077,-0.16470376,-0.9073327,22.006834,-14.435698,-8.315168
0.25646043,-0.15956436,-0.8790204,21.320133,-13.985248,-8.055702
0.24845909,-0.15458608,-0.8515957,20.654964,-13.54892,-7.8043714
0.24070847,-0.14976381,-0.82503045,20.010637,-13.126265,-7.560916
0.23320064,-0.14509259,-0.7992973,19.386496,-12.716849,-7.325087
0.2259279,-0.14056765,-0.7743699,18.781895,-12.320253,-7.096642
0.2188828,-0.13618433,-0.75022274,18.19622,-11.936071,-6.8753476
0.21205814,-0.13193817,-0.72683114,17.62887,-11.5639105,-6.660978
0.20544696,-0.12782483,-0.70417124,17.079268,-11.203391,-6.4533134
0.19904251,-0.123840116,-0.68222,16.546852,-10.854145,-6.2521424
0.19283828,-0.11997997,-0.6609549,16.03108,-10.515817,-6.057261
0.18682796,-0.11624047,-0.64035445,15.531428,-10.188063,-5.86847
0.18100542,-0.11261781,-0.6203977,15.047388,-9.87055,-5.685578
0.17536478,-0.10910832,-0.6010643,14.578469,-9.562956,-5.508399
0.1699003,-0.105708435,-0.5823348,14.124195,-9.264968,-5.3367543
0.16460645,-0.10241472,-0.5641901,13.684106,-8.976285,-5.170469
0.15947787,-0.09922382,-0.54661185,13.257755,-8.696614,-5.0093746
0.15450938,-0.09613253,-0.52958226,12.844713,-8.4256735,-4.8533087
0.14969595,-0.09313771,-0.5130842,12.444561,-8.163188,-4.702113
0.1450327,-0.090236336,-0.4971009,12.056895,-7.908893,-4.5556355
0.14051495,-0.08742548,-0.48161623,11.681324,-7.662532,-4.4137278
0.13613813,-0.084702305,-0.4666146,11.317469,-7.423856,-4.276247
0.1318978,-0.08206407,-0.45208088,10.964962,-7.1926236,-4.143054
0.12778972,-0.07950811,-0.4380004,10.623448,-6.9686027,-4.0140147
0.12380975,-0.07703185,-0.42435902,10.292583,-6.7515674,-3.8889995
0.11995386,-0.0746328,-0.41114295,9.972035,-6.5412993,-3.7678819
0.11621819,-0.07230854,-0.39833888,9.66148,-6.3375864,-3.6505404
0.11259897,-0.07005674,-0.38593397,9.360606,-6.1402235,-3.5368567
0.109092556,-0.067875125,-0.3739157,9.06911,-5.9490128,-3.4267163
0.105695434,-0.0657615,-0.36227202,8.786699,-5.763761,-3.320009
0.10240418,-0.06371375,-0.35099122,8.51309,-5.5842834,-3.216627
0.099215485,-0.06172981,-0.34006196,8.248007,-5.410398,-3.1164668
0.096126154,-0.059807695,-0.32947326,7.9911838,-5.2419314,-3.0194275
0.093133084,-0.057945468,-0.31921446,7.742363,-5.078714,-2.925412
0.09023327,-0.05614126,-0.3092753,7.5012946,-4.9205813,-2.8343253
0.08742379,-0.05439326,-0.2996458,7.2677364,-4.767376,-2.7460766
0.084701836,-0.052699722,-0.29031628,7.0414543,-4.6189427,-2.660577
0.08206467,-0.051058933,-0.2812774,6.8222213,-4.4751334,-2.577741
0.07950966,-0.04946926,-0.27252007,6.609817,-4.335804,-2.4974852
0.07703423,-0.047929097,-0.2640355,6.404029,-4.2008147,-2.4197292
0.0746359,-0.046436906,-0.2558152,6.2046504,-4.0700293,-2.3443952
0.07231227,-0.04499119,-0.24785095,6.0114822,-3.9433177,-2.2714074
0.07006101,-0.043590505,-0.24013473,5.8243294,-3.8205523,-2.200693
0.06787986,-0.042233437,-0.23265882,5.643006,-3.7016103,-2.1321805
0.06576664,-0.040918633,-0.22541574,5.4673285,-3.5863726,-2.0658019
0.06371922,-0.039644778,-0.2183982,5.2971225,-3.4747233,-2.0014904
0.061735567,-0.038410585,-0.2115992,5.132217,-3.3665512,-1.9391816
0.059813682,-0.03721483,-0.20501192,4.972446,-3.2617471,-1.878813
0.05795164,-0.036056306,-0.19862977,4.8176503,-3.1602068,-1.8203243
0.056147583,-0.034933858,-0.19244634,4.667675,-3.0618281,-1.7636569
0.054399695,-0.03384636,-0.18645544,4.5223694,-2.966513,-1.7087538
0.052706234,-0.032792725,-0.18065108,4.381588,-2.8741653,-1.6555604
0.0510655,-0.03177189,-0.17502744,4.24519,-2.7846932,-1.6040231
0.049475852,-0.030782847,-0.16957891,4.113039,-2.6980069,-1.5540905
0.047935694,-0.029824594,-0.16430002,3.9850023,-2.6140194,-1.5057125
0.046443492,-0.028896175,-0.15918548,3.8609521,-2.532647,-1.4588408
0.044997748,-0.027996663,-0.15423018,3.7407641,-2.4538078,-1.4134284
0.043597016,-0.027125157,-0.14942916,3.6243181,-2.3774233,-1.3694298
0.04223989,-0.026280783,-0.1447776,3.5114973,-2.303417,-1.3268011
0.04092502,-0.025462696,-0.14027086,3.402189,-2.2317145,-1.2854996
0.03965108,-0.02467008,-0.13590443,3.2962837,-2.1622446,-1.2454838
0.038416803,-0.023902137,-0.13167393,3.1936755,-2.094937,-1.2067138
0.03722095,-0.023158103,-0.12757514,3.0942616,-2.0297253,-1.1691507
0.03606233,-0.022437232,-0.12360395,2.9979427,-1.9665434,-1.1327571
0.034939773,-0.021738801,-0.119756386,2.904622,-1.9053285,-1.0974965
0.033852167,-0.021062115,-0.1160286,2.8142068,-1.8460193,-1.0633335
0.032798417,-0.020406494,-0.11241686,2.7266064,-1.7885565,-1.0302341
0.03177747,-0.019771282,-0.10891756,2.6417327,-1.7328824,-0.998165
0.030788306,-0.019155845,-0.10552719,2.5595012,-1.6789415,-0.9670943
0.029829934,-0.018559566,-0.102242365,2.4798295,-1.6266798,-0.9369908
0.028901396,-0.017981848,-0.09905979,2.4026382,-1.5760449,-0.90782446
0.028001765,-0.017422115,-0.09597629,2.3278499,-1.5269864,-0.879566
0.027130136,-0.016879808,-0.09298878,2.2553895,-1.479455,-0.8521872
0.026285643,-0.01635438,-0.09009427,2.1851847,-1.4334031,-0.8256607
0.025467437,-0.01584531,-0.08728986,2.1171653,-1.3887849,-0.79996
0.0246747,-0.015352085,-0.084572755,2.0512633,-1.3455557,-0.7750593
