ax,ay,az,gx,gy,gz
-1.805471,0.20000182,-1.1227375,42.170383,84.72895,-60.369637
-1.1434339,-0.04347367,-0.7269185,35.54207,99.7291,-62.867928
-0.6982942,-0.3170421,-0.7101402,31.472418,114.32583,-60.421585
-0.47471282,-0.35081527,-0.9216197,31.776611,123.573235,-56.582367
-0.46135256,-0.12769654,-1.2212081,31.540314,126.14293,-53.197872
-0.44838598,0.26165098,-1.4316767,27.694443,124.62043,-53.373646
-0.2409482,0.5609999,-1.4821056,24.438627,125.81586,-56.58406
0.015403274,0.79059106,-1.5387676,20.408827,128.14471,-59.528774
0.27944487,0.9804109,-1.6348048,15.198049,130.2409,-60.74805
0.5044316,1.1593556,-1.7866119,9.378281,131.78375,-61.125477
0.6604409,1.3029664,-1.9944654,3.203244,132.39781,-62.25565
0.72346705,1.3906732,-2.27942,-2.1733375,132.19691,-63.964615
0.7114848,1.4590813,-2.588107,-6.8236036,130.7637,-66.09795
0.6566451,1.5575709,-2.8618903,-11.434092,127.90705,-68.5084
0.5777745,1.6947496,-3.0857892,-16.256687,123.787926,-71.22921
0.46613568,1.8185959,-3.2759964,-21.50625,118.29548,-74.60999
0.31569296,1.8751457,-3.4470947,-26.608023,112.38071,-78.35717
0.13196082,1.8841758,-3.6249554,-31.725258,105.98166,-82.167885
-0.07748154,1.8447857,-3.8327181,-36.89828,98.946815,-85.6979
-0.3051185,1.754926,-4.068152,-42.32387,90.982216,-88.89485
-0.5461131,1.5595499,-4.292057,-48.18657,81.1901,-90.90384
-0.73977727,1.2223632,-4.4465437,-53.23701,71.31349,-91.74205
-0.90260714,0.8280334,-4.5820565,-56.63063,61.75479,-92.16796
-1.0358812,0.36856088,-4.7230096,-58.668903,52.140713,-92.578255
-1.1015123,-0.18219894,-4.819813,-59.14833,42.35039,-92.02647
-1.0922124,-0.76054364,-4.8358817,-57.959393,33.139862,-88.999084
-1.0501475,-1.2918843,-4.769607,-55.717926,24.71385,-84.43382
-0.9877464,-1.7384642,-4.6568036,-52.51961,16.974018,-79.02393
-0.879667,-2.0973818,-4.4820156,-48.523167,10.321249,-73.560165
-0.75349045,-2.3972266,-4.272851,-43.798862,4.8445244,-68.36136
-0.64359635,-2.6580484,-4.058452,-38.430916,0.67025185,-62.926586
-0.5646352,-2.841188,-3.851082,-33.02033,-3.0251012,-57.105377
-0.49073166,-2.9153388,-3.6429713,-27.397291,-6.7170434,-51.20972
-0.38750303,-2.8506236,-3.3966563,-22.342184,-10.483224,-45.774265
-0.25556043,-2.7304435,-3.1274254,-17.738928,-13.678962,-41.097725
-0.120575935,-2.5814805,-2.8680947,-13.2270355,-16.023903,-37.283295
0.010500314,-2.3790371,-2.616837,-9.077014,-17.897171,-33.994026
0.14602807,-2.149201,-2.3707893,-5.658492,-19.372442,-30.939913
0.28526798,-1.9042654,-2.1334074,-2.918775,-20.359455,-28.114004
0.4104227,-1.6556453,-1.9149122,-0.7521167,-20.842472,-25.729076
0.5140642,-1.4198507,-1.719441,0.60983557,-20.70882,-23.95782
0.5870953,-1.2300624,-1.5589024,1.5031382,-20.073263,-22.667114
0.6388672,-1.0833755,-1.4384644,2.2549055,-19.042585,-21.774273
0.6732253,-0.9606211,-1.3576788,2.9525225,-17.890879,-21.154808
0.6993981,-0.84544635,-1.3012685,3.3426597,-16.901512,-20.640827
0.7256552,-0.7352389,-1.2533737,3.3325593,-16.144503,-20.273525
0.76998556,-0.6302676,-1.1907834,3.0827134,-15.237544,-19.984575
0.8141617,-0.52887404,-1.1287804,2.671355,-13.961303,-19.807852
0.8443297,-0.42795894,-1.079692,2.0267544,-12.4698,-19.71103
0.8531676,-0.32990846,-1.0469846,1.1468387,-10.960614,-19.671835
0.8495531,-0.23355268,-1.0211837,-0.14959913,-9.5946045,-19.57447
0.84946746,-0.14285019,-0.9951,-1.7423539,-8.25453,-19.570963
0.85897285,-0.061341714,-0.97224617,-3.4030457,-6.8348746,-19.749058
0.8813263,0.018999057,-0.95391023,-5.220551,-5.462493,-20.007774
0.92236066,0.10506473,-0.9324465,-7.259606,-4.222045,-20.115314
0.9809922,0.20376974,-0.90167445,-9.85003,-3.021189,-19.878485
1.036072,0.30814895,-0.8810016,-12.628998,-1.627292,-19.604156
1.0676627,0.40924835,-0.8875561,-15.423573,-0.12576121,-19.501736
1.0662363,0.50437385,-0.9206321,-18.27557,1.3937882,-19.777868
1.0263594,0.58644515,-0.9816856,-21.195215,2.8831866,-20.495483
0.94127667,0.6429499,-1.0687158,-24.204237,3.9413884,-21.645763
0.805198,0.65931225,-1.1762525,-27.382751,4.4761295,-22.979221
0.6450873,0.644048,-1.2944319,-30.616453,4.3275266,-24.40047
0.47586858,0.6002915,-1.4136237,-33.94904,3.4716277,-25.77656
0.311977,0.5337135,-1.5284015,-37.08082,2.0658164,-27.201607
0.1553817,0.43758807,-1.63772,-39.6667,0.14945553,-28.995457
-0.005864072,0.2970387,-1.7267904,-41.89289,-2.0461042,-30.92204
-0.17634727,0.122207865,-1.8128523,-43.69829,-4.6693125,-32.76013
-0.3453795,-0.074403845,-1.8986082,-45.127216,-7.865157,-34.32007
-0.496862,-0.29466555,-1.9854487,-46.34095,-11.615783,-35.489166
-0.6123811,-0.53942853,-2.0671353,-46.834087,-15.958544,-36.079056
-0.67688227,-0.7728583,-2.11368,-46.87227,-20.59385,-36.104046
-0.71480054,-0.9812657,-2.131504,-46.668842,-25.498451,-35.66501
-0.7259707,-1.1882637,-2.1142983,-46.127563,-30.280231,-34.893944
-0.7173866,-1.4031657,-2.0841622,-44.913765,-34.717472,-33.83495
-0.6928812,-1.6239152,-2.0445693,-42.625244,-38.78933,-32.19834
-0.65023917,-1.8379055,-1.9746552,-39.682045,-42.30771,-29.995733
-0.6141324,-2.0219734,-1.8928032,-36.246647,-45.272118,-27.623837
-0.5995815,-2.1758983,-1.8128498,-32.368046,-47.87459,-25.717936
-0.59622115,-2.3085413,-1.735011,-28.083847,-50.09262,-24.397152
-0.5911421,-2.4328372,-1.6583309,-23.52267,-51.652565,-23.455505
-0.5844323,-2.5570638,-1.603104,-18.485888,-52.802967,-22.711357
-0.56560653,-2.6611898,-1.5659167,-12.942859,-53.56307,-21.977701
-0.5178958,-2.711862,-1.5478424,-7.0903096,-54.210533,-20.947136
-0.43338206,-2.682427,-1.533646,-1.4769883,-55.13257,-19.594797
-0.31279033,-2.5997033,-1.500372,3.6636019,-56.101807,-18.31829
-0.14859532,-2.4925985,-1.4244423,8.348946,-56.337097,-17.331535
0.029877413,-2.38185,-1.3335232,12.724131,-55.347206,-16.567701
0.19969133,-2.2662232,-1.2570671,16.931377,-53.49133,-15.941081
0.34743527,-2.1365647,-1.2050729,21.018284,-51.3157,-15.248288
0.45211443,-1.991694,-1.1770648,24.900867,-49.549465,-14.611915
0.5370034,-1.8479717,-1.1384212,28.150055,-47.871735,-13.919281
0.625934,-1.7255794,-1.0869151,30.87792,-45.882214,-13.122464
0.7152116,-1.6179801,-1.0368823,33.328506,-43.19549,-12.186605
0.7859328,-1.4926664,-1.0203066,35.581364,-39.931175,-11.209692
0.79234564,-1.3437902,-1.0531954,37.226738,-37.4208,-10.689271
0.77745354,-1.2043941,-1.0696337,38.264935,-35.4304,-10.257768
0.78112745,-1.0943648,-1.0610188,38.907944,-33.45696,-9.620489
0.79187244,-0.99633163,-1.0344583,39.231255,-31.072691,-8.585606
0.7964374,-0.9024151,-1.0040791,39.16877,-28.216248,-7.137132
0.7836808,-0.8078609,-0.98227626,38.936687,-24.963547,-5.5569434
0.7320115,-0.7007596,-0.979832,38.27545,-21.872171,-4.091221
0.66598076,-0.60120636,-0.9828656,37.206245,-19.260921,-2.864016
0.60845333,-0.5180762,-0.975472,35.696243,-16.834541,-1.8105947
0.5713942,-0.46174163,-0.9544224,34.050743,-14.227172,-0.8530856
0.5535644,-0.44733348,-0.9246407,32.988228,-13.783229,-0.82646596
0.5362937,-0.43337706,-0.89579266,31.959023,-13.353204,-0.80068094
0.51956415,-0.41985798,-0.8678487,30.96207,-12.936654,-0.7757039
0.50335866,-0.40676236,-0.84078,29.996346,-12.533153,-0.75150925
0.48766062,-0.39407682,-0.8145589,29.060862,-12.142286,-0.7280722
0.4724539,-0.38178834,-0.7891585,28.154657,-11.763654,-0.70536876
0.45772302,-0.36988437,-0.76455295,27.276808,-11.396869,-0.6833757
0.44345292,-0.35835275,-0.74071705,26.426418,-11.041556,-0.66207063
0.42962906,-0.34718174,-0.7176265,25.602623,-10.697355,-0.64143175
0.41623735,-0.33635995,-0.6952578,24.804579,-10.3639145,-0.621438
0.4032642,-0.32587638,-0.6735882,24.031477,-10.040895,-0.60206926
0.39069638,-0.31572038,-0.6525957,23.282532,-9.727969,-0.58330566
0.37852117,-0.30588165,-0.63225895,22.556982,-9.424818,-0.5651282
0.36672622,-0.29635018,-0.6125574,21.854092,-9.131135,-0.54751843
0.35529956,-0.28711632,-0.593471,21.173151,-8.8466215,-0.53045857
0.34422964,-0.27817076,-0.57498044,20.513468,-8.5709915,-0.5139313
0.33350524,-0.26950443,-0.5570671,19.874374,-8.303964,-0.4979199
0.32311556,-0.26110855,-0.5397127,19.255228,-8.04527,-0.48240817
0.31305003,-0.25297463,-0.5228999,18.6554,-7.7946486,-0.46738046
0.30329856,-0.2450945,-0.50661165,18.074286,-7.551846,-0.45282158
0.29385126,-0.23746017,-0.49083143,17.5113,-7.316617,-0.4387169
0.28469864,-0.23006396,-0.47554344,16.965872,-7.0887256,-0.4250521
0.27583143,-0.22289841,-0.4607322,16.437454,-6.8679404,-0.41181347
0.26724073,-0.2159563,-0.44638282,15.925514,-6.6540403,-0.39898765
0.2589179,-0.20923063,-0.43248084,15.429536,-6.4468093,-0.38656172
0.25085452,-0.20271465,-0.41901228,14.949019,-6.246039,-0.3745232
0.2430425,-0.19640179,-0.40596354,14.483483,-6.0515275,-0.36285993
0.23547398,-0.1902857,-0.39332154,14.032457,-5.8630786,-0.3515602
0.22814135,-0.18436024,-0.3810736,13.595489,-5.680503,-0.34061268
0.22103725,-0.17861943,-0.36920732,13.172138,-5.503618,-0.33000633
0.21415453,-0.17305753,-0.35771084,12.76198,-5.3322444,-0.3197305
0.20748627,-0.16766894,-0.34657258,12.364603,-5.166211,-0.30977485
0.2010258,-0.16244824,-0.33578137,11.979608,-5.0053515,-0.3001294
0.1947666,-0.1573902,-0.32532638,11.6066065,-4.849503,-0.2907845
0.1887024,-0.15248975,-0.3151971,11.245227,-4.6985106,-0.2817307
0.18282712,-0.14774196,-0.3053834,10.895105,-4.552222,-0.272959
0.17713487,-0.14314206,-0.2958754,10.55589,-4.41049,-0.2644605
0.17161992,-0.13868545,-0.2866636,10.2272415,-4.273173,-0.25622675
0.16627675,-0.13436766,-0.2777387,9.90883,-4.1401334,-0.24824947
0.16110002,-0.13018435,-0.26909176,9.600335,-4.0112376,-0.24052066
0.15608451,-0.12613134,-0.26071417,9.301449,-3.886356,-0.23303255
0.15122521,-0.122204565,-0.25259748,9.011871,-3.7653642,-0.22577767
0.14651725,-0.118400075,-0.24473359,8.731313,-3.6481402,-0.21874873
0.1419559,-0.11471406,-0.23711458,8.459491,-3.534567,-0.21193868
0.1375366,-0.111142844,-0.22973286,8.196135,-3.4245307,-0.20534071
0.13325492,-0.10768283,-0.22258098,7.940979,-3.317921,-0.1989482
0.12910657,-0.10433057,-0.21565184,7.693769,-3.2146308,-0.19275478
0.1250874,-0.10108268,-0.20893845,7.4542565,-3.1145573,-0.18675418
0.12119337,-0.09793594,-0.20243411,7.2222023,-3.0175998,-0.18094045
0.1174206,-0.094887175,-0.19613229,6.997374,-2.9236612,-0.17530774
0.11376529,-0.09193333,-0.1900267,6.779546,-2.8326478,-0.16985041
0.11022381,-0.08907147,-0.18411121,6.5685,-2.744468,-0.164563
0.10679258,-0.08629871,-0.1783799,6.364025,-2.6590338,-0.15944022
0.10346819,-0.08361228,-0.17282704,6.1659164,-2.5762596,-0.15447693
0.1002473,-0.08100949,-0.16744705,5.973976,-2.4960625,-0.14966817
0.09712669,-0.07848774,-0.16223457,5.7880116,-2.4183624,-0.14500915
0.09410324,-0.07604449,-0.15718438,5.6078367,-2.3430812,-0.14049515
0.09117392,-0.073677324,-0.15229142,5.4332714,-2.2701437,-0.1361217
0.08833579,-0.07138384,-0.14755078,5.2641406,-2.1994772,-0.13188441
0.08558602,-0.069161765,-0.14295773,5.1002755,-2.1310105,-0.12777904
0.08292186,-0.06700887,-0.13850768,4.9415116,-2.0646756,-0.12380148
0.08034064,-0.06492299,-0.13419616,4.7876906,-2.0004056,-0.11994774
0.07783978,-0.06290205,-0.13001888,4.638658,-1.9381365,-0.11621398
0.075416766,-0.060944024,-0.12597163,4.494265,-1.8778058,-0.11259645
0.073069185,-0.059046954,-0.12205037,4.3543673,-1.8193533,-0.109091535
0.07079469,-0.05720894,-0.11825118,4.218825,-1.7627206,-0.10569574
0.068591,-0.055428147,-0.114570275,4.0875015,-1.7078507,-0.10240565
0.06645591,-0.053702787,-0.11100395,3.9602664,-1.654689,-0.09921798
0.064387284,-0.052031137,-0.10754864,3.836992,-1.6031822,-0.096129544
0.062383056,-0.05041153,-0.1042009,3.7175553,-1.5532788,-0.09313726
0.06044122,-0.048842337,-0.10095737,3.6018367,-1.504929,-0.09023811
0.058559828,-0.04732199,-0.097814806,3.48972,-1.4580841,-0.08742922
0.056737006,-0.045848973,-0.094770074,3.3810937,-1.4126976,-0.08470776
0.054970924,-0.04442181,-0.09182012,3.2758486,-1.3687238,-0.08207102
0.05325982,-0.043039072,-0.088961996,3.1738799,-1.326119,-0.07951636
