ax,ay,az,gx,gy,gz
-0.7090973,-0.36091238,0.2954572,-17.256521,-42.004017,17.14561
-0.56515795,-0.4395712,0.47153217,-26.279604,-48.017975,20.026993
-0.41031042,-0.88212395,0.73506355,-9.700027,-46.129723,15.172397
-0.27240774,-1.0833255,0.9967474,9.723261,-41.38126,12.070587
-0.17801413,-1.1140412,1.370301,25.471533,-35.745304,11.555497
0.00038632425,-1.0872251,1.9575748,35.276062,-31.254025,13.400628
0.3036266,-0.99484843,2.6951072,39.57985,-27.542398,16.505713
0.72603583,-0.89634556,3.550123,38.06522,-21.948969,20.40641
1.1635909,-0.92148995,4.317861,34.766975,-12.681197,24.116398
1.4959344,-1.0547886,4.8700137,32.89154,-0.86276567,27.846247
1.7522609,-1.1559187,5.2428336,32.089417,11.121966,31.835793
1.962883,-1.1779809,5.5035477,32.316826,23.136202,35.52928
2.1527264,-1.1065542,5.691093,33.12668,34.497368,38.567245
2.371885,-0.9476581,5.837929,33.49899,45.603416,41.019188
2.5932393,-0.73927337,5.8903894,33.944088,57.589447,42.326324
2.773783,-0.45834738,5.800786,34.102764,69.39577,42.961372
2.898035,-0.14385067,5.5998816,33.576008,80.82063,42.923008
2.983205,0.15836751,5.3196826,32.5648,91.27255,42.292652
3.0525434,0.44794434,4.996241,30.875431,100.20818,41.115982
3.1283824,0.7149964,4.658274,28.182604,107.85971,39.292164
3.216111,0.94761485,4.289692,25.398943,114.851494,36.88564
3.298773,1.1380875,3.8962443,22.886787,121.23781,33.96426
3.369619,1.3083369,3.4745412,20.663855,126.87859,30.589966
3.4227638,1.4766192,3.0292761,18.187143,131.59439,26.969032
3.4616766,1.6361287,2.5626347,15.191059,135.03003,22.909014
3.4819052,1.7770191,2.0632143,11.963314,137.33887,18.460367
3.482405,1.8896312,1.5471488,8.618685,138.49818,13.668924
3.4626741,1.9667387,1.0089116,5.57795,138.29366,8.662969
3.4340937,2.0246277,0.47027218,2.5332057,136.72766,3.6350017
3.409316,2.053469,-0.045179397,-1.0409092,133.61038,-1.3560268
3.393151,1.9890493,-0.5383408,-4.8020916,129.69977,-6.041958
3.3699522,1.8288544,-1.0261891,-7.991665,124.88186,-10.330915
3.3473024,1.5742887,-1.4903013,-9.928839,119.2147,-14.070009
3.3359027,1.2424146,-1.9039161,-10.624685,113.0284,-16.899473
3.3217704,0.86969733,-2.2640767,-10.245239,106.06477,-18.14416
3.2986405,0.48202065,-2.572922,-9.450583,98.37028,-18.148214
3.2875342,0.10561178,-2.8192997,-8.518316,89.92189,-16.8085
3.2936058,-0.23381911,-2.9904127,-7.6228833,80.931915,-14.250627
3.3096583,-0.5226177,-3.09335,-6.6284676,71.78152,-10.852799
3.3324513,-0.75109446,-3.1275628,-5.435347,62.682335,-6.644053
3.3524928,-0.9039151,-3.061467,-3.9413805,53.984528,-1.9330443
3.3659627,-0.9549268,-2.8924258,-1.9893721,45.74041,3.1040413
3.3680975,-0.8632915,-2.6105628,0.086806685,38.22993,8.000782
3.357654,-0.5985766,-2.1995015,1.8339343,31.867817,12.103728
3.3273904,-0.22793156,-1.7027856,2.6819391,27.577898,14.702942
3.2440119,0.21714282,-1.1692083,2.6566086,24.801907,15.994842
3.1284175,0.6655002,-0.6703419,1.7917558,23.433905,15.982076
2.990423,1.0872779,-0.2421217,0.25655845,23.247704,14.73473
2.847519,1.461011,0.093575746,-1.8331393,23.945047,12.403194
2.7143245,1.7709997,0.32905704,-4.5273914,25.419859,8.948961
2.5972798,1.9830432,0.43738717,-7.1146326,27.13982,4.8635087
2.5003104,2.124471,0.47472844,-9.374964,28.867352,0.3104669
2.4268377,2.2015257,0.45008302,-11.294474,30.510872,-4.479335
2.370463,2.2148798,0.36126885,-12.804851,31.87335,-9.348982
2.329833,2.1610181,0.21536578,-13.725241,32.65946,-14.112341
2.3045924,1.9861102,-0.012520898,-14.049802,32.902992,-18.466698
2.2810614,1.7053818,-0.29329437,-13.565733,32.385014,-22.044117
2.2610352,1.3372645,-0.59905547,-12.060976,30.921608,-24.406118
2.255186,0.9438822,-0.88981235,-9.674958,28.52959,-25.403383
2.2641702,0.58082956,-1.1405965,-6.628197,25.383593,-24.856245
2.2705312,0.29336688,-1.3383943,-3.5639422,21.80331,-23.450111
2.267825,0.071334645,-1.4981338,-0.80273396,17.897518,-21.391245
2.2644372,-0.101093724,-1.6253984,1.4916229,13.784301,-18.84967
2.2586837,-0.2562805,-1.7291464,3.5178087,9.543543,-15.984586
2.2573104,-0.3982888,-1.8065208,5.6099157,5.271649,-12.630687
2.2502685,-0.4890519,-1.8439434,8.1891775,0.93195635,-9.222734
2.2463822,-0.4993056,-1.8139802,10.862777,-3.3405864,-5.840524
2.2400358,-0.42667678,-1.7120262,13.086782,-7.2930923,-2.5803592
2.2212236,-0.29200813,-1.5589187,14.602527,-10.828148,0.38699648
2.1921995,-0.11653437,-1.3593732,15.073033,-13.723345,2.7685003
2.1612449,0.0721333,-1.1207541,14.989548,-15.896303,4.6664534
2.123114,0.24344382,-0.88048244,14.483821,-17.428556,6.1889715
2.0736375,0.39708835,-0.65164626,13.785521,-18.443054,7.3491445
2.0174174,0.5420249,-0.4344387,13.021162,-18.978914,8.099431
1.9606355,0.6796378,-0.23148908,12.16009,-18.96162,8.332036
1.906914,0.8021466,-0.052142046,11.224823,-18.566326,8.209379
1.857822,0.90991026,0.103966884,10.098177,-17.859766,7.8688335
1.8127588,0.99891365,0.23472103,8.722895,-16.875462,7.3639235
1.7706723,1.0623729,0.33860803,7.164978,-15.684288,6.7290444
1.7325019,1.1005421,0.41542342,5.515069,-14.341141,6.0666013
1.6958474,1.1112361,0.45554563,4.0626574,-12.987554,5.3909254
1.6594924,1.1071362,0.47451112,2.749245,-11.691017,4.800419
1.6260993,1.0962473,0.47720048,1.5145513,-10.376646,4.392105
1.5956013,1.0805833,0.4697119,0.616881,-9.067983,4.085171
1.5678709,1.065264,0.45376012,-0.02189413,-7.732206,3.8743448
1.5186381,1.0318136,0.4395116,-0.021206634,-7.489407,3.7526865
1.4709771,0.99943113,0.42571792,-0.020541083,-7.254359,3.6349118
1.4248351,0.9680807,0.4123639,-0.019896744,-7.026802,3.520891
1.3801616,0.9377281,0.3994349,-0.019272914,-6.806488,3.410499
1.3369081,0.90834016,0.38691682,-0.01866891,-6.5931764,3.3036158
1.2950276,0.87988514,0.3747961,-0.01808408,-6.386636,3.2001255
1.254475,0.85233235,0.3630597,-0.017517794,-6.186644,3.0999165
1.2152066,0.8256521,0.35169497,-0.016969442,-5.992986,3.0028808
1.1771806,0.79981595,0.3406898,-0.016438438,-5.8054547,2.9089153
1.1403564,0.7747964,0.33003247,-0.015924215,-5.6238503,2.8179197
1.1046951,0.75056684,0.31971166,-0.015426232,-5.4479804,2.7297974
1.0701587,0.72710174,0.30971643,-0.014943958,-5.2776594,2.6444552
1.0367111,0.7043763,0.3000363,-0.014476887,-5.112707,2.561803
1.004317,0.68236667,0.29066107,-0.014024529,-4.9529505,2.4817545
0.97294265,0.66104984,0.28158095,-0.013586408,-4.798222,2.4042256
0.94255507,0.6404035,0.27278644,-0.013162068,-4.648361,2.3291352
0.9131227,0.62040615,0.26426837,-0.012751068,-4.5032105,2.2564054
0.88461494,0.601037,0.2560179,-0.012352979,-4.3626204,2.1859603
0.8570023,0.5822761,0.24802646,-0.011967389,-4.226444,2.117727
0.83025616,0.56410384,0.24028581,-0.0115939,-4.094541,2.051635
0.80434895,0.54650164,0.23278797,-0.011232125,-3.9667754,1.987616
0.7792539,0.5294512,0.22552517,-0.010881691,-3.8430154,1.925604
0.7549453,0.51293516,0.21848997,-0.01054224,-3.7231336,1.8655353
0.73139817,0.4969364,0.21167515,-0.010213422,-3.607007,1.8073481
0.7085883,0.48143864,0.20507371,-0.0098949,-3.4945166,1.7509831
0.6864924,0.46642596,0.19867891,-0.009586347,-3.3855472,1.6963823
0.6650879,0.45188302,0.1924842,-0.0092874495,-3.2799873,1.6434898
0.644353,0.43779498,0.18648326,-0.008997901,-3.1777296,1.592252
0.6242664,0.4241475,0.18066996,-0.0087174075,-3.0786695,1.5426164
0.60480773,0.41092664,0.17503841,-0.008445683,-2.9827063,1.4945323
0.5859573,0.398119,0.16958287,-0.00818245,-2.8897421,1.4479512
0.5676958,0.38571155,0.16429779,-0.007927443,-2.7996826,1.4028256
0.5500048,0.37369168,0.15917781,-0.007680401,-2.7124367,1.3591095
0.5328663,0.36204723,0.15421772,-0.007441075,-2.6279154,1.3167589
0.51626295,0.35076636,0.14941253,-0.007209222,-2.5460334,1.2757305
0.500178,0.33983767,0.14475735,-0.0069846073,-2.4667077,1.2359831
0.48459506,0.32925013,0.14024746,-0.0067670033,-2.389858,1.1974764
0.46949843,0.31899297,0.13587832,-0.0065561906,-2.3154066,1.1601713
0.45487288,0.3090559,0.13164552,-0.0063519557,-2.2432785,1.1240304
0.44070363,0.29942882,0.12754478,-0.006154093,-2.1734004,1.0890169
0.42697638,0.29010206,0.12357195,-0.005962402,-2.1057024,1.0550957
0.41367728,0.2810662,0.11972303,-0.0057766903,-2.0401156,1.0222324
0.40079293,0.27231213,0.11599415,-0.00559677,-1.9765744,0.99039406
0.38831034,0.26383105,0.11238154,-0.0054224604,-1.9150145,0.9595485
0.37621695,0.2556144,0.10888157,-0.005253585,-1.8553741,0.9296647
0.36450058,0.2476539,0.105490714,-0.005089975,-1.7975929,0.9007125
0.35314944,0.23994157,0.10220557,-0.004931465,-1.7416129,0.87266284
0.34215212,0.2324696,0.09902281,-0.0047778953,-1.6873779,0.84548753
0.33149755,0.22523054,0.095939256,-0.0046291123,-1.6348332,0.81915915
0.32117504,0.21821707,0.0929518,-0.0044849664,-1.5839261,0.79365134
0.31117418,0.21142218,0.09005744,-0.0043453122,-1.5346053,0.76893836
0.30148497,0.20483899,0.087253265,-0.0042100097,-1.4868214,0.7449955
0.29209766,0.19846094,0.08453647,-0.004078923,-1.4405264,0.72179866
0.28300282,0.1922816,0.081904314,-0.00395192,-1.3956738,0.6993245
0.27419132,0.18629478,0.07935417,-0.0038288746,-1.3522184,0.67755055
0.26565436,0.18049446,0.076883465,-0.003709662,-1.3101169,0.6564549
0.2573833,0.17487483,0.07448973,-0.0035941629,-1.2693269,0.6360164
0.24936987,0.16943026,0.07217055,-0.0034822617,-1.2298075,0.6162146
0.24160607,0.16415526,0.06992362,-0.003373846,-1.191519,0.59702957
0.23408408,0.15904456,0.06774666,-0.0032688072,-1.1544231,0.57844204
0.22679637,0.15409306,0.065637514,-0.00316704,-1.1184826,0.5604335
0.21973564,0.14929575,0.06359406,-0.003068442,-1.0836614,0.5429858
0.2128948,0.14464785,0.061614238,-0.0029729148,-1.0499247,0.5260815
0.206267,0.1401447,0.059696075,-0.0028803626,-1.0172387,0.50970364
0.1998456,0.1357818,0.057837646,-0.0027906925,-0.98557055,0.49383578
0.19362415,0.13155474,0.05603709,-0.002703815,-0.9548885,0.47846207
0.18759646,0.12745932,0.054292604,-0.0026196428,-0.92516196,0.4635671
0.18175645,0.12349143,0.052602436,-0.0025380915,-0.89636105,0.44913596
0.1760983,0.119647086,0.0509649,-0.0024590795,-0.86845696,0.43515417
0.17061633,0.11592244,0.049378354,-0.0023825278,-0.84142166,0.42160773
0.16530503,0.112313785,0.047841206,-0.0023083598,-0.8152282,0.4084831
0.16015913,0.10881747,0.046351917,-0.002236501,-0.78985035,0.3957671
0.15517344,0.10543003,0.044909,-0.0021668796,-0.7652626,0.38344702
0.15034297,0.102148056,0.04351101,-0.002099426,-0.7414404,0.37151054
0.1456629,0.09896826,0.042156544,-0.0020340723,-0.71835995,0.35994568
0.14112855,0.09588747,0.04084425,-0.0019707535,-0.695998,0.34874088
0.13673536,0.09290259,0.03957281,-0.001909406,-0.6743323,0.33788493
0.13247895,0.09001064,0.038340956,-0.0018499685,-0.6533412,0.32736698
0.12835506,0.087208726,0.03714745,-0.0017923813,-0.63300353,0.31717646
0.12435955,0.08449405,0.035991102,-0.001736587,-0.613299,0.30730322
0.12048843,0.08186387,0.034870755,-0.0016825298,-0.59420794,0.29773736
0.11673782,0.07931559,0.033785287,-0.0016301554,-0.57571125,0.28846928
0.11310398,0.07684663,0.032733608,-0.0015794114,-0.55779034,0.27948973
0.10958326,0.07445454,0.031714674,-0.0015302473,-0.5404274,0.2707897
0.10617214,0.07213691,0.030727455,-0.0014826136,-0.5236049,0.26236057
0.102867216,0.06989143,0.029770972,-0.0014364629,-0.50730616,0.2541938
0.09966517,0.06771586,0.028844263,-0.0013917488,-0.49151474,0.24628128
0.09656281,0.06560801,0.027946403,-0.0013484267,-0.47621495,0.23861508
0.09355702,0.063565776,0.027076494,-0.0013064531,-0.46139145,0.23118752
0.09064481,0.06158712,0.026233666,-0.0012657862,-0.44702938,0.22399119
0.08782325,0.059670057,0.025417073,-0.0012263852,-0.4331144,0.21701886
0.08508952,0.057812672,0.024625901,-0.0011882108,-0.4196326,0.21026358
0.0824409,0.056013107,0.023859357,-0.0011512247,-0.40657046,0.2037186
0.07987472,0.05426956,0.023116674,-0.00111539,-0.39391494,0.19737735
0.07738842,0.052580286,0.022397112,-0.0010806707,-0.3816534,0.1912335
