ax,ay,az,gx,gy,gz
-0.6481877,-0.048182257,-4.402767,34.568497,2.1636562,9.3773575
-0.77483845,-0.08001871,-4.7788105,18.15588,-15.007573,8.922638
-0.44881627,0.036973406,-4.735891,2.1895826,-26.21349,7.084587
0.018231712,0.17431699,-4.6847525,-14.916984,-34.797794,4.9617167
0.34887394,-0.14143811,-4.795294,-20.198917,-38.288605,0.77943766
0.59762615,-0.4791305,-5.0280895,-19.219728,-39.58843,-3.0969048
0.74383223,-0.73930365,-5.3185267,-17.217018,-41.377598,-4.6236715
0.7790397,-1.0287992,-5.6893,-14.823336,-45.719395,-4.0503006
0.8050055,-1.4279314,-6.0933228,-11.612883,-52.285774,-0.67177546
0.86969274,-1.8240112,-6.479685,-7.07232,-58.984398,3.1956155
0.91402715,-2.132378,-6.7738113,-0.46336323,-65.23884,6.0343914
0.9449538,-2.3316178,-6.9380355,6.806789,-70.4979,8.680036
0.9343755,-2.4389112,-7.0117054,11.589534,-76.4671,12.769482
0.92961776,-2.5281045,-6.973891,13.230439,-83.551735,18.88099
0.95120674,-2.6700528,-6.797161,14.789092,-91.20237,24.519058
1.0566252,-2.7471836,-6.470484,17.2337,-98.636795,28.889214
1.2398278,-2.752322,-5.9729905,20.045805,-104.75253,32.493134
1.4807342,-2.7522418,-5.334322,21.554892,-109.45019,36.838657
1.7168541,-2.734106,-4.568431,22.798672,-111.647316,41.50907
1.917916,-2.6088042,-3.689438,24.693415,-112.00065,45.570866
2.0884213,-2.4063954,-2.79978,26.895502,-110.79367,49.176483
2.2618825,-2.1387553,-1.9080372,29.215105,-107.97712,52.050217
2.465349,-1.8212183,-1.0075841,32.1168,-103.224174,53.850758
2.701818,-1.4639931,-0.12258566,34.94231,-95.68225,54.76021
2.901641,-1.0837917,0.6611578,37.098316,-86.81048,54.959206
3.0272322,-0.69701684,1.2746247,38.388893,-76.83542,54.304417
3.0813892,-0.2995616,1.7158175,38.592377,-66.947624,52.90356
3.0860364,0.074082874,2.0224743,37.818104,-57.180237,50.664326
3.052445,0.3274673,2.2084038,36.439194,-47.148018,47.80177
2.993298,0.45135915,2.2434585,35.550446,-37.183056,44.349514
2.9549356,0.5464329,2.1896002,35.877895,-27.175097,40.43748
2.9162834,0.6719818,2.059615,36.817085,-17.603228,36.23664
2.8374715,0.8339062,1.8270301,37.248905,-9.78326,31.786837
2.75695,0.96922415,1.522355,36.44254,-4.255776,27.345192
2.7474372,1.0570217,1.1374847,35.292767,0.14761882,22.96955
2.7563848,1.0803128,0.68530357,34.090366,3.602503,18.680515
2.7346601,1.0349143,0.14900891,33.530468,5.7632,14.386561
2.6864636,0.9595765,-0.4608197,33.436123,6.175101,10.272348
2.617602,0.8751533,-1.1185625,33.235794,4.284628,6.3764715
2.5345027,0.840008,-1.7890844,31.853106,0.9253465,2.6304767
2.4538183,0.79297656,-2.3882124,29.241371,-3.3797352,-0.16957697
2.3608112,0.75509757,-2.9220378,25.328724,-8.208705,-1.8690189
2.215449,0.7030699,-3.4233956,21.374292,-13.959216,-3.4802735
2.056293,0.6001131,-3.8376682,18.413858,-20.665634,-5.3574266
1.9571952,0.5236671,-4.077506,15.212224,-27.534685,-7.056252
1.9314039,0.37644333,-4.1411853,11.8203125,-34.21547,-8.2681465
2.0011811,0.16674358,-3.9992492,7.8878293,-40.32364,-8.589484
2.1445744,-0.106155545,-3.6743371,4.2616277,-45.628944,-8.65285
2.342609,-0.38330346,-3.1950269,2.4515696,-49.373463,-9.429525
2.586701,-0.557359,-2.5462968,0.9012659,-51.35605,-9.85067
2.8101206,-0.67026585,-1.8582838,-1.0250435,-51.122585,-9.582246
2.9763145,-0.7672505,-1.2267423,-2.8957086,-49.00942,-8.853006
3.0690422,-0.84200734,-0.71355,-4.9072976,-45.35556,-7.8007812
3.0893643,-0.89150196,-0.33663213,-6.8595414,-40.663574,-6.82669
2.987021,-0.86196864,-0.32548028,-6.632301,-39.316483,-6.6005383
2.8884451,-0.83352244,-0.314739,-6.413426,-38.018986,-6.3827114
2.7934635,-0.8061135,-0.30438933,-6.2025313,-36.768795,-6.172827
2.7019136,-0.77969486,-0.29441363,-5.9992566,-35.563778,-5.9705253
2.6136434,-0.7542226,-0.28479528,-5.8032637,-34.401924,-5.775471
2.5285099,-0.72965544,-0.2755187,-5.614235,-33.281357,-5.587348
2.446378,-0.70595455,-0.26656923,-5.431872,-32.200302,-5.405858
2.3671215,-0.68308336,-0.25793302,-5.2558928,-31.157093,-5.2307215
2.2906203,-0.66100734,-0.2495971,-5.0860314,-30.150152,-5.061674
2.2167618,-0.6396939,-0.24154912,-4.922038,-29.177994,-4.898466
2.1454391,-0.6191122,-0.23377745,-4.763675,-28.239214,-4.7408614
2.076551,-0.5992331,-0.22627106,-4.610718,-27.332478,-4.588637
2.0100017,-0.58002883,-0.21901953,-4.4629536,-26.456526,-4.44158
1.9457002,-0.56147325,-0.21201292,-4.3201804,-25.61016,-4.2994905
1.8835601,-0.54354143,-0.20524183,-4.182206,-24.792246,-4.162177
1.8234992,-0.5262096,-0.19869731,-4.0488486,-24.001698,-4.029458
1.7654394,-0.5094552,-0.19237083,-3.919934,-23.23749,-3.901161
1.7093061,-0.49325675,-0.1862543,-3.7952974,-22.49864,-3.7771213
1.6550285,-0.47759378,-0.18033993,-3.6747806,-21.784212,-3.6571817
1.6025386,-0.4624467,-0.17462038,-3.5582335,-21.093317,-3.5411928
1.5517718,-0.44779685,-0.16908857,-3.4455123,-20.425102,-3.4290113
1.5026661,-0.43362635,-0.16373779,-3.3364794,-19.778753,-3.3205006
1.4551625,-0.41991818,-0.15856156,-3.2310035,-19.153488,-3.21553
1.4092042,-0.40665597,-0.15355374,-3.1289592,-18.548567,-3.1139743
1.3647372,-0.39382404,-0.14870839,-3.0302258,-17.963272,-3.0157137
1.3217093,-0.3814074,-0.14401986,-2.9346879,-17.39692,-2.9206333
1.2800708,-0.3693917,-0.13948272,-2.8422346,-16.848854,-2.8286228
1.2397736,-0.35776314,-0.13509175,-2.7527602,-16.318447,-2.7395768
1.2007722,-0.3465084,-0.13084196,-2.6661623,-15.805092,-2.6533937
1.1630222,-0.33561483,-0.12672853,-2.582343,-15.308209,-2.5699759
1.1264812,-0.32507017,-0.122746855,-2.5012085,-14.827241,-2.48923
1.0911086,-0.31486267,-0.11889248,-2.4226682,-14.361651,-2.4110656
1.0568651,-0.30498096,-0.11516115,-2.3466349,-13.910924,-2.3353965
1.0237131,-0.29541424,-0.111548744,-2.273025,-13.474563,-2.2621393
0.9916162,-0.286152,-0.10805131,-2.201758,-13.052089,-2.1912134
0.96053946,-0.27718416,-0.10466504,-2.132756,-12.6430435,-2.122542
0.93044925,-0.26850098,-0.101386264,-2.0659444,-12.246983,-2.0560503
0.901313,-0.2600931,-0.09821144,-2.0012512,-11.863479,-1.991667
0.87309957,-0.25195152,-0.095137164,-1.9386069,-11.492121,-1.9293226
0.84577876,-0.24406749,-0.09216015,-1.8779444,-11.132512,-1.8689507
0.8193214,-0.23643266,-0.08927723,-1.8191991,-10.784268,-1.8104868
0.79369944,-0.22903891,-0.08648534,-1.7623088,-10.4470215,-1.753869
0.76888585,-0.22187841,-0.08378153,-1.7072135,-10.120414,-1.6990374
0.74485445,-0.21494365,-0.08116295,-1.6538548,-9.804102,-1.6459343
0.72158,-0.2082273,-0.078626856,-1.6021769,-9.497754,-1.5945039
0.69903815,-0.20172237,-0.076170586,-1.5521256,-9.201048,-1.5446923
0.6772053,-0.19542205,-0.07379158,-1.5036485,-8.913674,-1.4964474
0.65605885,-0.18931977,-0.07148735,-1.4566953,-8.635335,-1.4497191
0.63557667,-0.1834092,-0.069255516,-1.4112173,-8.36574,-1.4044588
0.61573756,-0.1776842,-0.06709375,-1.3671671,-8.104609,-1.3606195
0.596521,-0.17213887,-0.064999826,-1.3244992,-7.851672,-1.3181561
0.57790726,-0.16676746,-0.06297158,-1.2831697,-7.6066694,-1.2770245
0.55987704,-0.16156445,-0.061006915,-1.2431358,-7.3693476,-1.2371824
0.5424118,-0.1565245,-0.05910382,-1.2043566,-7.139463,-1.1985888
0.5254937,-0.15164241,-0.057260342,-1.166792,-6.916779,-1.1612041
0.5091053,-0.1469132,-0.055474583,-1.1304038,-6.701068,-1.1249901
0.4932299,-0.142332,-0.053744722,-1.0951544,-6.492109,-1.0899096
0.4778512,-0.13789417,-0.052068986,-1.061008,-6.289688,-1.0559267
0.4629536,-0.13359514,-0.050445672,-1.0279298,-6.0935993,-1.0230069
0.44852185,-0.12943055,-0.048873115,-0.99588585,-5.9036417,-0.9911164
0.43454126,-0.12539615,-0.04734972,-0.9648437,-5.719623,-0.96022296
0.4209976,-0.12148783,-0.04587394,-0.9347717,-5.5413556,-0.930295
0.40787712,-0.11770164,-0.04444427,-0.90563935,-5.368658,-0.90130216
0.39516652,-0.11403373,-0.04305926,-0.8774171,-5.2013555,-0.873215
0.38285288,-0.11048037,-0.041717507,-0.8500762,-5.039278,-0.84600514
0.37092373,-0.107037954,-0.04041765,-0.8235891,-4.8822613,-0.8196448
0.359367,-0.10370302,-0.039158374,-0.79792887,-4.730147,-0.7941075
0.34817103,-0.100472175,-0.037938405,-0.77306956,-4.5827804,-0.7693673
0.33732444,-0.09734216,-0.036756508,-0.7489861,-4.4400125,-0.7453991
0.3268163,-0.094309814,-0.035611488,-0.7256541,-4.3017,-0.7221789
0.316636,-0.09137207,-0.034502193,-0.7030501,-4.167702,-0.69968307
0.30677328,-0.088525966,-0.033427503,-0.6811511,-4.0378847,-0.677889
0.29721814,-0.08576864,-0.032386333,-0.6599352,-3.912116,-0.6567747
0.287961,-0.083097294,-0.03137763,-0.6393809,-3.7902696,-0.6363188
0.27899253,-0.08050925,-0.03040038,-0.61946756,-3.6722226,-0.61650085
0.2703037,-0.0780019,-0.029453604,-0.6001751,-3.5578563,-0.59730077
0.26188576,-0.07557272,-0.028536342,-0.5814841,-3.4470556,-0.5786993
0.2537302,-0.07321926,-0.027647674,-0.5633757,-3.3397086,-0.56067765
0.24582887,-0.07093916,-0.026786705,-0.5458318,-3.2357078,-0.5432178
0.2381738,-0.06873013,-0.025952572,-0.5288347,-3.1349483,-0.52630204
0.23075728,-0.06658994,-0.025144434,-0.51236725,-3.037329,-0.5099135
0.2235719,-0.06451644,-0.024361478,-0.49641302,-2.9427516,-0.49403566
0.21661042,-0.062507555,-0.023602922,-0.48095593,-2.8511217,-0.47865257
0.20986582,-0.060561262,-0.022867998,-0.46598044,-2.7623465,-0.4637488
0.20333138,-0.05867561,-0.022155974,-0.45147154,-2.6763372,-0.4493094
0.19700052,-0.0568487,-0.021466132,-0.43741465,-2.5930076,-0.43531984
0.19086687,-0.055078708,-0.020797782,-0.42379567,-2.5122738,-0.42176607
0.1849243,-0.053363852,-0.02015025,-0.41060096,-2.434055,-0.40863454
0.17916684,-0.051702414,-0.019522889,-0.39781725,-2.3582728,-0.39591205
0.17358872,-0.050092727,-0.018915068,-0.3854317,-2.284851,-0.38358584
0.16818434,-0.04853318,-0.01832618,-0.37343198,-2.2137163,-0.37164357
0.16294827,-0.0470222,-0.017755633,-0.36180595,-2.1447968,-0.36007324
0.15787528,-0.04555828,-0.017202856,-0.35054204,-2.078024,-0.34886324
0.15296029,-0.044139955,-0.016667295,-0.3396289,-2.0133307,-0.33800238
0.14819837,-0.042765796,-0.016148413,-0.32905564,-1.950652,-0.32747978
0.14358473,-0.041434433,-0.015645688,-0.31881166,-1.8899252,-0.31728482
0.13911475,-0.04014453,-0.015158619,-0.30888665,-1.8310896,-0.30740738
0.13478398,-0.038894795,-0.014686717,-0.29927072,-1.7740861,-0.2978375
0.13058807,-0.03768397,-0.014229509,-0.28995425,-1.7188576,-0.2885656
0.12652281,-0.036510855,-0.0137865385,-0.28092784,-1.6653489,-0.27958244
0.12258413,-0.035374265,-0.013357361,-0.2721825,-1.6135062,-0.27087897
0.11876808,-0.034273062,-0.012941546,-0.26370946,-1.5632777,-0.26244652
0.11507086,-0.03320615,-0.012538679,-0.25550023,-1.5146133,-0.2542766
0.111488745,-0.032172456,-0.012148354,-0.24754661,-1.467464,-0.24636108
0.10801817,-0.031170946,-0.011770183,-0.23984063,-1.4217826,-0.238692
0.10465564,-0.030200617,-0.011403786,-0.23237456,-1.3775235,-0.2312617
0.101397805,-0.0292605,-0.011048797,-0.22514094,-1.3346425,-0.22406273
0.098241396,-0.02834965,-0.010704859,-0.21813254,-1.2930964,-0.21708788
0.09518325,-0.027467158,-0.010371629,-0.21134233,-1.2528439,-0.2103302
0.09222032,-0.026612142,-0.010048774,-0.20476353,-1.2138445,-0.20378289
0.089349635,-0.025783744,-0.00973597,-0.19838953,-1.1760592,-0.19743942
0.08656832,-0.024981136,-0.009432904,-0.19221397,-1.1394503,-0.19129343
0.08387359,-0.024203513,-0.009139273,-0.18623066,-1.1039811,-0.18533878
0.08126275,-0.0234501,-0.008854783,-0.18043363,-1.0696161,-0.17956951
0.07873319,-0.022720141,-0.008579151,-0.17481706,-1.0363209,-0.17397985
0.076282375,-0.022012908,-0.008312098,-0.16937535,-1.0040622,-0.16856419
0.07390786,-0.02132769,-0.008053359,-0.16410303,-0.97280777,-0.16331711
0.07160726,-0.020663803,-0.0078026745,-0.15899484,-0.94252634,-0.1582334
0.06937829,-0.020020584,-0.0075597945,-0.15404567,-0.9131875,-0.15330793
0.06721869,-0.019397387,-0.007324475,-0.14925058,-0.884762,-0.1485358
0.06512633,-0.018793592,-0.0070964806,-0.14460474,-0.85722136,-0.14391223
0.0630991,-0.018208591,-0.006875584,-0.14010353,-0.8305381,-0.13943256
0.061134975,-0.017641801,-0.0066615636,-0.13574246,-0.8046855,-0.13509236
0.059231993,-0.017092656,-0.0064542056,-0.13151713,-0.7796376,-0.13088727
0.05738825,-0.016560605,-0.006253302,-0.12742333,-0.7553694,-0.12681308
0.055601902,-0.016045114,-0.006058653,-0.12345696,-0.7318567,-0.122865714
