ax,ay,az,gx,gy,gz
-1.0963736,0.37000337,-4.498223,12.484659,14.981046,28.298439
-1.5907683,0.18703845,-5.378151,13.748412,-1.4337397,6.8176694
-1.2822198,0.04612568,-5.6505313,19.581747,-16.49368,-8.364235
-0.5396644,-0.114988506,-5.8954535,19.972767,-27.18867,-15.132375
-0.063034825,-0.64930046,-6.645134,17.29653,-38.56353,-14.181869
0.21582143,-1.3115413,-7.5220428,15.242215,-49.88825,-9.653093
0.4903114,-1.9521668,-8.280917,16.272533,-60.478004,-5.4790215
0.7432373,-2.564389,-8.910764,22.21218,-70.79516,-3.37148
0.95614403,-3.0437264,-9.350711,27.400248,-82.879616,0.23956062
1.1984794,-3.4370766,-9.548573,28.463955,-94.74361,6.538568
1.4763018,-3.8453355,-9.485839,29.065397,-104.71626,14.337355
1.7164708,-4.117206,-9.12332,30.215853,-112.71599,22.06242
1.8761245,-4.2233295,-8.46601,32.24616,-118.88239,28.88583
2.03527,-4.144103,-7.4751205,33.633045,-122.57205,35.652397
2.2889047,-3.835936,-6.049547,33.67171,-123.91306,42.13277
2.5730968,-3.4772294,-4.494985,33.305527,-122.63014,47.692806
2.8180707,-3.0833268,-2.956311,33.229134,-118.67892,51.92125
2.9768841,-2.6306942,-1.5368797,33.697815,-112.175514,54.677193
3.062446,-2.1452022,-0.3014189,34.371,-103.866295,56.21282
3.1196022,-1.688357,0.72713614,34.70421,-93.86692,57.023235
3.1499836,-1.3189106,1.4980094,34.810486,-83.25074,57.39297
3.1585991,-0.98154944,2.0470521,34.736565,-72.364494,56.907345
3.1343043,-0.6820078,2.389416,34.653393,-61.569454,55.366955
3.0468502,-0.40599346,2.5381498,35.049774,-51.054096,52.596973
2.9154167,-0.19423889,2.5049746,35.575405,-41.41936,49.358627
2.8071291,-0.018534174,2.3840623,36.158863,-32.589848,45.830048
2.7126114,0.15529461,2.1735127,37.059097,-24.677824,41.77675
2.607772,0.3655225,1.8671051,38.21612,-18.161552,37.110497
2.5150654,0.6574302,1.4903777,38.54956,-13.25022,31.41467
2.489698,1.0042884,1.0011727,37.37339,-9.787904,25.552603
2.5114532,1.2811767,0.4400762,35.2644,-7.785,19.863495
2.5253098,1.452552,-0.21449232,32.975216,-7.4880915,13.889665
2.5307403,1.5212053,-0.89838576,30.700434,-8.351133,8.128463
2.4817314,1.5415692,-1.6049681,28.451733,-10.645954,2.594035
2.4147124,1.5084596,-2.2504876,25.967302,-14.446948,-2.669258
2.337071,1.3410311,-2.8005495,23.462027,-19.465445,-7.1568933
2.2888446,1.0888683,-3.2254627,20.910227,-25.09835,-10.402056
2.2526748,0.8103433,-3.5001261,18.527523,-30.722748,-12.583989
2.207973,0.5496234,-3.634965,16.390333,-36.692158,-14.270697
2.250756,0.2873511,-3.5386155,14.266692,-42.50563,-15.605723
2.3832412,-0.00024309543,-3.2592666,12.3381,-47.39062,-16.371012
2.543397,-0.263205,-2.8251455,10.647567,-50.94739,-16.714262
2.6930544,-0.47182775,-2.290426,8.764862,-53.088013,-16.666851
2.7933264,-0.6416962,-1.7401217,6.7916627,-53.889286,-16.567677
2.8516614,-0.7756554,-1.2261637,4.868408,-53.667267,-16.312496
2.8771102,-0.901184,-0.78031677,3.0936472,-52.61892,-15.881371
2.8823528,-1.019878,-0.40635994,1.6743976,-50.83645,-15.251062
2.8788424,-1.1071702,-0.10339478,0.4739938,-48.24297,-14.349095
2.8544362,-1.1620905,0.122187115,-0.37038743,-45.022858,-13.204373
2.8089213,-1.1526959,0.25918895,-1.1731656,-41.203518,-11.920668
2.7530718,-1.1151003,0.34178072,-2.0640664,-37.18095,-10.608721
2.6606736,-1.0776755,0.33030993,-1.9947926,-35.93309,-10.252673
2.571788,-1.0416734,0.31927523,-1.9281522,-34.732666,-9.91016
2.4862435,-1.0070245,0.30865526,-1.8640167,-33.577366,-9.580522
2.4038801,-0.97366416,0.29843023,-1.8022662,-32.465027,-9.263142
2.3245487,-0.9415319,0.28858164,-1.7427889,-31.393635,-8.957445
2.2481098,-0.9105712,0.2790921,-1.6854802,-30.36131,-8.662894
2.174433,-0.8807292,0.26994547,-1.6302422,-29.366282,-8.378987
2.1033952,-0.8519562,0.2611265,-1.576983,-28.406898,-8.105249
2.0348818,-0.8242056,0.25262085,-1.5256163,-27.481607,-7.8412385
1.9687841,-0.7974335,0.24441515,-1.4760607,-26.588942,-7.5865374
1.9050003,-0.77159864,0.2364967,-1.4282401,-25.727526,-7.340752
1.8434342,-0.74666196,0.22885355,-1.3820819,-24.896057,-7.1035123
1.7839947,-0.7225867,0.22147442,-1.3375182,-24.093313,-6.8744674
1.726596,-0.69933796,0.21434864,-1.2944845,-23.318127,-6.6532865
1.6711565,-0.67688286,0.20746611,-1.2529198,-22.569403,-6.4396553
1.6175992,-0.6551901,0.20081723,-1.2127662,-21.846098,-6.2332773
1.5658511,-0.6342301,0.19439293,-1.1739688,-21.147224,-6.0338697
1.5158422,-0.6139746,0.18818457,-1.1364757,-20.471844,-5.8411655
1.4675068,-0.5943968,0.18218395,-1.100237,-19.81906,-5.6549087
1.4207816,-0.57547134,0.17638326,-1.0652057,-19.188026,-5.474858
1.375607,-0.5571739,0.17077504,-1.0313368,-18.57793,-5.3007812
1.3319257,-0.5394813,0.16535223,-0.99858755,-17.988003,-5.132459
1.2896831,-0.5223714,0.16010801,-0.9669169,-17.417505,-4.9696813
1.2488273,-0.5058232,0.15503594,-0.936286,-16.865736,-4.812247
1.2093083,-0.4898165,0.15012985,-0.9066573,-16.332022,-4.6599636
1.1710786,-0.47433197,0.14538382,-0.87799525,-15.815721,-4.5126486
1.1340926,-0.4593512,0.14079218,-0.8502656,-15.316215,-4.3701262
1.0983065,-0.4448565,0.13634951,-0.8234357,-14.832915,-4.2322283
1.0636787,-0.43083093,0.13205063,-0.79747415,-14.365258,-4.098793
1.0301691,-0.4172582,0.12789057,-0.77235085,-13.912701,-3.9696665
0.997739,-0.40412277,0.12386453,-0.748037,-13.474724,-3.8446999
0.96635157,-0.39140964,0.11996793,-0.7245048,-13.050829,-3.723751
0.93597126,-0.37910447,0.116196364,-0.70172775,-12.640535,-3.6066833
0.906564,-0.3671934,0.112545595,-0.67968017,-12.243382,-3.493365
0.878097,-0.35566315,0.10901155,-0.65833753,-11.858929,-3.38367
0.85053873,-0.344501,0.10559033,-0.63767624,-11.486747,-3.2774765
0.8238588,-0.3336946,0.10227814,-0.61767346,-11.126428,-3.1746678
0.79802805,-0.32323214,0.09907137,-0.59830725,-10.777576,-3.0751312
0.77301824,-0.31310222,0.095966525,-0.57955664,-10.439813,-2.978758
0.74880236,-0.30329385,0.092960246,-0.5614012,-10.112771,-2.8854444
0.7253543,-0.29379645,0.090049274,-0.54382145,-9.796099,-2.7950892
0.7026488,-0.28459987,0.087230496,-0.5267984,-9.489455,-2.7075958
0.6806617,-0.27569422,0.0845009,-0.5103139,-9.1925125,-2.6228702
0.65936947,-0.26707006,0.08185757,-0.49435046,-8.904956,-2.5408225
0.63874954,-0.2587182,0.07929771,-0.47889107,-8.626479,-2.4613655
0.6187802,-0.25062984,0.07681861,-0.4639194,-8.356788,-2.3844154
0.59944034,-0.24279645,0.07441766,-0.44941968,-8.095597,-2.3098907
0.58070964,-0.23520981,0.07209233,-0.43537667,-7.8426347,-2.2377138
0.56256855,-0.22786194,0.06984019,-0.4217757,-7.597634,-2.1678085
0.544998,-0.2207452,0.0676589,-0.40860254,-7.3603396,-2.1001022
0.52797985,-0.21385218,0.06554618,-0.39584345,-7.1305046,-2.034524
0.51149625,-0.20717572,0.06349982,-0.3834852,-6.90789,-1.971006
0.49553025,-0.20070887,0.061517715,-0.37151495,-6.692265,-1.9094825
0.4800653,-0.19444495,0.059597813,-0.35992038,-6.4834065,-1.8498895
0.46508536,-0.18837751,0.05773813,-0.34868944,-6.281099,-1.7921658
0.45057508,-0.18250029,0.055936746,-0.33781064,-6.0851336,-1.7362517
0.43651953,-0.17680724,0.054191817,-0.3272727,-5.8953094,-1.6820898
0.42290425,-0.17129253,0.052501544,-0.3170649,-5.7114315,-1.6296245
0.4097153,-0.16595049,0.050864197,-0.3071767,-5.5333114,-1.578802
0.39693916,-0.16077566,0.0492781,-0.29759803,-5.3607664,-1.5295702
0.38456276,-0.15576275,0.047741633,-0.28831908,-5.19362,-1.481879
0.37257355,-0.15090665,0.046253227,-0.27933034,-5.0317025,-1.4356796
0.36095923,-0.1462024,0.044811364,-0.27062273,-4.874848,-1.3909247
0.349708,-0.14164522,0.043414578,-0.2621873,-4.722897,-1.3475691
0.3388084,-0.13723046,0.042061444,-0.25401554,-4.575695,-1.3055685
0.32824937,-0.13295364,0.04075059,-0.24609908,-4.4330926,-1.2648802
0.31802016,-0.12881044,0.039480686,-0.23842995,-4.2949452,-1.2254629
0.30811048,-0.12479662,0.038250443,-0.23100032,-4.161112,-1.1872767
0.2985102,-0.12090814,0.037058614,-0.22380269,-4.031458,-1.1502829
0.28920963,-0.11714105,0.035903994,-0.21682976,-3.9058511,-1.114444
0.28019938,-0.11349155,0.034785416,-0.21007447,-3.7841654,-1.0797237
0.2714703,-0.109955944,0.033701744,-0.20353001,-3.6662772,-1.0460871
0.26301363,-0.10653066,0.032651886,-0.19718976,-3.5520673,-1.0135
0.25482076,-0.10321224,0.03163478,-0.19104733,-3.4414208,-0.98192954
0.24688348,-0.099997334,0.030649407,-0.18509649,-3.3342257,-0.9513439
0.23919377,-0.0968827,0.029694764,-0.17933126,-3.230374,-0.9217123
0.23174386,-0.0938652,0.028769894,-0.17374583,-3.129761,-0.89300466
0.22452626,-0.090941794,0.027873864,-0.16833456,-3.0322855,-0.8651923
0.2175337,-0.08810954,0.02700577,-0.163092,-2.937849,-0.83824706
0.21075913,-0.08536558,0.02616474,-0.1580129,-2.8463569,-0.8121419
0.20419575,-0.08270715,0.025349928,-0.15309212,-2.7577167,-0.78685045
0.19783695,-0.0801316,0.024560513,-0.14832473,-2.6718395,-0.7623474
0.19167633,-0.07763631,0.023795703,-0.14370592,-2.5886388,-0.738608
0.18570772,-0.07521879,0.023054726,-0.13923104,-2.5080311,-0.7156085
0.1799251,-0.0728766,0.022336842,-0.13489564,-2.4299352,-0.69332564
0.17432266,-0.0706074,0.021641327,-0.13069531,-2.3542728,-0.67173713
0.1688948,-0.06840891,0.020967484,-0.12662585,-2.2809682,-0.6508213
0.16363604,-0.066278905,0.020314634,-0.1226832,-2.2099473,-0.6305572
0.15854111,-0.064215265,0.019682122,-0.11886337,-2.141139,-0.6109243
0.15360491,-0.062215913,0.019069318,-0.115162544,-2.0744743,-0.5919031
0.14882249,-0.060278844,0.0184756,-0.111577,-2.0098863,-0.5734744
0.14418902,-0.058402114,0.017900378,-0.10810314,-1.9473101,-0.5556198
0.13969988,-0.05658384,0.017343074,-0.10473749,-1.8866832,-0.53832126
0.13535057,-0.0548222,0.016803127,-0.10147667,-1.8279445,-0.52156156
0.13113672,-0.053115427,0.016279997,-0.09831741,-1.7710354,-0.5053238
0.1270541,-0.051461812,0.01577316,-0.095256545,-1.7158986,-0.48959187
0.123098634,-0.049859695,0.0152821075,-0.092291005,-1.662479,-0.47434983
0.11926635,-0.04830747,0.014806348,-0.089417815,-1.610723,-0.45958245
0.11555341,-0.046803586,0.014345405,-0.08663411,-1.5605788,-0.44527495
0.1119561,-0.045346536,0.013898815,-0.08393708,-1.5119962,-0.431413
0.1084708,-0.043934856,0.013466132,-0.08132404,-1.4649262,-0.41798273
0.10509403,-0.042567134,0.013046922,-0.07879237,-1.4193221,-0.40497065
0.101822406,-0.041242,0.012640766,-0.07633953,-1.375138,-0.39236373
0.09865265,-0.039958127,0.012247256,-0.07396306,-1.3323298,-0.38014936
0.0955816,-0.038714234,0.011865999,-0.07166059,-1.2908543,-0.3683153
0.092606165,-0.037509065,0.011496613,-0.069429815,-1.2506703,-0.35684973
0.08972337,-0.036341425,0.011138728,-0.06726849,-1.2117374,-0.34574115
0.08693033,-0.035210136,0.010791985,-0.06517446,-1.1740167,-0.33497843
0.084224254,-0.03411407,0.010456039,-0.06314563,-1.1374705,-0.32455078
0.081602424,-0.03305213,0.010130552,-0.061179962,-1.102062,-0.31444782
0.07906223,-0.03202325,0.009815198,-0.059275493,-1.0677559,-0.30465937
0.07660112,-0.031026406,0.009509663,-0.057430316,-1.034518,-0.2951757
0.07421662,-0.030060593,0.009213639,-0.055642586,-1.0023148,-0.28598726
0.071906365,-0.02912485,0.008926832,-0.053910512,-0.9711141,-0.2770849
0.06966803,-0.028218238,0.008648953,-0.052232362,-0.9408848,-0.26845965
0.06749938,-0.027339851,0.008379726,-0.050606452,-0.91159666,-0.26010296
0.06539824,-0.026488809,0.008118879,-0.04903116,-0.8832202,-0.25200638
0.06336252,-0.02566426,0.0078661535,-0.047504913,-0.8557272,-0.2441619
0.06139016,-0.024865381,0.0076212953,-0.046026174,-0.82909006,-0.23656161
0.059479207,-0.024091372,0.0073840595,-0.044593472,-0.80328214,-0.22919792
0.057627745,-0.023341458,0.007154209,-0.043205373,-0.77827764,-0.22206347
0.055833917,-0.022614889,0.006931514,-0.04186048,-0.75405157,-0.21515112
0.05409593,-0.021910938,0.0067157517,-0.04055746,-0.7305796,-0.20845394
0.052412048,-0.0212289,0.0065067057,-0.039294995,-0.70783836,-0.20196524
0.050780583,-0.020568095,0.006304167,-0.038071837,-0.68580496,-0.19567853
0.049199905,-0.01992786,0.006107934,-0.03688675,-0.6644575,-0.18958753
0.047668435,-0.019307554,0.0059178085,-0.035738558,-0.64377457,-0.18368614
0.046184637,-0.018706558,0.005733602,-0.034626108,-0.6237355,-0.17796846
0.044747025,-0.018124271,0.0055551296,-0.033548284,-0.6043202,-0.17242876
