ax,ay,az,gx,gy,gz
-0.048182257,0.23454757,-1.6963791,2.1636562,26.8557,5.215502
-0.009501592,0.08610544,-1.6290166,7.2686872,27.873575,4.2427936
0.010696792,0.079931214,-1.5462807,10.225433,28.807016,-2.749804
0.03035563,0.03588268,-1.6984824,12.60804,24.459229,-9.398092
0.121639,0.005125805,-2.0714962,12.830003,17.778734,-14.3359
0.17349708,-0.062249407,-2.7866616,11.141178,8.826601,-18.377346
0.20339885,-0.22891925,-3.510337,10.692275,-1.1271404,-22.07008
0.26869488,-0.4954663,-4.12392,9.992911,-11.263316,-24.305159
0.41544414,-0.8841804,-4.6641326,9.308589,-20.365341,-24.385975
0.57543755,-1.4058411,-5.1873264,9.39247,-29.084612,-20.981565
0.63378704,-2.048616,-5.71085,10.810677,-38.936382,-16.098272
0.6323408,-2.6310444,-6.068485,13.618006,-49.642776,-10.078727
0.6188455,-3.0035741,-6.117107,16.381983,-59.823368,-3.6291203
0.5985874,-3.1560044,-5.875964,18.542885,-68.84944,3.163644
0.65538466,-3.168305,-5.346885,20.230808,-76.292465,10.05092
0.9121162,-3.0191004,-4.396931,21.388569,-80.78,16.748623
1.18729,-2.7489357,-3.2471895,22.469612,-81.38345,22.649593
1.3669587,-2.4283314,-2.0847375,23.609509,-79.223366,27.481188
1.4543169,-2.079412,-1.003958,24.514168,-74.81688,31.24514
1.515441,-1.7250345,-0.04889916,25.206577,-68.17112,34.05107
1.5805976,-1.2978404,0.7330991,25.50182,-60.32303,35.53716
1.6311637,-0.90864027,1.3312812,25.112778,-51.595833,36.09071
1.6571783,-0.60623056,1.7197009,24.277393,-42.760933,35.691135
1.6636521,-0.38381922,1.8954716,24.382214,-33.97445,34.469173
1.64988,-0.22575793,1.9138339,25.372795,-26.08027,32.509117
1.6772988,-0.085703336,1.8144802,26.23835,-18.865648,30.352514
1.7069132,0.0861969,1.6250294,27.208805,-12.338306,27.606197
1.707401,0.30874962,1.3431963,27.937176,-6.85377,24.208014
1.7060057,0.55922,0.9857144,27.646143,-2.684333,20.558132
1.7275296,0.7832307,0.5700993,25.91779,-0.15738386,17.055304
1.7606397,0.94420093,0.053444117,24.192245,1.0927826,13.512824
1.7962979,1.0677655,-0.49681255,22.894985,1.1377122,9.376866
1.8299434,1.1769112,-1.0320965,21.93473,0.32762545,4.890595
1.8277783,1.2911872,-1.5363492,20.731295,-1.5588002,0.46259466
1.7999034,1.3947145,-1.9819692,18.442377,-4.6152134,-3.3075857
1.7366204,1.4338773,-2.3520365,16.066393,-8.516223,-6.8846006
1.6695001,1.4171267,-2.6353624,13.448012,-13.039655,-10.276259
1.597616,1.3532541,-2.823365,10.4089985,-17.978798,-13.612479
1.5378762,1.197855,-2.8840292,7.0448956,-23.13353,-16.5152
1.5268013,0.95440555,-2.7899444,3.702937,-27.93408,-18.61849
1.5751431,0.6033409,-2.5163765,0.88172233,-31.843962,-20.032665
1.6542337,0.23805383,-2.1598766,-1.3086613,-34.63821,-20.74375
1.7313548,-0.09966059,-1.765557,-2.720651,-36.52754,-21.006653
1.8029412,-0.35672346,-1.3402466,-3.649404,-37.26922,-20.806082
1.8501946,-0.5242826,-0.9205068,-4.7265434,-36.201893,-19.838583
1.8565818,-0.6151438,-0.57740337,-6.0766625,-34.224873,-18.559557
1.8329527,-0.6797872,-0.32525033,-7.4427123,-31.611015,-17.240614
1.7832226,-0.72342134,-0.15865713,-8.564879,-28.598843,-15.924997
1.7224246,-0.69875675,-0.15324782,-8.272864,-27.623781,-15.382044
1.6640266,-0.67506576,-0.14805202,-7.9923773,-26.68721,-14.860523
1.6079036,-0.6522976,-0.14305863,-7.722816,-25.787123,-14.359318
1.5539395,-0.6304053,-0.13825732,-7.4636245,-24.921661,-13.877394
1.5020268,-0.60934526,-0.13363855,-7.214286,-24.0891,-13.41379
1.4520653,-0.5890768,-0.12919337,-6.9743195,-23.287832,-12.96761
1.4039618,-0.5695621,-0.12491349,-6.7432766,-22.516361,-12.538024
1.3576291,-0.55076575,-0.12079117,-6.520739,-21.773289,-12.124252
1.3129858,-0.53265476,-0.11681916,-6.3063154,-21.057312,-11.725566
1.2699554,-0.5151981,-0.112990655,-6.0996394,-20.367203,-11.341286
1.2284666,-0.49836683,-0.10929931,-5.9003673,-19.701817,-10.970772
1.188452,-0.48213363,-0.105739124,-5.7081757,-19.060072,-10.613423
1.1498483,-0.46647283,-0.10230447,-5.5227613,-18.440958,-10.268675
1.1125962,-0.45136026,-0.09899006,-5.3438373,-17.843517,-9.935995
1.076639,-0.43677312,-0.09579088,-5.171134,-17.266846,-9.6148815
1.041924,-0.42268986,-0.09270221,-5.004397,-16.710096,-9.30486
1.0084008,-0.4090901,-0.089719586,-4.843384,-16.17246,-9.005483
0.976022,-0.3959546,-0.08683877,-4.687867,-15.653177,-8.716325
0.94474244,-0.38326505,-0.08405576,-4.5376306,-15.151525,-8.436984
0.9145194,-0.3710041,-0.08136675,-4.392468,-14.666816,-8.167079
0.88531226,-0.3591553,-0.07876813,-4.2521853,-14.1984,-7.9062457
0.8570824,-0.34770295,-0.07625646,-4.116596,-13.745657,-7.65414
0.8297931,-0.33663216,-0.07382847,-3.9855247,-13.307998,-7.410434
0.80340934,-0.32592872,-0.07148105,-3.8588026,-12.884862,-7.1748147
0.7778977,-0.31557912,-0.06921122,-3.7362692,-12.475714,-6.946984
0.75322634,-0.3055704,-0.06701616,-3.617772,-12.080041,-6.726658
0.7293649,-0.29589024,-0.06489316,-3.5031645,-11.697357,-6.5135636
0.7062842,-0.28652683,-0.06283962,-3.3923073,-11.327196,-6.3074427
0.68395656,-0.2774689,-0.06085308,-3.2850668,-10.9691105,-6.1080465
0.66235524,-0.2687056,-0.058931164,-3.181315,-10.622674,-5.915137
0.64145476,-0.2602267,-0.057071608,-3.0809293,-10.287478,-5.728486
0.6212308,-0.25202218,-0.055272233,-2.9837928,-9.963132,-5.5478764
0.6016598,-0.24408257,-0.05353096,-2.8897927,-9.649258,-5.3730984
0.5827193,-0.23639876,-0.051845785,-2.798821,-9.345495,-5.2039514
0.5643878,-0.22896199,-0.050214794,-2.710774,-9.051499,-5.0402427
0.5466445,-0.22176386,-0.048636135,-2.6255524,-8.766937,-4.881787
0.5294695,-0.21479627,-0.047108036,-2.5430603,-8.491489,-4.728406
0.51284367,-0.20805146,-0.045628797,-2.4632056,-8.224848,-4.5799294
0.4967485,-0.20152195,-0.04419678,-2.3859003,-7.9667187,-4.4361925
0.48116636,-0.19520056,-0.042810403,-2.3110585,-7.7168164,-4.297037
0.46608016,-0.18908036,-0.04146815,-2.238599,-7.474868,-4.16231
0.45147347,-0.18315467,-0.04016856,-2.1684425,-7.2406096,-4.0318656
0.43733042,-0.1774171,-0.038910225,-2.100513,-7.0137873,-3.905562
0.4236358,-0.17186144,-0.037691787,-2.0347373,-6.794157,-3.7832625
0.4103749,-0.16648173,-0.036511935,-1.9710448,-6.581482,-3.6648366
0.39753354,-0.16127221,-0.03536941,-1.9093672,-6.3755355,-3.5501573
0.38509804,-0.15622735,-0.034262996,-1.849639,-6.1760983,-3.4391024
0.3730552,-0.1513418,-0.03319152,-1.7917969,-5.982959,-3.3315544
0.3613923,-0.14661036,-0.03215385,-1.7357796,-5.7959123,-3.2273993
0.35009703,-0.14202808,-0.031148884,-1.6815281,-5.614762,-3.1265275
0.33915758,-0.13759014,-0.030175576,-1.6289854,-5.4393177,-3.028833
0.32856244,-0.13329187,-0.029232904,-1.5780966,-5.269396,-2.9342136
0.31830055,-0.12912881,-0.028319882,-1.5288085,-5.1048183,-2.8425703
0.30836126,-0.12509662,-0.027435562,-1.4810697,-4.9454145,-2.7538078
0.2987342,-0.1211911,-0.026579022,-1.4348307,-4.7910185,-2.6678338
0.28940943,-0.1174082,-0.025749376,-1.3900434,-4.64147,-2.5845592
0.28037724,-0.11374401,-0.024945766,-1.3466616,-4.496615,-2.5038977
0.27162838,-0.11019476,-0.024167359,-1.3046404,-4.3563027,-2.4257665
0.26315382,-0.10675678,-0.023413358,-1.2639368,-4.22039,-2.3500845
0.2549448,-0.10342652,-0.022682985,-1.2245086,-4.088736,-2.2767742
0.24699293,-0.10020059,-0.02197549,-1.1863155,-3.961206,-2.2057605
0.23929004,-0.09707568,-0.021290148,-1.1493183,-3.8376694,-2.13697
0.23182827,-0.09404857,-0.020626258,-1.1134791,-3.7179995,-2.070333
0.22459999,-0.09111618,-0.019983143,-1.0787615,-3.602074,-2.0057812
0.2175978,-0.088275515,-0.019360142,-1.0451297,-3.4897747,-1.9432483
0.21081457,-0.08552368,-0.018756624,-1.0125496,-3.3809872,-1.882671
0.20424339,-0.08285788,-0.018171972,-0.980988,-3.2756004,-1.8239874
0.1978776,-0.08027539,-0.017605593,-0.95041287,-3.1735075,-1.7671379
0.1917107,-0.077773586,-0.017056912,-0.92079306,-3.0746045,-1.7120647
0.18573645,-0.07534994,-0.016525371,-0.89209855,-2.9787912,-1.6587119
0.17994879,-0.07300199,-0.01601043,-0.8643002,-2.88597,-1.6070254
0.17434184,-0.070727356,-0.015511568,-0.83736986,-2.7960474,-1.5569528
0.16890995,-0.068523735,-0.01502828,-0.8112803,-2.7089322,-1.5084435
0.1636476,-0.06638889,-0.014560077,-0.786005,-2.624536,-1.4614483
0.15854947,-0.064320676,-0.014106487,-0.7615186,-2.5427737,-1.4159198
0.15361044,-0.062316995,-0.01366705,-0.7377962,-2.4635627,-1.3718119
0.14882548,-0.060375825,-0.013241322,-0.7148139,-2.386823,-1.32908
0.14418979,-0.05849521,-0.012828875,-0.6925485,-2.312477,-1.2876811
0.13969868,-0.05667325,-0.012429292,-0.6709776,-2.24045,-1.2475735
0.13534765,-0.05490811,-0.01204217,-0.6500794,-2.170669,-1.2087168
0.13113229,-0.053198013,-0.01166712,-0.62983286,-2.103064,-1.1710715
0.12704834,-0.05154123,-0.011303764,-0.6102176,-2.0375671,-1.1346002
0.123091735,-0.049936105,-0.010951735,-0.5912138,-1.974112,-1.0992658
0.119258456,-0.048381012,-0.01061068,-0.5728025,-1.912635,-1.0650328
0.11554466,-0.046874397,-0.010280256,-0.55496496,-1.8530742,-1.031867
0.11194662,-0.045414735,-0.009960131,-0.5376835,-1.7953697,-0.99973476
0.10846071,-0.044000562,-0.009649982,-0.5209405,-1.7394636,-0.96860397
0.10508343,-0.04263046,-0.009349498,-0.5047193,-1.6852996,-0.9384433
0.10181139,-0.04130305,-0.009058377,-0.48900357,-1.6328235,-0.9092225
0.09864129,-0.040017,-0.008776327,-0.4737775,-1.5819824,-0.88091207
0.09556997,-0.03877102,-0.0085030645,-0.45902583,-1.5327253,-0.85348374
0.092594326,-0.037563857,-0.008238316,-0.44473374,-1.4850029,-0.8269099
0.08971139,-0.036394298,-0.007981814,-0.4308869,-1.4387671,-0.801164
0.08691826,-0.035261177,-0.0077333036,-0.41747138,-1.3939716,-0.77622
0.08421213,-0.03416335,-0.007492534,-0.40447375,-1.3505714,-0.752053
0.081590295,-0.03309972,-0.0072592637,-0.391881,-1.3085232,-0.7286388
0.07905012,-0.032069214,-0.0070332587,-0.37968045,-1.2677846,-0.70595396
0.07658906,-0.031070808,-0.0068142936,-0.3678599,-1.2283148,-0.6839756
0.07420466,-0.030103497,-0.0066021476,-0.35640752,-1.1900743,-0.6626817
0.071894504,-0.029166311,-0.0063966084,-0.3453118,-1.1530247,-0.642051
0.069656305,-0.02825831,-0.0061974702,-0.33456162,-1.117129,-0.6220628
0.0674878,-0.027378587,-0.0060045337,-0.3241462,-1.0823511,-0.6026971
0.06538682,-0.02652626,-0.0058176056,-0.31405514,-1.0486562,-0.58393437
0.063351266,-0.02570047,-0.005636498,-0.3042783,-1.0160105,-0.56575596
0.0613791,-0.0249004,-0.00546103,-0.2948059,-0.98438144,-0.54814357
0.05946834,-0.024125239,-0.0052910256,-0.2856285,-0.9537372,-0.53107965
0.05761708,-0.023374215,-0.005126315,-0.27673683,-0.9240472,-0.514547
0.05582346,-0.022646576,-0.004966733,-0.268122,-0.8952816,-0.49852917
0.054085687,-0.021941593,-0.0048121195,-0.25977543,-0.8674117,-0.48301005
0.052402023,-0.02125856,-0.00466232,-0.25168872,-0.8404095,-0.46797416
0.05077078,-0.020596793,-0.004517185,-0.24385378,-0.814248,-0.45340636
0.04919032,-0.01995563,-0.0043765684,-0.2362628,-0.7889011,-0.43929216
0.04765907,-0.019334428,-0.0042403294,-0.22890815,-0.7643433,-0.4256174
0.04617549,-0.018732568,-0.0041083326,-0.22178248,-0.7405501,-0.41236836
0.044738103,-0.018149445,-0.0039804447,-0.21487865,-0.71749765,-0.39953184
0.043345463,-0.017584477,-0.0038565388,-0.20818976,-0.69516283,-0.38709491
0.04199618,-0.017037097,-0.0037364904,-0.2017091,-0.6735234,-0.3750452
0.040688906,-0.016506758,-0.0036201791,-0.1954302,-0.6525577,-0.36337063
0.039422326,-0.01599293,-0.0035074889,-0.18934679,-0.63224465,-0.35205948
0.038195178,-0.015495097,-0.003398307,-0.18345276,-0.61256397,-0.34110048
0.037006233,-0.015012763,-0.0032925238,-0.1777422,-0.59349597,-0.33048266
0.0358543,-0.014545445,-0.0031900338,-0.17220943,-0.57502156,-0.32019538
0.034738228,-0.0140926745,-0.0030907346,-0.1668489,-0.5571223,-0.31022835
0.0336569,-0.013653999,-0.0029945264,-0.16165523,-0.53978026,-0.3005716
0.03260923,-0.01322898,-0.0029013131,-0.15662326,-0.52297807,-0.29121542
0.03159418,-0.012817191,-0.0028110018,-0.15174793,-0.5066989,-0.28215054
0.030610725,-0.012418221,-0.0027235018,-0.14702436,-0.49092653,-0.27336785
0.029657885,-0.012031671,-0.0026387256,-0.14244784,-0.47564515,-0.26485854
0.028734706,-0.011657154,-0.0025565883,-0.13801378,-0.46083945,-0.25661415
0.027840266,-0.011294296,-0.0024770082,-0.13371775,-0.44649467,-0.24862637
0.026973668,-0.010942733,-0.0023999051,-0.12955545,-0.43259642,-0.24088725
0.026134046,-0.010602113,-0.002325202,-0.12552272,-0.41913077,-0.23338905
