ax,ay,az,gx,gy,gz
-0.19181992,0.24818407,0.4781862,11.097373,-9.155538,-3.3845763
-0.18952338,0.05036258,0.42568612,8.601461,-10.667588,-4.8256145
-0.115995586,-0.07417348,0.3931478,5.8217626,-10.671923,-3.4435582
-0.12970589,-0.14047387,0.2863755,4.904526,-12.482049,-3.7212782
-0.068203874,-0.20055927,0.3064268,5.153228,-12.680728,-3.32424
-0.031596866,-0.26087055,0.28418052,5.41152,-12.137635,-3.1982625
-0.048210766,-0.300139,0.17810841,5.6496572,-11.755464,-3.2905695
-0.10410551,-0.3712483,0.023400338,5.7374153,-11.6741,-3.8665495
-0.15963171,-0.48555687,-0.17237705,5.8814974,-11.953578,-4.5503707
-0.23597029,-0.629647,-0.42630193,6.656478,-13.167001,-4.9573054
-0.36618534,-0.7614779,-0.7882751,7.259645,-15.707633,-5.0300317
-0.48721457,-0.975355,-1.1503532,8.206499,-19.044807,-4.5966787
-0.59854853,-1.2627231,-1.5180482,9.398132,-22.459991,-3.6019194
-0.71884936,-1.6104821,-1.9012923,11.10273,-25.76831,-2.0439355
-0.8726924,-1.9644886,-2.309818,13.955293,-30.078068,-0.5704438
-1.0038345,-2.3391557,-2.6460633,17.717323,-35.121624,1.243879
-1.0458724,-2.6772091,-2.8438616,21.701708,-40.444256,4.572066
-1.004204,-2.9325306,-2.9186685,25.061592,-45.873653,9.559843
-0.8758304,-3.1207445,-2.875068,27.615435,-51.050896,15.552316
-0.6769618,-3.2576582,-2.7288485,30.688564,-55.244354,20.871464
-0.4271504,-3.3333352,-2.4477155,34.54616,-58.054672,25.06636
-0.15666877,-3.325482,-2.0780861,38.058784,-59.672653,29.596725
0.15483533,-3.1978552,-1.6282582,40.178905,-60.593517,35.30941
0.5185891,-2.9769244,-1.1195475,41.30548,-60.653736,41.748417
0.8989523,-2.6828213,-0.60058236,41.32934,-59.474525,48.5418
1.2790474,-2.3235967,-0.10845624,40.41629,-57.357914,54.971634
1.6640272,-1.9362915,0.3562443,39.016926,-53.750164,60.161255
2.0285373,-1.5379739,0.76822287,37.79966,-48.667152,63.785057
2.334957,-1.1407967,1.1004943,36.455738,-42.218716,66.10319
2.55307,-0.7604186,1.3230585,34.736855,-34.607533,67.246826
2.6530428,-0.38886806,1.3990524,32.43879,-26.88773,67.664505
2.6658175,-0.029588744,1.3680046,30.299324,-19.786192,67.16877
2.5974295,0.31169105,1.2496632,28.3808,-13.569174,65.35268
2.4869623,0.6110969,1.0818143,26.59146,-8.330211,62.573074
2.3584194,0.8860073,0.890403,24.345177,-4.349326,59.372704
2.2279224,1.1581933,0.6920229,21.305801,-1.34879,56.33829
2.097514,1.4448795,0.49046668,17.420431,0.6021169,53.018574
1.9647511,1.6981133,0.2960053,13.254427,1.5763878,48.867996
1.8428136,1.8944063,0.13388991,9.528052,1.7910365,43.81201
1.7724679,2.035645,0.04781818,5.711428,1.9174795,38.558758
1.7928348,2.09413,0.05785373,2.1744463,2.7673538,33.16514
1.8452482,2.103129,0.08494162,-0.441071,4.605696,26.657444
1.8875202,2.0200207,0.10677748,-2.270235,7.2091904,19.085443
1.8891243,1.8186612,0.12597243,-4.011387,9.964439,11.958402
1.852474,1.5269053,0.14753398,-6.4217124,11.88013,7.196791
1.8396348,1.1604013,0.18132707,-9.015212,13.340108,4.064303
1.8644989,0.7341844,0.2219756,-10.895013,15.009538,1.499239
1.9177463,0.25503725,0.26721528,-11.482191,17.569921,-1.0307493
1.9631345,-0.22497883,0.28353915,-11.042845,20.88516,-3.0640786
1.9575697,-0.6727566,0.24195392,-9.915186,23.970194,-3.661711
1.898494,-1.0680823,0.15679407,-8.561805,26.204283,-3.0791492
1.8402478,-1.4006432,0.06896981,-7.125266,27.844404,-1.6197438
1.7901287,-1.6732577,-0.03181861,-5.417115,29.356934,0.14508148
1.7275573,-1.8778479,-0.17369002,-3.013882,30.891777,1.6791542
1.6452829,-2.0259998,-0.35769126,0.09259344,32.319023,2.8528616
1.5365009,-2.104741,-0.5829359,3.3324852,33.383514,3.9793358
1.4126459,-2.142697,-0.82703084,6.51245,33.91348,5.201236
1.2819921,-2.1430347,-1.08079,9.557493,33.8782,6.5450134
1.1513144,-2.100367,-1.3326463,12.46954,33.33372,7.8645673
1.0240421,-2.0140371,-1.5704067,15.301955,32.22013,8.938442
0.89612556,-1.8839445,-1.7909482,17.99685,30.703693,9.9010725
0.77158535,-1.723384,-1.9957023,20.245405,28.793446,10.920977
0.65263546,-1.5452014,-2.1882315,22.165287,26.549192,11.747613
0.5507565,-1.3552785,-2.362212,23.944077,24.114805,12.067452
0.47052172,-1.172037,-2.5200844,25.541977,21.414455,12.058204
0.42407522,-0.97661984,-2.6442795,26.522879,18.537786,12.376558
0.38686505,-0.77924836,-2.754612,26.965818,15.455577,12.838609
0.35564637,-0.5866879,-2.853412,26.89394,12.262687,13.181595
0.3302357,-0.40197343,-2.9368186,26.561317,8.997794,13.154366
0.31909966,-0.2045307,-2.9835386,25.803898,5.7020364,12.63954
0.32113424,0.012697132,-2.9834578,24.574217,2.370321,12.023328
0.3194448,0.22014134,-2.9693897,22.791494,-1.1089557,11.39459
0.31765243,0.40005624,-2.9445455,20.480438,-4.6108117,10.77111
0.3148725,0.5461039,-2.9174747,17.81963,-7.9934554,10.034611
0.30385226,0.66220415,-2.8825178,15.159175,-11.303739,8.788625
0.30240127,0.79570746,-2.8041804,12.36173,-14.656364,7.2087026
0.31218857,0.9301347,-2.7082613,8.970561,-18.154287,5.4893184
0.3354276,1.0278479,-2.6202946,5.1056514,-21.765875,3.8220167
0.3829671,1.0508245,-2.542282,0.8884987,-25.38549,2.2858372
0.43953,0.9807426,-2.4601734,-2.8169162,-28.928347,0.53573585
0.4898875,0.8485302,-2.324041,-6.0892587,-32.499107,-1.3385926
0.5753917,0.6990447,-2.131128,-9.152447,-35.983635,-3.0622177
0.7359754,0.5320927,-1.8948702,-12.113281,-38.9606,-4.5461116
0.95173603,0.32189447,-1.6344723,-14.629895,-40.9824,-6.066802
1.1721483,0.05634472,-1.3745911,-16.145424,-41.64696,-7.510038
1.3371243,-0.2277507,-1.1312778,-17.133347,-41.675068,-8.439474
1.4635042,-0.48507676,-0.90175724,-17.771784,-41.338314,-8.81249
1.5824054,-0.7073185,-0.67967755,-18.085442,-40.57386,-8.813667
1.7032288,-0.89549166,-0.47563964,-18.081007,-39.200302,-8.525853
1.81736,-1.0464698,-0.29516694,-17.621475,-36.772453,-8.117097
1.8843873,-1.1461984,-0.1643427,-16.889738,-33.718056,-7.8953347
1.8943017,-1.2204379,-0.08742449,-15.686189,-30.41266,-7.865983
1.8445836,-1.2724178,-0.0694122,-14.171105,-27.481339,-7.923549
1.7679944,-1.3040408,-0.079663016,-12.621845,-25.066729,-7.715723
1.7126886,-1.2632482,-0.07717102,-12.227014,-24.282598,-7.4743624
1.6591291,-1.2237437,-0.07475772,-11.844648,-23.52323,-7.240623
1.6072595,-1.1854856,-0.07242055,-11.474347,-22.787819,-7.014258
1.5570248,-1.1484334,-0.07015706,-11.115718,-22.07559,-6.7950287
1.5083725,-1.1125484,-0.06796487,-10.768386,-21.385794,-6.5827045
1.4612516,-1.0777928,-0.065841675,-10.431986,-20.71771,-6.3770638
1.4156128,-1.0441304,-0.06378526,-10.106167,-20.070642,-6.1778913
1.3714087,-1.0115263,-0.061793495,-9.79059,-19.443913,-5.984979
1.3285933,-0.97994643,-0.059864298,-9.484928,-18.836872,-5.798128
1.2871221,-0.94935805,-0.057995673,-9.188862,-18.248894,-5.617143
1.2469524,-0.9197296,-0.05618569,-8.902087,-17.679363,-5.4418383
1.2080426,-0.89103043,-0.054432478,-8.624308,-17.127699,-5.272032
1.1703527,-0.863231,-0.05273423,-8.355236,-16.593328,-5.1075487
1.1338439,-0.83630276,-0.0510892,-8.094597,-16.075705,-4.9482203
1.0984787,-0.81021804,-0.0494957,-7.842122,-15.574294,-4.7938824
1.0642208,-0.7849501,-0.047952093,-7.597553,-15.088585,-4.644377
1.0310352,-0.760473,-0.046456806,-7.3606386,-14.618078,-4.499552
0.9988881,-0.7367618,-0.045008305,-7.1311374,-14.162293,-4.359258
0.96774644,-0.7137923,-0.043605115,-6.908815,-13.720766,-4.2233524
0.9375787,-0.6915411,-0.0422458,-6.693445,-13.293045,-4.0916967
0.908354,-0.6699855,-0.040928982,-6.4848075,-12.8786955,-3.964157
0.8800427,-0.6491036,-0.03965332,-6.282691,-12.477297,-3.8406036
0.85261595,-0.6288741,-0.03841752,-6.0868897,-12.088439,-3.7209103
0.82604605,-0.60927665,-0.037220318,-5.897205,-11.711729,-3.6049562
0.8003059,-0.5902912,-0.036060512,-5.7134447,-11.346785,-3.4926236
0.7753696,-0.5718986,-0.034936916,-5.535422,-10.993235,-3.3837986
0.7512117,-0.5540802,-0.0338484,-5.362957,-10.650723,-3.2783709
0.7278079,-0.53681797,-0.032793865,-5.195875,-10.318902,-3.176234
0.70513445,-0.52009445,-0.031772234,-5.034008,-9.9974375,-3.0772846
0.6831685,-0.5038927,-0.030782484,-4.8771915,-9.686003,-2.981423
0.6618878,-0.48819652,-0.029823612,-4.7252674,-9.384285,-2.8885517
0.64127105,-0.47298995,-0.028894652,-4.5780826,-9.091978,-2.7985778
0.62129724,-0.45825765,-0.027994666,-4.435488,-8.808789,-2.71141
0.6019464,-0.4439848,-0.027122747,-4.297341,-8.534431,-2.6269608
0.58319896,-0.430157,-0.026278015,-4.1635013,-8.268629,-2.5451446
0.565036,-0.41676036,-0.025459623,-4.033835,-8.011113,-2.4658797
0.54743934,-0.40378135,-0.024666743,-3.9082108,-7.7616267,-2.3890858
0.53039116,-0.39120695,-0.023898581,-3.7865026,-7.519917,-2.3146858
0.5138744,-0.3790245,-0.023154363,-3.6685884,-7.2857413,-2.2426047
0.49787244,-0.3672217,-0.02243334,-3.554349,-7.0588646,-2.1727705
0.48236918,-0.3557868,-0.021734787,-3.44367,-6.8390584,-2.1051123
0.46734902,-0.3447082,-0.021058002,-3.33644,-6.6261015,-2.0395627
0.4527969,-0.3339748,-0.020402307,-3.2325513,-6.4197807,-1.9760557
0.4386982,-0.32357588,-0.019767042,-3.1318996,-6.2198887,-1.9145274
0.42503875,-0.3135009,-0.01915157,-3.0343838,-6.0262246,-1.8549162
0.41180488,-0.30373985,-0.018555272,-2.9399061,-5.8385935,-1.797162
0.39898327,-0.29428285,-0.01797755,-2.8483717,-5.6568084,-1.7412071
0.38656107,-0.28512046,-0.017417826,-2.7596886,-5.4806857,-1.6869953
0.37452582,-0.27624348,-0.016875537,-2.673768,-5.310049,-1.6344721
0.36286545,-0.267643,-0.016350139,-2.590524,-5.1447277,-1.5835849
0.35156825,-0.2593104,-0.015841106,-2.5098724,-4.9845552,-1.5342828
0.34062293,-0.25123733,-0.015347927,-2.431733,-4.829372,-1.4865161
0.3300185,-0.24341568,-0.014870107,-2.356027,-4.6790214,-1.4402372
0.3197443,-0.23583762,-0.014407169,-2.2826788,-4.5333533,-1.3953995
0.30979007,-0.22849557,-0.013958648,-2.2116148,-4.392222,-1.3519582
0.30014586,-0.22138217,-0.013524095,-2.1427639,-4.2554855,-1.3098696
0.29080194,-0.21449026,-0.013103073,-2.0760572,-4.1230073,-1.2690918
0.281749,-0.207813,-0.012695163,-2.0114276,-3.994654,-1.2295839
0.27297798,-0.20134363,-0.012299953,-1.9488105,-3.8702977,-1.1913061
0.26448005,-0.19507572,-0.01191705,-1.8881432,-3.7498138,-1.1542202
0.25624675,-0.18900298,-0.01154607,-1.8293649,-3.6330812,-1.1182891
0.24826978,-0.18311931,-0.011186641,-1.7724167,-3.5199835,-1.0834768
0.24054119,-0.17741884,-0.010838403,-1.7172418,-3.410407,-1.0497484
0.23305324,-0.17189586,-0.010501008,-1.6637847,-3.3042424,-1.01707
0.22579843,-0.16654484,-0.010174118,-1.611992,-3.2013834,-0.9854093
0.21876949,-0.16136043,-0.009857405,-1.5618119,-3.1017265,-0.95473427
0.21195939,-0.15633743,-0.009550553,-1.5131941,-3.0051725,-0.9250142
0.2053613,-0.1514708,-0.009253254,-1.46609,-2.9116247,-0.8962195
0.19896866,-0.1467557,-0.008965211,-1.4204522,-2.8209891,-0.86832124
0.19277503,-0.14218737,-0.0086861355,-1.3762355,-2.7331755,-0.8412915
0.18677421,-0.13776128,-0.008415748,-1.3333952,-2.6480956,-0.8151033
0.18096021,-0.133473,-0.008153779,-1.2918887,-2.5656645,-0.78973037
0.17532723,-0.1293182,-0.007899965,-1.2516743,-2.4857996,-0.7651474
0.16986959,-0.12529275,-0.007654053,-1.2127118,-2.408421,-0.74132967
0.16458187,-0.12139261,-0.0074157966,-1.1749624,-2.3334513,-0.71825343
0.15945874,-0.11761389,-0.007184957,-1.138388,-2.2608154,-0.6958956
0.15449512,-0.11395281,-0.0069613038,-1.1029524,-2.190441,-0.6742338
0.14968601,-0.1104057,-0.006744613,-1.0686197,-2.122257,-0.6532463
0.1450266,-0.10696901,-0.0065346677,-1.0353559,-2.0561957,-0.6329121
0.14051224,-0.1036393,-0.006331258,-1.0031276,-1.9921908,-0.613211
0.13613842,-0.10041324,-0.0061341804,-0.9719025,-1.9301785,-0.5941231
0.13190076,-0.09728762,-0.005943238,-0.94164944,-1.8700966,-0.5756295
0.127795,-0.094259284,-0.0057582394,-0.91233814,-1.811885,-0.5577115
0.12381706,-0.09132522,-0.0055789994,-0.8839393,-1.7554854,-0.54035133
0.11996294,-0.0884825,-0.005405339,-0.8564245,-1.7008415,-0.52353156
0.116228804,-0.085728265,-0.005237085,-0.8297662,-1.6478988,-0.50723535
