ax,ay,az,gx,gy,gz
-1.2572842,-0.25272956,-1.2400112,11.762835,-2.219111,-4.106401
-1.896091,-0.2576231,-1.8598894,11.654756,-9.915429,-11.71777
-2.2945251,-0.2826287,-2.208298,2.5628843,-19.532063,-15.998177
-2.4814296,-0.52507913,-2.4571943,-4.384973,-26.285555,-15.697754
-2.633864,-0.76893604,-2.7483823,-7.758745,-31.973831,-14.888643
-2.8141048,-1.0122168,-3.1132243,-7.6767044,-37.682102,-15.141736
-3.0367444,-1.3191922,-3.536236,-5.4834566,-43.794098,-16.508673
-3.2492774,-1.6856092,-3.96259,-1.9181384,-52.142685,-17.85497
-3.3611093,-2.1503067,-4.257865,1.6872426,-61.376656,-17.645412
-3.2945766,-2.6317158,-4.383281,4.9599113,-70.56266,-14.815712
-3.0510743,-3.0727477,-4.346691,7.947247,-78.446976,-9.664985
-2.6999938,-3.3888655,-4.195691,10.969737,-84.88176,-3.9314933
-2.255712,-3.5794318,-3.939905,13.794341,-89.5756,1.178754
-1.690509,-3.7823968,-3.5453284,16.273226,-92.3679,6.423823
-1.125832,-4.0389915,-3.1347084,18.868141,-93.52277,12.0968275
-0.6090506,-4.328998,-2.759493,21.92587,-93.50941,18.437233
-0.14922518,-4.5709896,-2.4072833,25.561222,-92.91935,26.058681
0.29381648,-4.603749,-2.0255084,29.042463,-91.59977,35.015533
0.7417575,-4.415577,-1.57296,32.44629,-89.030396,42.691654
1.1475047,-4.176445,-1.1352631,35.77426,-85.030716,49.013042
1.4661255,-3.954066,-0.7667352,39.4668,-80.09427,54.15224
1.7081547,-3.699209,-0.46098685,42.936264,-74.83875,59.212975
1.9076889,-3.3559277,-0.1993523,44.691788,-69.56436,64.934135
2.077319,-2.9022117,0.042658374,45.03917,-64.296684,70.19999
2.2539003,-2.4109817,0.276889,44.669193,-58.62414,73.661316
2.4460282,-1.9150065,0.49707657,44.39916,-51.797695,74.1828
2.5991642,-1.4428968,0.65201145,44.392445,-43.850735,72.142494
2.6347103,-1.0153353,0.6904686,44.08274,-36.018154,68.181206
2.5669835,-0.6274874,0.6316662,42.62069,-29.40474,64.36453
2.4974315,-0.26797137,0.5601863,40.03367,-23.928879,61.25655
2.4336348,0.06376093,0.48091048,36.87418,-19.163933,58.09524
2.3757083,0.36336443,0.39457187,33.69497,-14.832826,54.204052
2.3154888,0.63473,0.29029515,30.541342,-10.995331,48.957024
2.2227514,0.8657679,0.15780634,27.421062,-7.8876605,42.725273
2.1208186,1.0473313,0.03443452,23.988224,-5.5357766,36.268528
2.0316803,1.1703675,-0.055800106,20.193275,-3.8015313,30.357027
1.9676969,1.2621863,-0.11613432,15.909052,-2.418083,25.189774
1.9249179,1.3371466,-0.16168517,11.2156,-1.1712543,19.87122
1.9073681,1.3407996,-0.16930924,6.869878,0.34710225,13.9019575
1.8874993,1.2497947,-0.14860173,2.8223836,2.1309948,7.4771385
1.86612,1.0390853,-0.09868854,-0.9878767,4.0227766,1.4122889
1.8711017,0.7130862,-0.02975557,-4.6415625,6.0394187,-3.0456314
1.8906561,0.3254445,0.026420401,-7.827604,8.216454,-5.7588663
1.9017783,-0.14088154,0.050142575,-9.555728,10.516387,-8.638454
1.9157865,-0.6549794,0.058922816,-10.005289,12.923352,-11.390982
1.9388331,-1.201735,0.046415534,-9.481564,15.5135975,-12.893394
1.9440854,-1.7015008,-0.002922116,-8.28636,18.07076,-12.798082
1.923538,-2.121392,-0.089801215,-6.1495237,20.452858,-11.285236
1.8697187,-2.4370246,-0.23129967,-3.3573804,22.679258,-9.379284
1.7909002,-2.6790342,-0.41278043,0.01982805,24.788824,-7.5754857
1.6817621,-2.8617337,-0.63208264,3.850107,26.680357,-6.049849
1.5427572,-2.9931035,-0.88164526,7.8935933,28.165218,-4.586997
1.376598,-3.079658,-1.1464758,12.089212,28.857542,-2.572144
1.1881783,-3.0864217,-1.4083704,16.021555,28.762526,0.11003131
1.0077261,-3.0147858,-1.6443595,19.516502,27.94717,3.4729507
0.84088004,-2.8620625,-1.8572726,22.487997,26.46692,6.9940357
0.6989925,-2.6438138,-2.0432515,24.74501,24.593067,9.903056
0.576029,-2.4149342,-2.204617,26.520414,22.526901,11.340767
0.46874136,-2.1755016,-2.3339355,27.843418,20.335335,12.380025
0.3635396,-1.8964013,-2.4530563,28.045843,17.724646,13.573198
0.26623765,-1.6117461,-2.5558608,27.291481,14.674668,14.700522
0.18598124,-1.3345933,-2.6408117,25.693457,11.379493,15.470012
0.12351078,-1.0908949,-2.701156,23.788057,8.001612,15.583512
0.10147174,-0.813343,-2.7185302,21.314789,4.679408,15.728529
0.088200755,-0.51127976,-2.7231464,18.0761,1.2925688,15.5956
0.07108016,-0.22273849,-2.725903,14.471754,-2.2138264,14.787138
0.050406627,0.019952696,-2.7256498,10.416632,-5.9415283,13.256969
0.039164856,0.183715,-2.7125447,6.016216,-9.951427,10.983802
0.0637512,0.2724455,-2.686275,1.6077651,-13.927876,8.539467
0.11863645,0.32035726,-2.6653166,-2.6453955,-17.86081,6.371558
0.172903,0.35234487,-2.6401849,-7.1785707,-21.969769,4.2972426
0.22886637,0.3233363,-2.5614212,-11.481739,-26.186892,1.787194
0.31657574,0.23025402,-2.4196253,-15.392659,-30.175447,-0.96936375
0.49549577,0.04128561,-2.2402866,-18.921167,-33.83133,-3.4396014
0.750401,-0.20059267,-2.0269828,-22.18109,-36.671124,-5.3453913
1.0299709,-0.49908012,-1.7744571,-24.818657,-38.40206,-6.914554
1.3110104,-0.83351034,-1.4869235,-26.665903,-38.914948,-8.052411
1.5816753,-1.1834956,-1.1904575,-27.521992,-37.905655,-8.466987
1.5317659,-1.1461507,-1.1528928,-26.653543,-36.709553,-8.199813
1.483472,-1.1100146,-1.116544,-25.8132,-35.552162,-7.941286
1.4367373,-1.0750451,-1.0813689,-24.999992,-34.43214,-7.6911073
1.3915082,-1.0412023,-1.047327,-24.212984,-33.348206,-7.4489884
1.3477334,-1.0084475,-1.0143796,-23.451279,-32.299118,-7.214654
1.3053632,-0.9767439,-0.98248947,-22.714014,-31.283693,-6.9878387
1.26435,-0.9460556,-0.95162064,-22.000362,-30.300793,-6.768288
1.2246482,-0.9163485,-0.92173886,-21.30953,-29.34932,-6.5557575
1.1862137,-0.88758975,-0.8928109,-20.64075,-28.428217,-6.350011
1.1490042,-0.8597476,-0.864805,-19.993286,-27.536472,-6.150822
1.112979,-0.83279157,-0.83769035,-19.366428,-26.673111,-5.957973
1.0780989,-0.80669236,-0.8114376,-18.759495,-25.837189,-5.771253
1.044326,-0.7814216,-0.7860182,-18.171827,-25.027803,-5.5904603
1.0116239,-0.75695205,-0.76140475,-17.602793,-24.24408,-5.4154
0.97995734,-0.7332575,-0.73757076,-17.051779,-23.485178,-5.245884
0.9492927,-0.71031255,-0.7144909,-16.518198,-22.750284,-5.081731
0.91959727,-0.68809277,-0.6921404,-16.001482,-22.038618,-4.9227657
0.8908395,-0.66657466,-0.6704957,-15.501081,-21.349422,-4.768821
0.862989,-0.6457354,-0.64953387,-15.016468,-20.68197,-4.619732
0.8360164,-0.625553,-0.62923276,-14.547131,-20.035559,-4.475343
0.8098934,-0.6060064,-0.60957116,-14.092577,-19.40951,-4.335502
0.78459275,-0.587075,-0.5905284,-13.65233,-18.803164,-4.2000628
0.7600878,-0.5687391,-0.57208467,-13.225932,-18.21589,-4.068884
0.7363532,-0.55097955,-0.5542207,-12.812937,-17.64708,-3.9418283
0.7133642,-0.53377795,-0.53691787,-12.412917,-17.096136,-3.8187642
0.691097,-0.5171164,-0.52015835,-12.025455,-16.562492,-3.699564
0.6695286,-0.5009778,-0.5039247,-11.650154,-16.045595,-3.5841045
0.6486367,-0.48534533,-0.4882003,-11.286624,-15.5449095,-3.4722664
0.6283998,-0.47020295,-0.47296888,-10.93449,-15.059921,-3.3639345
0.608797,-0.4555351,-0.45821473,-10.593392,-14.590131,-3.2589977
0.5898083,-0.4413267,-0.44392276,-10.262979,-14.1350565,-3.1573477
0.5714142,-0.42756322,-0.4300783,-9.94291,-13.694232,-3.0588806
0.5535958,-0.41423053,-0.4166672,-9.632861,-13.267205,-2.9634957
0.53633493,-0.40131503,-0.4036757,-9.332513,-12.85354,-2.8710952
0.51961404,-0.3888035,-0.3910906,-9.04156,-12.452815,-2.7815852
0.50341594,-0.37668326,-0.37889904,-8.759706,-12.06462,-2.6948743
0.4877243,-0.3649419,-0.36708862,-8.486662,-11.688561,-2.610874
0.47252303,-0.35356748,-0.3556473,-8.222153,-11.324256,-2.529499
0.45779678,-0.3425485,-0.34456348,-7.9659076,-10.971333,-2.4506667
0.44353053,-0.33187371,-0.33382592,-7.717667,-10.629436,-2.374297
0.42970985,-0.3215323,-0.32342368,-7.47718,-10.298215,-2.3003123
0.4163207,-0.31151384,-0.31334627,-7.2442017,-9.977338,-2.228638
0.40334958,-0.30180812,-0.30358347,-7.018497,-9.666478,-2.1592011
0.3907833,-0.29240537,-0.2941254,-6.7998376,-9.365321,-2.0919318
0.3786092,-0.28329605,-0.2849625,-6.5880017,-9.073563,-2.0267618
0.366815,-0.27447098,-0.27608553,-6.3827763,-8.790909,-1.9636252
0.35538876,-0.26592124,-0.26748547,-6.1839533,-8.517073,-1.9024585
0.34431893,-0.2576382,-0.2591537,-5.9913325,-8.251779,-1.8431997
0.33359438,-0.24961348,-0.2510818,-5.8047194,-7.994759,-1.7857894
0.32320428,-0.24183904,-0.24326164,-5.623926,-7.745755,-1.7301693
0.31313816,-0.23430704,-0.23568532,-5.4487705,-7.5045156,-1.6762836
0.3033859,-0.22700986,-0.22834522,-5.279076,-7.2707977,-1.624078
0.29393768,-0.21994019,-0.22123395,-5.1146717,-7.0443664,-1.5735
0.284784,-0.2130909,-0.21434437,-4.955393,-6.824993,-1.5244987
0.2759156,-0.2064551,-0.20766954,-4.8010783,-6.612458,-1.4770248
0.26732364,-0.20002611,-0.20120274,-4.6515737,-6.406547,-1.4310304
0.25899944,-0.19379748,-0.19493748,-4.5067277,-6.207053,-1.3864695
0.25093463,-0.18776296,-0.18886746,-4.366396,-6.0137763,-1.3432972
0.24312113,-0.18191648,-0.18298659,-4.2304373,-5.826522,-1.3014702
0.23555109,-0.17625216,-0.17728895,-4.0987144,-5.645102,-1.2609464
0.2282169,-0.17076433,-0.17176883,-3.9710956,-5.4693346,-1.2216853
0.22111121,-0.16544746,-0.16642068,-3.8474526,-5.2990427,-1.1836472
0.21422687,-0.16029622,-0.16123915,-3.7276616,-5.134056,-1.1467942
0.20755701,-0.15530546,-0.15621902,-3.6116023,-4.9742093,-1.1110891
0.2010949,-0.15047015,-0.15135528,-3.4991581,-4.8193417,-1.0764964
0.19483405,-0.14578547,-0.14664303,-3.3902164,-4.6692977,-1.042981
0.18876824,-0.14124668,-0.14207755,-3.2846677,-4.523927,-1.0105096
0.18289134,-0.13684927,-0.13765426,-3.1824067,-4.3830843,-0.9790495
0.17719747,-0.1325888,-0.13336875,-3.0833304,-4.246628,-0.9485693
0.17168094,-0.12846103,-0.12921669,-2.9873397,-4.1144214,-0.9190383
0.16633621,-0.12446181,-0.12519394,-2.8943384,-3.986332,-0.89042693
0.1611579,-0.120587125,-0.121296465,-2.8042333,-3.8622313,-0.8627066
0.15614086,-0.116833106,-0.11752036,-2.7169342,-3.7419953,-0.8358495
0.15128006,-0.11319598,-0.113861844,-2.6323535,-3.6255035,-0.80982876
0.14657061,-0.109672114,-0.110317245,-2.5504065,-3.5126393,-0.78461826
0.1420078,-0.106257975,-0.10688303,-2.4710112,-3.4032893,-0.76019275
0.13758707,-0.10295014,-0.10355573,-2.3940883,-3.2973442,-0.7365278
0.13330398,-0.0997453,-0.100332044,-2.3195603,-3.1946979,-0.7135997
0.12915426,-0.09664025,-0.09720873,-2.2473528,-3.0952475,-0.69138545
0.12513374,-0.09363188,-0.094182655,-2.1773937,-2.9988937,-0.6698629
0.121238396,-0.090717174,-0.09125081,-2.1096125,-2.90554,-0.6490105
0.117464334,-0.08789322,-0.088410236,-2.043942,-2.8150926,-0.62880725
0.113807775,-0.08515718,-0.0856581,-1.9803158,-2.7274613,-0.609233
0.110265054,-0.08250632,-0.08299166,-1.9186707,-2.6425583,-0.59026825
0.10683263,-0.079937994,-0.08040822,-1.8589447,-2.5602984,-0.5718939
0.10350707,-0.077449635,-0.07790522,-1.8010781,-2.4805996,-0.5540916
0.100285046,-0.07503874,-0.07548014,-1.7450131,-2.4033823,-0.5368435
0.09716333,-0.07270289,-0.07313056,-1.6906936,-2.3285687,-0.52013236
0.09413879,-0.07043977,-0.07085413,-1.6380651,-2.2560842,-0.50394154
0.09120841,-0.0682471,-0.06864856,-1.587075,-2.185856,-0.4882547
0.088369265,-0.066122696,-0.06651166,-1.5376722,-2.1178145,-0.47305623
0.085618496,-0.06406443,-0.06444128,-1.4898075,-2.051891,-0.4583309
0.08295337,-0.06207023,-0.06243535,-1.4434327,-1.9880197,-0.44406396
0.0803712,-0.060138114,-0.060491867,-1.3985016,-1.9261369,-0.4302412
0.07786942,-0.058266144,-0.058608886,-1.3549694,-1.8661803,-0.4168487
0.07544552,-0.056452446,-0.05678452,-1.3127922,-1.8080903,-0.40387315
0.07309707,-0.05469521,-0.05501695,-1.271928,-1.7518085,-0.39130148
0.07082173,-0.05299268,-0.0533044,-1.2323358,-1.6972789,-0.37912118
0.068617225,-0.051343143,-0.051645163,-1.1939762,-1.6444467,-0.36732006
0.06648134,-0.049744956,-0.050037578,-1.1568106,-1.5932591,-0.35588628
0.06441194,-0.04819652,-0.048480034,-1.120802,-1.5436649,-0.34480843
0.06240696,-0.046696287,-0.046970975,-1.0859143,-1.4956146,-0.33407542
