ax,ay,az,gx,gy,gz
-0.3345485,0.73909765,-3.4973044,-14.81468,105.53641,-58.9269
-0.78168964,-0.009954963,-4.5258517,12.280892,116.32247,-92.29869
-1.1430894,-0.6081496,-5.2252307,41.29153,117.15415,-113.63615
-1.4079493,-0.9102056,-5.8976607,47.051235,104.35704,-120.03416
-1.4464344,-1.4793983,-6.504252,46.33003,84.85039,-120.19513
-1.3614662,-2.4992466,-7.1082487,45.026295,62.808723,-113.63691
-1.1514479,-3.5589614,-7.5826387,44.175026,39.853794,-101.0244
-0.84137434,-4.4112306,-7.8828993,42.28237,17.580334,-84.33305
-0.44064867,-5.071928,-7.995111,39.052128,-3.8633597,-64.984436
0.073659986,-5.6715455,-7.9425344,39.18373,-23.105246,-44.57361
0.7706446,-6.216875,-7.660047,45.45186,-37.36319,-26.171923
1.4928973,-6.5671844,-7.22764,58.173504,-45.334064,-10.103416
2.160371,-6.618797,-6.6482263,72.71974,-48.652706,4.118138
2.709127,-6.2774553,-5.9174485,83.51773,-48.940784,17.894323
3.148841,-5.6862006,-5.062078,86.26044,-46.7711,31.75724
3.4605997,-4.9997396,-4.1414795,84.09924,-43.1318,44.01775
3.697848,-4.402534,-3.2839873,80.15691,-38.084263,54.638565
3.8828213,-3.8689632,-2.5138001,76.72723,-30.749441,63.379704
3.9830236,-3.3235147,-1.8141527,74.02906,-22.08604,70.87959
4.0024357,-2.7016363,-1.1883895,70.99222,-11.963672,76.72144
3.9156842,-2.0141718,-0.70260525,67.62351,-1.3996813,80.758736
3.7800486,-1.3367848,-0.34310105,63.705616,8.786403,82.97226
3.6199403,-0.6760763,-0.091257006,59.05488,18.190681,83.45849
3.4593453,-0.05493155,0.0675988,53.862137,26.900904,82.32098
3.3078928,0.48978078,0.13878715,48.84308,35.363712,79.247475
3.163863,0.9406319,0.09993854,44.594677,43.531242,75.03246
3.0317595,1.3175706,-0.019200485,41.520374,51.258698,69.60928
2.910985,1.6434232,-0.20681556,39.312035,58.190853,63.18122
2.792,1.9388233,-0.45736927,37.43251,63.680557,55.821247
2.682227,2.1906211,-0.73471975,34.90475,66.721855,48.130573
2.5685751,2.3739808,-1.035238,31.757975,67.79066,40.965435
2.4319177,2.5122023,-1.3457268,28.277838,66.84774,34.44589
2.2648747,2.6307354,-1.6492144,25.025885,64.0772,28.24553
2.0796402,2.769567,-1.899305,21.988253,59.642673,22.163694
1.8946433,2.9595268,-2.0362647,17.927288,53.661953,15.855982
1.7578934,3.1920812,-2.0119667,13.284287,47.77622,8.701602
1.6865267,3.362014,-1.8924493,10.884259,43.24982,-0.85919416
1.6887867,3.4606369,-1.6890193,9.747595,40.51356,-11.604691
1.765547,3.4758012,-1.4621608,8.462662,39.17656,-22.277254
1.910949,3.4052365,-1.2587397,4.780979,37.21512,-31.416489
2.2276056,3.1727877,-1.0369533,-1.298963,35.036835,-38.89732
2.6595428,2.7527454,-0.81401646,-7.842453,33.882942,-44.943768
3.1523485,2.1505117,-0.5984161,-13.701466,34.53593,-49.038532
3.634236,1.4490001,-0.40871704,-18.50962,37.209995,-50.6715
4.0406585,0.7484565,-0.28804374,-21.519083,41.74181,-49.233364
4.3157854,0.16057648,-0.28550547,-23.168,46.49936,-45.914806
4.5050783,-0.2976773,-0.34996384,-24.108456,51.27977,-41.30693
4.6279306,-0.6406668,-0.47467202,-24.397364,55.91623,-36.055145
4.696599,-0.89256746,-0.65459925,-24.2606,60.450367,-30.55783
4.716786,-1.0806844,-0.8853331,-23.599474,64.57582,-24.873981
4.690351,-1.2053174,-1.1650223,-22.84471,68.04859,-18.940138
4.631539,-1.2907885,-1.4667084,-22.06367,70.58272,-12.64052
4.5524125,-1.3363965,-1.7749995,-21.206285,72.155975,-6.178688
4.4568686,-1.3422375,-2.0751953,-19.828901,72.41948,0.4320955
4.360902,-1.3071144,-2.3551838,-17.536272,71.72087,6.712101
4.2514067,-1.222594,-2.6420918,-14.796257,70.12747,12.630006
4.12499,-1.097585,-2.9293902,-11.917315,67.37387,18.27594
3.9764636,-0.93035865,-3.213846,-8.716347,63.5016,23.421837
3.8165312,-0.7211314,-3.481545,-5.448567,58.73516,27.872932
3.6510766,-0.47178227,-3.7303834,-2.5414581,53.080418,31.169825
3.4735584,-0.1929939,-3.9569025,0.44952548,46.826103,33.6328
3.2872221,0.11556009,-4.1513233,3.4267452,39.924614,35.279896
3.1076872,0.45281464,-4.3088317,6.051928,32.54506,36.013622
2.9417703,0.7787418,-4.4411335,8.2695675,24.727688,35.913162
2.8073857,1.0859181,-4.5439587,9.708062,16.32252,35.225044
2.7135506,1.3912139,-4.606701,10.41934,7.569277,34.164543
2.6580257,1.6760497,-4.622991,10.232138,-1.36405,32.449574
2.6351516,1.9047183,-4.591608,10.240643,-9.85117,29.751804
2.6150262,2.0712795,-4.543683,11.157218,-17.335667,25.957613
2.5737638,2.196873,-4.513847,13.259513,-24.308924,21.38342
2.5286863,2.2936063,-4.505733,15.068282,-31.976835,17.350296
2.523895,2.4022007,-4.470798,15.24706,-40.818626,14.522257
2.573816,2.5222254,-4.3754783,12.991462,-50.298416,12.661801
2.6781023,2.6076596,-4.226401,9.898402,-59.146587,10.21027
2.8150473,2.6349459,-4.0441704,8.517533,-65.68955,5.52671
2.96384,2.5897272,-3.8519855,8.288566,-70.82284,-0.046577968
3.111572,2.4983428,-3.66547,8.425938,-75.211754,-5.5268116
3.252698,2.3638206,-3.4942443,8.194531,-79.3538,-10.140571
3.3877301,2.186394,-3.3306885,7.494915,-83.39805,-13.658999
3.5230582,1.9806275,-3.1600354,6.929551,-86.776436,-16.311132
3.6593094,1.7697544,-2.9650586,6.709324,-89.32468,-18.66999
3.7895024,1.5739543,-2.751494,6.7632713,-90.86855,-20.827936
3.9030206,1.394988,-2.5378747,6.9191713,-91.57169,-22.666912
3.99724,1.225977,-2.3323362,7.237005,-91.69774,-24.078455
4.0797386,1.0697312,-2.1257145,7.4296036,-91.32116,-24.614449
4.1576214,0.9434449,-1.9026824,7.140727,-90.47747,-24.510403
4.22944,0.831986,-1.6804616,6.5124574,-88.923256,-24.061064
4.285136,0.7261813,-1.4755496,5.858258,-86.60106,-23.499697
4.318962,0.6237441,-1.2955952,5.3932786,-83.60834,-22.977232
4.326516,0.52638036,-1.1473095,5.2950206,-80.14648,-22.394875
4.3080487,0.44078472,-1.024281,5.0889864,-76.56504,-21.42564
4.2765455,0.37619042,-0.912199,4.4785805,-72.83916,-19.938606
4.2350836,0.3332686,-0.80861247,3.4423523,-68.988625,-18.145199
4.1841693,0.3116063,-0.7159383,1.716943,-64.88937,-16.007463
4.1195984,0.30142078,-0.6428037,-0.6278967,-60.705853,-13.692919
3.9907699,0.2919947,-0.6227019,-0.60826105,-58.80745,-13.264711
3.8660057,0.282866,-0.60323423,-0.58924484,-56.96894,-12.850014
3.7451744,0.27402508,-0.58438027,-0.5708281,-55.188385,-12.448389
3.628149,0.26546264,-0.56612015,-0.55299145,-53.463917,-12.059415
3.5148072,0.2571697,-0.5484348,-0.53571624,-51.793724,-11.682684
3.4050305,0.2491376,-0.53130573,-0.5189844,-50.17607,-11.317802
3.2987044,0.24135798,-0.5147151,-0.50277853,-48.609264,-10.964391
3.1957188,0.23382278,-0.49864563,-0.48708174,-47.091682,-10.622083
3.0959666,0.22652416,-0.48308077,-0.4718778,-45.621746,-10.290522
2.9993446,0.21945459,-0.46800432,-0.457151,-44.19794,-9.969365
2.9057534,0.21260674,-0.45340076,-0.4428861,-42.81879,-9.658281
2.8150964,0.20597358,-0.43925503,-0.42906842,-41.48288,-9.356952
2.7272801,0.1995483,-0.4255526,-0.41568375,-40.188835,-9.065063
2.6422148,0.19332428,-0.41227937,-0.40271834,-38.93532,-8.78232
2.559813,0.18729514,-0.39942175,-0.39015892,-37.72106,-8.508429
2.4799905,0.18145473,-0.38696662,-0.3779926,-36.544804,-8.243111
2.4026656,0.17579706,-0.37490118,-0.36620697,-35.405357,-7.9860945
2.3277593,0.17031635,-0.36321315,-0.35479,-34.301548,-7.737118
2.2551956,0.16500704,-0.35189062,-0.34373006,-33.232258,-7.495927
2.1849003,0.15986371,-0.34092206,-0.33301586,-32.196396,-7.2622757
2.116802,0.15488113,-0.3302963,-0.32263651,-31.19291,-7.0359273
2.0508313,0.15005423,-0.32000256,-0.31258148,-30.220776,-6.8166513
1.9869217,0.14537811,-0.31003037,-0.30284056,-29.27901,-6.604225
1.9250079,0.14084804,-0.30036962,-0.29340386,-28.36666,-6.398433
1.8650275,0.13645943,-0.29101056,-0.28426182,-27.482794,-6.1990676
1.8069196,0.13220781,-0.28194365,-0.2754052,-26.626524,-6.0059257
1.7506255,0.1280889,-0.27315977,-0.26682502,-25.796982,-5.8188124
1.6960882,0.12409855,-0.26465002,-0.25851262,-24.993326,-5.637539
1.6432526,0.1202327,-0.25640577,-0.25045955,-24.214748,-5.461921
1.5920653,0.11648746,-0.24841876,-0.24265777,-23.46046,-5.291783
1.542475,0.112859055,-0.24068089,-0.23509935,-22.729704,-5.1269517
1.4944313,0.10934381,-0.23318437,-0.22777666,-22.021738,-4.967262
1.4478859,0.1059382,-0.22592163,-0.22068235,-21.33585,-4.812552
1.4027919,0.10263878,-0.21888536,-0.21380927,-20.67135,-4.6626663
1.3591038,0.099442236,-0.21206847,-0.20715047,-20.02757,-4.517454
1.3167777,0.09634535,-0.20546411,-0.20069927,-19.40386,-4.3767686
1.2757711,0.093345,-0.19906563,-0.19444917,-18.799593,-4.240469
1.2360427,0.09043817,-0.19286658,-0.18839388,-18.214159,-4.108418
1.1975526,0.08762194,-0.18686074,-0.18252732,-17.646973,-3.9804823
1.1602619,0.08489347,-0.18104208,-0.1768436,-17.097464,-3.856534
1.1241333,0.08225004,-0.17540474,-0.171337,-16.565079,-3.736448
1.0891305,0.07968897,-0.16994306,-0.16600198,-16.049282,-3.620104
1.0552183,0.0772077,-0.16465156,-0.16083318,-15.549556,-3.5073853
1.0223628,0.07480374,-0.15952492,-0.15582544,-15.065401,-3.3981783
0.9905308,0.07247467,-0.15455799,-0.15097369,-14.596329,-3.2923737
0.95969045,0.07021816,-0.1497458,-0.1462731,-14.14187,-3.189865
0.9298109,0.068031944,-0.14508353,-0.14171894,-13.701568,-3.0905497
0.900862,0.065913826,-0.14056647,-0.13730665,-13.274981,-2.994328
0.87281483,0.06386169,-0.13619012,-0.13303179,-12.861682,-2.9011035
0.84564126,0.061873462,-0.13195008,-0.12889007,-12.461255,-2.8107827
0.819314,0.059947167,-0.12784208,-0.12487735,-12.0733,-2.723275
0.79380673,0.05808086,-0.12386204,-0.120989606,-11.697429,-2.6384926
0.7690938,0.056272678,-0.12000596,-0.11722294,-11.333262,-2.5563507
0.7451505,0.05452081,-0.11626995,-0.11357358,-10.980438,-2.4767668
0.72195286,0.052823495,-0.1126503,-0.11003786,-10.6386,-2.3996613
0.6994776,0.051179036,-0.109143354,-0.10661225,-10.307408,-2.3249571
0.6777022,0.049585782,-0.10574562,-0.103293315,-9.986528,-2.252579
0.6566049,0.048042145,-0.10245369,-0.10007772,-9.675641,-2.1824546
0.6361645,0.04654657,-0.099264264,-0.09696226,-9.374434,-2.1145139
0.61636055,0.045097567,-0.09617414,-0.093943805,-9.082606,-2.0486887
0.5971733,0.04369368,-0.09318025,-0.09101933,-8.799865,-1.984913
0.57858336,0.042333506,-0.090279564,-0.08818592,-8.525927,-1.923123
0.5605723,0.04101568,-0.0874692,-0.085440725,-8.260518,-1.863257
0.543122,0.039738886,-0.08474633,-0.08278101,-8.003373,-1.8052548
0.526215,0.038501844,-0.08210824,-0.0802041,-7.754234,-1.7490586
0.5098344,0.037303314,-0.079552285,-0.07770742,-7.5128517,-1.694612
0.4939638,0.036142103,-0.0770759,-0.07528846,-7.278984,-1.6418605
0.4785873,0.03501704,-0.07467662,-0.07294482,-7.052398,-1.5907513
0.4636895,0.033927005,-0.07235204,-0.070674144,-6.832866,-1.5412333
0.4492555,0.032870907,-0.070099816,-0.06847416,-6.6201687,-1.4932569
0.43527088,0.031847686,-0.06791772,-0.06634267,-6.414093,-1.4467741
0.4217216,0.030856319,-0.06580355,-0.06427752,-6.2144327,-1.4017384
0.40859413,0.029895816,-0.0637552,-0.062276676,-6.0209885,-1.3581047
0.39587536,0.028965214,-0.061770618,-0.06033812,-5.833566,-1.3158294
0.38355252,0.028063582,-0.05984782,-0.05845991,-5.6519785,-1.2748702
0.3716133,0.02719002,-0.057984877,-0.05664017,-5.4760437,-1.235186
0.36004576,0.026343651,-0.05617993,-0.05487708,-5.305586,-1.1967373
0.3488383,0.02552363,-0.054431166,-0.053168874,-5.1404343,-1.1594855
0.33797973,0.024729136,-0.05273685,-0.051513847,-4.980424,-1.1233932
0.32745922,0.023959376,-0.05109527,-0.049910337,-4.8253946,-1.0884246
0.31726617,0.023213577,-0.049504794,-0.048356745,-4.675192,-1.0545444
0.30739045,0.022490993,-0.047963828,-0.046851516,-4.529664,-1.021719
0.29782212,0.021790903,-0.046470832,-0.045393143,-4.388667,-0.98991543
0.2885517,0.021112608,-0.045024313,-0.04398017,-4.2520585,-0.95910186
0.2795698,0.020455426,-0.04362282,-0.042611178,-4.119703,-0.92924744
