ax,ay,az,gx,gy,gz
2.5272956,-3.750034,-4.5327687,11.762835,-113.74831,10.931008
3.00791,-3.9853926,-4.4475913,10.200578,-118.29508,18.605934
3.1523943,-4.0721974,-4.3817973,8.344126,-120.16586,26.341255
3.1948943,-4.2584476,-4.2709494,7.362172,-125.53306,31.771515
3.246215,-4.571882,-4.1212025,9.052671,-132.28018,36.293118
3.2862282,-4.9967136,-3.7852244,15.372455,-140.84277,39.024014
3.5118473,-5.3080425,-3.2592425,19.92967,-148.53865,43.79467
3.9292023,-5.600713,-2.5441744,22.449059,-154.62357,51.245804
4.4402647,-5.929139,-1.7035512,24.886318,-158.54613,59.997345
4.9614077,-6.215687,-0.7329742,28.320139,-158.49875,70.729065
5.4117956,-6.25228,0.39947858,32.504547,-154.94144,81.64936
5.7774477,-6.076848,1.5379515,36.755642,-148.06052,91.97289
6.015105,-5.7136264,2.59046,39.700184,-138.78923,102.03338
6.126806,-5.2024074,3.497758,40.71538,-128.08583,111.49668
6.137848,-4.5977945,4.2419815,40.24474,-115.77303,119.53204
6.073301,-3.8964422,4.814502,38.29961,-103.36091,126.23904
6.0084286,-3.203311,5.2568073,35.204735,-91.208565,131.73293
5.9704876,-2.5442402,5.5753646,32.19898,-79.0811,135.92317
5.93137,-1.9092709,5.7537723,30.385536,-66.79158,138.51826
5.861282,-1.2835568,5.7875357,30.113716,-54.447662,138.8537
5.7481546,-0.6581604,5.6444645,30.014053,-42.88313,137.79117
5.5981197,-0.0685274,5.368414,29.793135,-32.745594,135.5627
5.421681,0.49360287,4.995583,28.642899,-24.33948,132.4687
5.226249,1.0311744,4.5545564,26.175884,-17.596148,128.82343
5.006949,1.5380226,4.0551124,22.471579,-12.921754,124.229
4.7652626,1.9977233,3.5137658,18.913511,-9.353711,118.74931
4.5190425,2.426169,2.993803,15.824808,-6.9125786,112.0942
4.288823,2.8443112,2.526864,13.34254,-5.485793,104.15929
4.091555,3.2526727,2.1374002,10.725696,-4.8211107,95.0504
3.9247403,3.6103673,1.8462585,8.356533,-4.7026386,84.16883
3.8063874,3.9027827,1.6942965,5.528162,-4.697477,73.04914
3.7354097,4.122309,1.6292632,2.5217605,-4.717436,61.801937
3.7167037,4.240758,1.6643908,-0.78149575,-4.479776,51.016167
3.7441013,4.2557807,1.790942,-3.588637,-3.5192266,40.55941
3.8196707,4.190313,2.0004988,-5.440351,-1.1995153,29.915451
3.9706979,3.961404,2.272168,-6.5109243,2.5805418,19.779032
4.1571355,3.6324098,2.532455,-7.1049647,7.617022,10.63264
4.355499,3.2268016,2.742354,-7.79746,13.44081,2.6122792
4.5462713,2.7408328,2.8763711,-8.867101,19.545874,-3.8198647
4.718084,2.2119155,2.9361792,-9.703392,25.97516,-8.462914
4.8514986,1.6590221,2.9101048,-9.955369,32.519363,-11.855749
4.945929,1.1207763,2.8273463,-9.576378,39.020115,-14.042421
5.0038586,0.6182515,2.688366,-8.721469,45.26589,-15.064541
5.0344434,0.17517549,2.5041003,-7.4838834,51.061848,-15.153192
5.051018,-0.20228072,2.2838008,-6.1794376,56.236813,-14.219045
5.051261,-0.5148463,2.0221758,-4.78755,60.730328,-12.694148
5.0399303,-0.78166,1.7487344,-3.343556,64.54975,-10.58118
5.013455,-1.0038188,1.4783393,-1.9644891,67.76395,-8.003485
4.990494,-1.1906621,1.2119142,-0.9381975,70.5228,-4.915063
4.9718637,-1.3548732,0.9375278,-0.20693809,72.67194,-1.1828847
4.959423,-1.4899216,0.64108086,0.580221,74.27213,2.8814857
4.944742,-1.5890993,0.3412372,1.4989338,75.33349,7.141835
4.925341,-1.6423136,0.04671166,2.2461207,75.96096,11.539962
4.8894725,-1.6600987,-0.2462898,2.914464,76.0512,15.89864
4.8400307,-1.6489977,-0.5320393,3.667142,75.337395,20.064917
4.780594,-1.6080099,-0.8059826,4.6922264,74.08389,24.041553
4.7175045,-1.5312271,-1.0614536,5.84251,72.31612,27.865175
4.645715,-1.422381,-1.304089,7.0172367,69.95811,31.4146
4.568984,-1.2889789,-1.5330341,8.1718025,67.008606,34.541775
4.4921775,-1.1394379,-1.7480786,9.090525,63.322937,36.897804
4.4286366,-1.017875,-1.9395267,9.782576,59.35289,38.91301
4.3761644,-0.9321875,-2.1255038,10.715346,55.12832,40.883366
4.333079,-0.82288134,-2.3023973,11.89579,50.6068,42.88779
4.289966,-0.6599568,-2.4651515,13.127964,45.67665,44.592728
4.237073,-0.45275578,-2.6083224,14.351199,40.13223,45.34561
4.1870766,-0.22896326,-2.719538,15.287719,34.383152,45.65734
4.1386175,0.012228885,-2.8150237,15.983138,28.479136,45.489014
4.092851,0.27636942,-2.8988707,16.289957,22.4172,44.801147
4.0437365,0.5525501,-2.968434,16.206347,16.272486,43.5867
3.9769099,0.8384303,-3.0266776,15.786896,9.948026,41.457306
3.9121506,1.127267,-3.078714,15.3600235,3.5350175,38.54765
3.8711295,1.4002874,-3.123396,15.030779,-2.86509,34.89037
3.8532162,1.6481835,-3.1576145,14.820954,-9.311415,30.547716
3.8543828,1.8648255,-3.171296,14.472847,-15.690574,25.777061
3.8779714,2.038147,-3.1669466,13.902218,-22.098173,20.60036
3.9354393,2.1347542,-3.1170125,13.0759945,-28.400373,15.411475
4.0052586,2.1772497,-3.037822,12.047122,-34.381203,10.337845
4.072648,2.1701355,-2.9560912,11.321596,-39.90918,5.24808
4.1293945,2.1145003,-2.8705118,11.44969,-45.151867,0.08080065
4.174972,2.0344026,-2.764182,12.447288,-50.324947,-4.9558134
4.238516,1.9442266,-2.6047368,13.239625,-55.56749,-9.516372
4.341881,1.8536506,-2.3922842,13.174441,-60.63921,-13.420836
4.475804,1.7372334,-2.12601,12.249262,-65.22913,-16.817675
4.6060266,1.5573056,-1.8258382,11.219435,-68.79104,-19.763973
4.6997485,1.3276548,-1.5211422,11.15074,-71.05182,-22.209343
4.741049,1.1131656,-1.2093575,11.346815,-72.90109,-24.105072
4.761792,0.95388615,-0.88244957,10.9945345,-74.4155,-25.714226
4.770174,0.79877365,-0.55667603,10.125052,-75.3915,-27.220398
4.765842,0.6136389,-0.25114724,9.220098,-75.57673,-28.496845
4.7408066,0.4142998,0.017499318,8.387906,-74.77288,-29.176102
4.6777525,0.22727184,0.23504546,7.3832717,-73.550964,-29.22196
4.5889535,0.06596431,0.41754273,6.186876,-72.07917,-28.752218
4.483966,-0.06700803,0.5689364,4.940504,-70.44573,-28.016506
4.3686566,-0.18081604,0.6951695,3.8252172,-68.65009,-27.166542
4.251893,-0.28383228,0.803649,3.214874,-66.51787,-26.22889
4.1383786,-0.37193117,0.8901587,2.879578,-64.183846,-25.162418
4.0297894,-0.4479654,0.96315336,2.6159174,-61.72503,-23.88346
3.923436,-0.5115701,1.0220326,2.4349546,-59.15104,-22.482666
3.81937,-0.5642034,1.0626215,2.520979,-56.46361,-21.08975
3.7181423,-0.6068078,1.0835326,3.2888172,-53.778767,-19.67776
3.6215975,-0.63448596,1.0858583,4.1964436,-51.25652,-18.022343
3.526745,-0.65336263,1.0788369,4.926872,-48.815464,-16.016802
3.427255,-0.6656832,1.0588924,5.750586,-46.67787,-13.906582
3.3340096,-0.654612,1.0300225,6.577029,-44.902687,-11.877883
3.2483408,-0.6238833,1.0004045,7.3565655,-43.48609,-10.364284
3.1469798,-0.6044157,0.969188,7.127012,-42.129158,-10.040877
3.0487967,-0.5855585,0.9389501,6.904655,-40.814762,-9.727611
2.9536903,-0.5672921,0.9096598,6.689266,-39.541557,-9.424161
2.8615632,-0.549598,0.88128704,6.480624,-38.308235,-9.130216
2.7723205,-0.5324578,0.8538027,6.2785153,-37.11353,-8.845475
2.6858714,-0.51585424,0.82717854,6.0827327,-35.95622,-8.569647
2.6021273,-0.49977016,0.80138755,5.893076,-34.83512,-8.302449
2.5210028,-0.48418918,0.77640325,5.709352,-33.749092,-8.04361
2.4424148,-0.46909544,0.75220025,5.531373,-32.697025,-7.792865
2.366284,-0.45447356,0.72875386,5.358958,-31.677845,-7.549958
2.2925322,-0.44030866,0.7060403,5.1919312,-30.69052,-7.3146434
2.221085,-0.42658636,0.68403643,5.0301237,-29.734043,-7.086681
2.1518698,-0.4132927,0.6627199,4.873371,-28.807446,-6.86584
2.084816,-0.40041426,0.6420691,4.7215137,-27.909788,-6.651896
2.0198562,-0.38793793,0.6220632,4.574398,-27.04016,-6.4446325
1.9569244,-0.3758511,0.6026818,4.4318757,-26.19768,-6.2438397
1.8959569,-0.36414155,0.5839054,4.2938013,-25.381498,-6.0493145
1.836892,-0.35279742,0.56571496,4.1600366,-24.590788,-5.86086
1.7796702,-0.34180728,0.5480921,4.0304456,-23.824749,-5.6782856
1.7242336,-0.33116,0.53101915,3.9048975,-23.08261,-5.5014076
1.6705264,-0.3208449,0.5144787,3.7832658,-22.36362,-5.330047
1.6184943,-0.31085148,0.49845412,3.6654277,-21.667059,-5.164031
1.5680847,-0.30116972,0.48292932,3.5512648,-20.992218,-5.003193
1.5192472,-0.29178986,0.46788862,3.4406614,-20.33842,-4.8473697
1.4719323,-0.28270248,0.45331687,3.3335068,-19.70501,-4.696405
1.4260925,-0.2738984,0.43919942,3.2296927,-19.091343,-4.5501466
1.3816817,-0.26536876,0.42552203,3.1291149,-18.496809,-4.4084477
1.3386551,-0.257105,0.41227096,3.031672,-17.920805,-4.271166
1.2969697,-0.24909876,0.39943293,2.937266,-17.362753,-4.138162
1.2565832,-0.24134207,0.38699496,2.8458025,-16.822094,-4.0093036
1.2174554,-0.23382708,0.3749446,2.757189,-16.298283,-3.884461
1.1795467,-0.22654627,0.36326972,2.671337,-15.790793,-3.763508
1.1428193,-0.21949233,0.35195863,2.5881598,-15.299117,-3.6463242
1.1072361,-0.21265815,0.34099993,2.507574,-14.822759,-3.5327911
1.0727615,-0.2060369,0.33038267,2.429499,-14.361242,-3.422795
1.039361,-0.1996219,0.32009614,2.353856,-13.914103,-3.316226
1.0070008,-0.19340675,0.31013006,2.2805696,-13.480892,-3.2129765
0.9756487,-0.18738519,0.30047444,2.209566,-13.061175,-3.1129432
0.94527316,-0.18155119,0.29111955,2.140774,-12.654533,-3.0160255
0.9158437,-0.17589891,0.28205603,2.0741248,-12.260556,-2.922127
0.8873309,-0.17042267,0.27327484,2.0095513,-11.87885,-2.8311527
0.85970604,-0.16511698,0.2647671,1.9469889,-11.509031,-2.743012
0.83294153,-0.15997654,0.25652432,1.8863751,-11.15073,-2.6576161
0.8070106,-0.15499619,0.24853827,1.8276488,-10.803588,-2.5748796
0.7818871,-0.15017092,0.2408009,1.7707514,-10.467257,-2.4947197
0.75754607,-0.14549592,0.23330449,1.7156256,-10.141397,-2.417056
0.73396295,-0.14096649,0.2260415,1.6622167,-9.825686,-2.341811
0.71111417,-0.13657811,0.21900468,1.6104708,-9.519807,-2.2689087
0.6889769,-0.13232638,0.21218696,1.5603361,-9.223451,-2.1982768
0.66752887,-0.12820703,0.20558153,1.5117625,-8.936323,-2.129844
0.6467487,-0.124215946,0.19918178,1.4647013,-8.658135,-2.063542
0.6266156,-0.12034913,0.1929813,1.4191055,-8.388609,-1.9993042
0.60710925,-0.11660271,0.18697387,1.3749293,-8.127475,-1.9370667
0.5882103,-0.11297293,0.18115348,1.3321285,-7.8744717,-1.8767669
0.56989974,-0.10945617,0.1755143,1.2906604,-7.629345,-1.8183445
0.55215925,-0.1060489,0.1700507,1.2504833,-7.3918505,-1.761741
0.5349711,-0.1027477,0.16475719,1.211557,-7.16175,-1.7068999
0.5183181,-0.099549286,0.1596285,1.1738427,-6.9388127,-1.6537662
0.50218356,-0.09645045,0.15465946,1.1373025,-6.7228165,-1.6022866
0.48655128,-0.09344808,0.14984514,1.1018999,-6.513545,-1.5524096
0.47140568,-0.09053919,0.14518069,1.0675994,-6.310788,-1.5040855
0.45673162,-0.08772085,0.14066146,1.0343668,-6.1143436,-1.4572657
0.44251436,-0.084990256,0.1362829,1.0021688,-5.924015,-1.4119036
0.4287397,-0.082344666,0.13204068,0.9709731,-5.739611,-1.3679537
0.41539386,-0.079781435,0.1279305,0.9407486,-5.5609484,-1.3253719
0.40246347,-0.077298,0.12394828,0.9114649,-5.387847,-1.2841158
0.3899356,-0.07489187,0.12009003,0.88309294,-5.2201347,-1.2441438
0.37779775,-0.07256065,0.11635189,0.8556042,-5.057643,-1.2054163
0.36603776,-0.070301995,0.11273011,0.8289711,-4.90021,-1.1678945
0.35464385,-0.068113655,0.10922108,0.80316716,-4.747678,-1.1315405
0.34360462,-0.06599344,0.10582129,0.7781664,-4.5998936,-1.0963184
0.33290902,-0.06393922,0.10252732,0.753944,-4.45671,-1.0621926
0.3225464,-0.06194895,0.0993359,0.73047554,-4.3179836,-1.0291291
0.31250632,-0.060020637,0.09624382,0.7077377,-4.1835756,-0.997095
0.3027788,-0.058152348,0.093247995,0.6857076,-4.0533514,-0.96605796
