ax,ay,az,gx,gy,gz
0.27363884,-3.1318467,-6.642788,64.032394,26.356604,-65.30786
0.0794124,-3.1581254,-7.310419,80.46031,16.473915,-69.11729
-0.30044082,-3.5756152,-8.070046,94.71603,2.9446006,-73.72457
-0.6016911,-3.5284615,-8.6820545,99.903496,-19.636112,-74.14427
-0.6680475,-3.3997257,-8.951763,96.17251,-43.19504,-71.10016
-0.48864856,-3.3549232,-8.9005,84.71142,-65.79334,-64.14178
-0.16342331,-3.5891497,-8.685339,72.91695,-85.951805,-53.02692
0.21789955,-4.063016,-8.430321,66.2005,-101.42806,-40.47268
0.6189317,-4.523508,-8.169571,66.14131,-112.566246,-28.868519
1.0949798,-4.894265,-7.799417,70.359024,-119.895096,-18.167982
1.6516485,-5.1630597,-7.277223,75.63784,-124.24255,-7.523875
2.28232,-5.3655148,-6.5892706,79.5698,-125.49095,6.0283513
2.940621,-5.4244757,-5.7503076,82.25275,-124.159874,19.974472
3.5044477,-5.379697,-4.9424987,83.70235,-120.82762,32.569435
3.9701548,-5.3353214,-4.207801,85.31876,-115.46147,43.54813
4.3182187,-5.254955,-3.5441122,87.34461,-108.82335,54.440033
4.5709414,-5.0218673,-2.9168725,87.41425,-101.733406,66.61794
4.7424417,-4.635932,-2.3306248,85.51407,-95.017586,78.24988
4.845512,-4.1773767,-1.8200455,82.36583,-88.350174,88.70056
4.891005,-3.7513158,-1.4064435,79.09208,-81.862,98.07001
4.9141107,-3.3255036,-1.0321025,75.54063,-75.49533,106.903
4.9349666,-2.8318574,-0.65648514,70.52458,-68.644516,115.31716
4.9163804,-2.218921,-0.29510477,64.574615,-61.746475,122.003525
4.862651,-1.6039736,0.018492732,59.151493,-54.539433,126.30543
4.7809787,-1.0103127,0.2731533,54.870884,-46.960632,128.11473
4.6760345,-0.4694644,0.46171582,52.918827,-39.171104,127.90337
4.563285,0.042064723,0.6137402,51.712288,-31.193596,126.011
4.429639,0.545355,0.69893926,49.987404,-23.4184,123.20834
4.275787,1.0269233,0.7257276,47.29331,-16.149023,119.37181
4.1139007,1.4624318,0.69611174,43.921772,-9.529924,114.54505
3.9379742,1.8354795,0.59671134,41.908104,-3.7915595,108.41092
3.752026,2.180178,0.4670876,40.279884,0.6342566,100.63219
3.5668094,2.4908912,0.3179671,39.007393,4.0408053,92.09077
3.3742087,2.7877674,0.16157281,37.458317,6.02206,82.927986
3.2078695,3.0764382,0.042481944,34.664387,6.9828396,73.651306
3.0737927,3.3188033,-0.039786197,30.228941,7.054369,64.25943
2.958064,3.5002446,-0.09766249,24.914145,6.5405383,54.677273
2.8764796,3.614779,-0.09973054,19.56482,5.894664,44.992626
2.856655,3.657136,-0.037178144,14.827086,6.0512486,35.12911
2.893928,3.635923,0.068101145,11.0890045,7.586416,24.937502
2.977457,3.55573,0.18395557,7.9827037,10.4298115,14.5545
3.1025589,3.395217,0.28669184,5.2508116,14.222105,4.458181
3.269244,3.106036,0.3661792,2.6831434,18.211285,-4.6706243
3.4616003,2.7460294,0.4329398,-0.039985854,22.296366,-12.464557
3.676415,2.3315125,0.48747337,-3.1874802,26.587502,-18.650776
3.90085,1.8801628,0.51577806,-6.9644303,31.201439,-23.243574
4.117167,1.4040096,0.49763036,-11.108057,36.09696,-25.837292
4.310944,0.8935202,0.41179553,-15.010119,41.105545,-26.879112
4.4767127,0.36398262,0.26284415,-17.486595,46.221626,-26.035511
4.596507,-0.154044,0.052437972,-17.479353,50.949524,-23.515913
4.6837425,-0.6000859,-0.18414,-16.336088,54.92713,-19.43117
4.749465,-0.9534885,-0.42527667,-14.636583,57.795116,-13.6456175
4.795084,-1.1908301,-0.66412866,-12.783502,59.946434,-7.0604763
4.829142,-1.3450749,-0.8987594,-11.069126,61.54386,0.01611106
4.848616,-1.4354116,-1.1314892,-9.495327,62.62896,7.268313
4.848266,-1.4890912,-1.3725481,-7.3228345,63.1323,14.380432
4.830928,-1.5136192,-1.6164585,-3.9028766,62.932884,21.29144
4.7986817,-1.4731244,-1.8452964,-0.07841913,62.34062,28.00075
4.742272,-1.3627954,-2.0601542,4.179314,61.19132,34.308197
4.6613846,-1.1820229,-2.2492993,7.9974885,59.40293,40.06351
4.5583057,-0.94343984,-2.4173205,11.133832,56.989628,44.98144
4.432626,-0.67303574,-2.5754101,13.359549,53.705727,48.598125
4.2870445,-0.3899272,-2.7222831,15.277099,49.91268,51.315823
4.118569,-0.09177034,-2.8522167,17.041803,45.66027,53.152443
3.944166,0.21754587,-2.9627607,18.42585,40.90188,54.048225
3.7743356,0.51723456,-3.0549214,19.68816,35.7905,54.072685
3.6099825,0.8081268,-3.134307,20.77657,30.254093,53.036133
3.4491975,1.1000706,-3.20762,21.713017,24.430233,51.159836
3.3040369,1.3740891,-3.2748277,22.341188,18.457085,48.38754
3.179613,1.5997497,-3.344506,22.88023,12.391878,44.89645
3.0741084,1.7671394,-3.424344,23.531506,6.1478477,41.037773
2.982597,1.9026479,-3.5092912,24.314487,-0.603151,36.91513
2.9144654,2.0265322,-3.5841582,24.999855,-7.7434306,32.643867
2.8713493,2.1339037,-3.6491065,25.449743,-15.240874,28.310024
2.849068,2.2133577,-3.6957028,25.757227,-22.956238,23.927044
2.8455217,2.264896,-3.708212,25.84994,-30.679892,19.672007
2.8622284,2.2975237,-3.6862977,25.611612,-38.319435,15.762252
2.8952885,2.3216681,-3.6371136,25.280794,-45.77983,11.896815
2.9635322,2.3329751,-3.5391011,25.134039,-52.81522,7.769683
3.0633657,2.3199232,-3.3904102,25.092106,-59.149506,3.516331
3.1908805,2.2745605,-3.190129,24.895771,-64.62935,-0.49777097
3.3362606,2.19814,-2.9610424,24.133167,-68.99884,-3.873385
3.488732,2.065915,-2.7211065,23.75223,-72.36573,-7.057924
3.6277285,1.912374,-2.4786525,23.819092,-74.75152,-10.0040245
3.737452,1.7506489,-2.2355435,24.021868,-76.43766,-12.571959
3.8148413,1.5904835,-1.9938959,23.955616,-77.698074,-14.469395
3.8681052,1.4411429,-1.7520219,22.749819,-78.54472,-15.189522
3.904834,1.2964052,-1.5112385,20.83385,-79.08103,-15.321879
3.9361928,1.1543303,-1.2679285,18.150255,-79.13336,-15.080682
3.964737,1.020093,-1.0279957,14.855685,-78.57573,-14.65015
3.9892423,0.89039874,-0.8078027,11.424766,-77.34749,-14.019137
4.0021677,0.7612155,-0.61857766,8.821286,-75.37074,-13.153924
3.9875753,0.6304265,-0.46201524,7.009075,-73.005714,-12.237793
3.9538248,0.5069357,-0.32163978,5.5750637,-70.388916,-11.188304
3.9064698,0.3939171,-0.1970562,4.184467,-67.5207,-9.862672
3.847163,0.29434922,-0.091980055,2.5514526,-64.5331,-8.344138
3.7268884,0.28514692,-0.089104466,2.4716861,-62.515583,-8.083274
3.6104052,0.2762347,-0.08631952,2.394434,-60.56167,-7.8306327
3.497591,0.26760322,-0.0836223,2.3196151,-58.669304,-7.5859494
3.3883276,0.2592434,-0.08100997,2.2471514,-56.8365,-7.3489676
3.2825012,0.25114653,-0.07847981,2.176967,-55.061344,-7.1194396
3.1800013,0.2433042,-0.07602919,2.1089885,-53.341988,-6.8971267
3.0807216,0.23570822,-0.07365555,2.043146,-51.67665,-6.6817985
2.9845588,0.22835076,-0.071356446,1.9793704,-50.0636,-6.4732304
2.891414,0.22122416,-0.06912949,1.9175963,-48.501167,-6.271208
2.8011906,0.2143211,-0.06697238,1.8577598,-46.98774,-6.0755215
2.7137957,0.20763446,-0.0648829,1.7997992,-45.521763,-5.8859706
2.6291397,0.20115738,-0.062858894,1.743655,-44.101723,-5.702359
2.5471354,0.19488315,-0.06089829,1.6892694,-42.726166,-5.5244994
2.4676988,0.18880542,-0.058999076,1.6365868,-41.39368,-5.352209
2.3907485,0.1829179,-0.05715931,1.5855532,-40.1029,-5.1853113
2.3162062,0.17721461,-0.05537711,1.5361165,-38.852512,-5.023636
2.2439954,0.17168972,-0.05365066,1.488226,-37.64124,-4.8670173
2.174043,0.1663376,-0.051978193,1.4418333,-36.46784,-4.7152967
2.1062772,0.16115278,-0.050358012,1.3968908,-35.331123,-4.5683193
2.0406294,0.15613002,-0.04878847,1.3533528,-34.22993,-4.4259353
1.9770328,0.1512642,-0.047267966,1.3111753,-33.16315,-4.288
1.9154228,0.14655037,-0.045794964,1.2703154,-32.129692,-4.1543736
1.855737,0.14198378,-0.044367965,1.2307316,-31.12851,-4.024921
1.797915,0.13755977,-0.04298552,1.1923838,-30.15859,-3.8995101
1.7418981,0.13327387,-0.041646242,1.1552331,-29.218952,-3.7780147
1.6876296,0.12912177,-0.04034876,1.1192422,-28.308643,-3.6603115
1.6350548,0.12509923,-0.039091773,1.0843743,-27.426743,-3.5462818
1.5841205,0.1212022,-0.03787401,1.0505946,-26.57236,-3.43581
1.5347753,0.11742677,-0.03669424,1.0178686,-25.744633,-3.3287847
1.4869694,0.1137691,-0.03555127,0.9861635,-24.942726,-3.2250981
1.4406545,0.11022551,-0.03444395,0.9554473,-24.16583,-3.1246455
1.395784,0.10679244,-0.033371158,0.92568904,-23.413164,-3.0273256
1.3523127,0.10346642,-0.032331824,0.8968587,-22.683968,-2.9330404
1.3101968,0.1002441,-0.031324893,0.8689273,-21.977507,-2.8416948
1.2693938,0.09712224,-0.030349355,0.8418666,-21.29307,-2.7531972
1.2298628,0.094097696,-0.029404227,0.81564957,-20.62997,-2.667458
1.1915641,0.09116743,-0.028488558,0.79024965,-19.987537,-2.5843916
1.1544589,0.08832849,-0.027601428,0.7656414,-19.36513,-2.5039139
1.1185101,0.08557802,-0.026741946,0.7418,-18.762117,-2.4259446
1.0836817,0.082913265,-0.025909247,0.71870166,-18.177896,-2.3504047
1.0499384,0.08033155,-0.025102496,0.69632304,-17.611881,-2.2772188
1.0172466,0.07783027,-0.024320882,0.67464167,-17.063501,-2.2063131
0.98557335,0.075406924,-0.02356362,0.6536358,-16.532207,-2.1376169
0.9548868,0.073059075,-0.02282995,0.6332844,-16.017466,-2.0710607
0.92515624,0.070784375,-0.022119137,0.613567,-15.518759,-2.0065777
0.8963519,0.06858052,-0.021430464,0.5944638,-15.035588,-1.9441037
0.8684447,0.06644533,-0.020763244,0.5759557,-14.567468,-1.8835757
0.84140676,0.06437664,-0.020116808,0.55802405,-14.113929,-1.824933
0.81521106,0.062372383,-0.019490507,0.54065096,-13.674516,-1.7681168
0.78983116,0.060430553,-0.01888371,0.5238189,-13.248789,-1.7130703
0.76524174,0.0585492,-0.018295813,0.50751114,-12.836321,-1.6597382
0.7414181,0.056726437,-0.017726226,0.49171123,-12.436699,-1.6080669
0.71833646,0.05496044,-0.017174376,0.47640336,-12.049521,-1.558005
0.6959736,0.05324944,-0.016639713,0.46157223,-11.674402,-1.5095019
0.67430705,0.05159172,-0.016121699,0.44720292,-11.310964,-1.4625093
0.65331525,0.04998562,-0.015619814,0.43328106,-10.958843,-1.41698
0.6329771,0.048429538,-0.01513356,0.41979274,-10.617687,-1.3728684
0.61327225,0.046921905,-0.0146624455,0.40672442,-10.287154,-1.3301305
0.594181,0.045461215,-0.014206001,0.394063,-9.966912,-1.2887232
0.57568413,0.044046007,-0.013763768,0.38179582,-9.656643,-1.2486053
0.5577632,0.042674866,-0.013335304,0.3699106,-9.356033,-1.2097365
0.54040027,0.041346412,-0.012920181,0.35839543,-9.064784,-1.1720779
0.5235779,0.040059324,-0.012517984,0.34723878,-8.782602,-1.1355917
0.50727934,0.038812306,-0.012128308,0.3364295,-8.509207,-1.1002417
0.49148816,0.037604112,-0.011750764,0.32595673,-8.244323,-1.0659921
0.47618863,0.036433537,-0.011384975,0.31581005,-7.987685,-1.0328088
0.46136546,0.0352994,-0.011030574,0.30597925,-7.739038,-1.0006588
0.44700375,0.03420058,-0.010687207,0.29645452,-7.4981318,-0.9695095
0.43308917,0.03313596,-0.01035453,0.28722632,-7.2647257,-0.93933004
0.41960776,0.032104492,-0.010032209,0.27828538,-7.0385857,-0.91009015
0.40654606,0.03110513,-0.009719923,0.26962283,-6.819486,-0.88176054
0.39389098,0.030136883,-0.009417359,0.26122993,-6.6072073,-0.8543129
0.38162988,0.029198777,-0.009124214,0.25309834,-6.4015374,-0.8277197
0.36975047,0.028289875,-0.008840194,0.24521987,-6.2022696,-0.8019544
0.35824087,0.027409269,-0.008565017,0.23758666,-6.0092053,-0.7769911
0.3470896,0.026556075,-0.008298405,0.23019108,-5.8221517,-0.752805
0.33628544,0.025729442,-0.008040094,0.22302574,-5.6409206,-0.72937185
0.3258176,0.024928542,-0.007789824,0.21608344,-5.465331,-0.7066681
0.31567568,0.024152573,-0.0075473445,0.20935726,-5.295208,-0.68467116
0.30584943,0.02340076,-0.0073124133,0.20284046,-5.1303806,-0.6633589
0.29632908,0.022672351,-0.0070847957,0.19652653,-4.970684,-0.64271015
0.28710508,0.021966616,-0.006864263,0.19040914,-4.815959,-0.6227042
0.2781682,0.02128285,-0.006650596,0.18448217,-4.6660504,-0.60332096
0.26950955,0.02062037,-0.00644358,0.17873971,-4.520808,-0.58454114
