ax,ay,az,gx,gy,gz
0.8609169,-2.5409322,-5.2545934,26.356604,170.12337,-70.24701
0.20676735,-3.4391048,-6.8752513,72.74609,162.14618,-80.86364
-0.19420639,-3.5925748,-7.704414,93.61709,141.04887,-81.79318
-0.28963083,-3.5694222,-8.134194,96.29428,115.29001,-77.27913
-0.27687865,-3.6374102,-8.517723,94.070175,86.88221,-71.21998
-0.16684796,-3.761625,-8.832034,88.34055,53.969215,-64.48421
0.065204866,-3.913826,-9.059679,80.02661,22.42332,-56.386833
0.416666,-3.9969127,-9.120291,64.96915,-8.597166,-45.588654
0.86201996,-4.166235,-9.048193,50.37768,-36.28591,-34.7337
1.305053,-4.4939284,-8.912685,39.276676,-60.99809,-24.393255
1.7354202,-5.0062966,-8.7316675,35.584682,-82.58394,-13.453067
2.2244756,-5.6637917,-8.385102,34.990425,-99.01077,-0.6835246
2.7634764,-6.3091483,-7.8927917,37.55788,-109.926,13.893576
3.3330195,-6.818357,-7.3211265,42.10634,-116.684456,29.987534
3.9309566,-7.1631117,-6.687832,46.305244,-120.55165,47.668533
4.5108376,-7.343998,-6.0176516,48.45843,-122.15584,66.66345
5.0376215,-7.334334,-5.2592726,49.941063,-120.699005,84.00162
5.49141,-7.1860514,-4.4275546,53.93905,-114.994965,98.525955
5.8650875,-6.817284,-3.5038981,60.250206,-104.643135,110.691696
6.123596,-6.1430907,-2.5206707,66.770164,-90.8618,120.61169
6.190518,-5.1459813,-1.6125689,69.11202,-76.71089,126.255745
6.089297,-4.0671487,-0.8072414,69.82682,-63.107494,128.46158
5.958866,-3.1259983,-0.13997908,69.28703,-48.693268,128.11903
5.801589,-2.2986875,0.3379632,67.433105,-33.855373,126.327896
5.6275706,-1.566492,0.63846827,64.240814,-19.427925,123.523346
5.443405,-0.9416883,0.7781432,62.104206,-6.227597,119.20012
5.2564793,-0.40349308,0.7478335,60.648968,5.3508415,113.53332
5.0929914,0.08230908,0.63304,58.80749,15.240353,106.58783
4.9608283,0.50737953,0.44773433,56.624603,23.42601,98.89356
4.8487835,0.89311004,0.19338073,53.97981,29.840586,90.66532
4.741528,1.2516758,-0.12635818,51.27915,33.586956,81.35693
4.621799,1.5677619,-0.50772244,48.311035,35.18311,71.54488
4.485857,1.8409125,-0.88804996,44.838722,34.568905,61.754196
4.340382,2.104373,-1.2180982,40.414303,32.184597,52.242783
4.1781526,2.3776026,-1.477591,35.282223,28.938885,42.79959
4.0017715,2.6689205,-1.6523346,29.148964,24.760208,32.95056
3.8543866,2.9290278,-1.702966,22.986265,20.774216,22.798113
3.76042,3.1258998,-1.6654463,17.353136,17.73056,12.210912
3.7236729,3.2190266,-1.5696093,12.710694,15.855146,1.1815387
3.7724636,3.1800463,-1.4301618,9.166022,15.257547,-9.777381
3.9125626,3.0183141,-1.2342472,6.319389,16.006731,-20.12773
4.142978,2.7008083,-0.9747113,3.7019002,18.035751,-29.328053
4.419528,2.289458,-0.70997804,1.1111863,21.507332,-37.159943
4.7350388,1.7963965,-0.47109216,-1.6856595,26.087538,-43.575462
5.0739517,1.2390977,-0.2812439,-4.9378877,31.561945,-48.3096
5.3878493,0.625689,-0.17236395,-7.0123916,37.776134,-50.066814
5.6063747,-0.00024719207,-0.19778965,-7.6340795,44.20169,-49.368874
5.7411866,-0.54790664,-0.31245455,-7.252925,50.282536,-46.643604
5.8214726,-0.98946613,-0.48533165,-6.6935067,55.722515,-42.406334
5.867126,-1.3321573,-0.69325686,-6.3734307,60.07655,-36.962273
5.89181,-1.5888504,-0.9111602,-6.6875186,62.72736,-30.07522
5.896918,-1.7667999,-1.1367235,-6.9219303,64.26837,-22.5272
5.891442,-1.8959253,-1.3650708,-6.731478,64.9209,-14.47904
5.885207,-1.9770555,-1.594082,-6.0528035,64.83023,-5.990333
5.8876185,-2.0052452,-1.8185192,-5.057656,64.122185,2.7710807
5.8946605,-1.9676486,-2.0505018,-2.9530363,62.916508,10.976313
5.860999,-1.7896628,-2.3235812,0.49182063,61.028233,17.455368
5.7664495,-1.4940627,-2.6068835,4.606328,57.68195,21.844034
5.637325,-1.1444641,-2.8373382,8.0350485,53.083687,25.076519
5.489694,-0.7957571,-3.0181386,10.256447,47.962925,27.961508
5.311052,-0.4452162,-3.205492,11.188154,41.795517,30.15398
5.0965133,-0.08724877,-3.4245481,11.395169,34.313515,31.441168
4.8868165,0.2615049,-3.637863,11.283343,25.653645,31.638174
4.7022586,0.58434665,-3.8239145,11.1674795,16.365997,30.702677
4.548811,0.878698,-3.9701495,11.0870285,7.145845,28.758492
4.4204125,1.1385666,-4.092962,11.444402,-2.0907795,25.606808
4.311885,1.3390087,-4.210836,12.425346,-11.463708,21.646706
4.2255454,1.4976187,-4.3069735,13.728543,-20.863695,17.281445
4.154628,1.634258,-4.376182,15.297853,-30.179676,12.665268
4.1080527,1.7628177,-4.413165,16.845808,-39.285145,7.843484
4.1012692,1.8649974,-4.426373,18.60843,-48.217438,2.7295556
4.174295,1.9122139,-4.3878884,20.475584,-57.322987,-2.2146797
4.3147984,1.9250358,-4.2724023,21.93213,-66.26514,-6.6466255
4.5159435,1.9105724,-4.059357,22.336054,-74.58947,-10.264762
4.7542667,1.8597412,-3.7620382,21.837297,-81.903885,-13.184053
5.0078287,1.7628844,-3.4113166,20.89905,-87.33915,-15.494065
5.250842,1.625783,-3.0125732,19.94124,-91.42783,-17.379456
5.4548097,1.4737815,-2.6006513,18.987587,-94.16136,-18.976051
5.6036906,1.3045287,-2.1953104,17.92815,-95.73729,-20.204979
5.6886063,1.1134503,-1.8138076,16.858736,-96.3116,-20.990036
5.7113957,0.9062056,-1.464502,16.135328,-95.88096,-21.049828
5.66432,0.703686,-1.1454328,15.51018,-94.99535,-20.521656
5.5829268,0.52906936,-0.85018057,14.839856,-93.90015,-19.49206
5.4863825,0.39793876,-0.58650327,13.743927,-92.675064,-18.092558
5.393402,0.28935674,-0.3628473,12.6006565,-91.097984,-16.54035
5.3045874,0.19206534,-0.17309602,12.180082,-88.98297,-15.271583
5.2255125,0.10208508,-0.018400783,12.320775,-86.2497,-14.319151
5.1509027,0.026390787,0.10827684,12.650337,-82.56394,-13.691937
5.067129,-0.034760613,0.20076072,12.885226,-78.452,-13.243524
4.9741726,-0.08751245,0.26344717,12.661204,-74.38085,-12.742389
4.8741107,-0.14908408,0.3012128,12.090588,-70.4466,-11.916832
4.7686725,-0.20644891,0.31454593,11.136679,-66.67912,-10.811668
4.670173,-0.26559678,0.32535955,10.105988,-63.191444,-9.462537
4.585586,-0.32105845,0.34618863,9.287457,-59.89434,-7.926906
4.5139956,-0.36400634,0.37877822,8.489073,-56.64989,-6.1706004
4.4533277,-0.396623,0.42903948,7.7540503,-53.40291,-4.1281047
4.314102,-0.38422328,0.41562632,7.5116334,-51.73336,-3.9990466
4.179266,-0.37221444,0.402636,7.276859,-50.116444,-3.874057
4.0486765,-0.36058387,0.39005485,7.049479,-48.550457,-3.7530046
3.9221976,-0.3493194,0.3778697,6.829256,-47.03376,-3.6357625
3.799697,-0.33840922,0.36606783,6.6159606,-45.564774,-3.5222077
3.681047,-0.327842,0.35463694,6.4093695,-44.14196,-3.4122229
3.5661244,-0.31760675,0.34356514,6.2092686,-42.763844,-3.3056931
3.4548104,-0.3076929,0.332841,6.0154505,-41.429,-3.2025082
3.3469894,-0.2980901,0.32245338,5.8277144,-40.136044,-3.1025612
3.2425501,-0.28878853,0.31239158,5.6458673,-38.883644,-3.0057492
3.1413853,-0.27977857,0.3026452,5.469721,-37.670506,-2.9119723
3.0433908,-0.27105096,0.29320428,5.2990947,-36.495384,-2.821134
2.9484656,-0.26259673,0.28405908,5.133813,-35.357075,-2.7331414
2.856513,-0.25440723,0.27520022,4.9737062,-34.254406,-2.647904
2.7674384,-0.24647404,0.26661867,4.8186116,-33.186253,-2.5653346
2.681151,-0.2387891,0.25830564,4.66837,-32.15152,-2.4853485
2.5975628,-0.23134455,0.25025263,4.522827,-31.149157,-2.4078646
2.5165882,-0.22413279,0.24245144,4.381836,-30.178137,-2.3328037
2.4381452,-0.21714649,0.23489414,4.2452526,-29.237473,-2.2600894
2.3621538,-0.21037853,0.22757302,4.112938,-28.326208,-2.1896474
2.2885368,-0.20382203,0.22048067,3.9847572,-27.443415,-2.1214068
2.2172196,-0.19747037,0.21360986,3.860581,-26.588202,-2.0552976
2.1481297,-0.19131707,0.20695364,3.7402828,-25.759695,-1.9912534
2.081197,-0.1853559,0.20050527,3.623741,-24.957062,-1.9292088
2.016354,-0.17958085,0.19425821,3.5108376,-24.179483,-1.8691012
1.953535,-0.17398605,0.18820614,3.4014583,-23.426178,-1.8108698
1.8926765,-0.16856585,0.18234295,3.2954924,-22.69638,-1.7544557
1.8337169,-0.16331479,0.1766627,3.1928332,-21.989357,-1.6998019
1.7765967,-0.15822755,0.17115968,3.0933766,-21.30439,-1.6468532
1.7212584,-0.15329899,0.16582832,2.9970226,-20.64079,-1.5955563
1.667646,-0.14852417,0.16066323,2.903674,-19.997889,-1.5458592
1.6157057,-0.14389825,0.15565923,2.8132365,-19.375036,-1.497712
1.565385,-0.13941658,0.15081127,2.7256188,-18.771606,-1.4510661
1.5166333,-0.13507463,0.14611445,2.6407332,-18.18699,-1.4058747
1.4694014,-0.13086806,0.14156407,2.5584939,-17.6206,-1.3620921
1.4236418,-0.12679262,0.13715553,2.4788182,-17.071865,-1.3196744
1.3793086,-0.122844204,0.13288441,2.401626,-16.540236,-1.2785788
1.3363571,-0.11901885,0.12874642,2.32684,-16.025175,-1.238764
1.2947443,-0.115312725,0.124737374,2.2543843,-15.526167,-1.2001901
1.2544281,-0.11172208,0.12085327,2.1841867,-15.042708,-1.1628182
1.2153683,-0.108243324,0.11709019,2.1161764,-14.574315,-1.1266109
1.1775254,-0.104872964,0.11344436,2.050285,-14.120516,-1.0915316
1.1408616,-0.101607606,0.10991212,1.9864469,-13.680855,-1.0575454
1.1053401,-0.098443985,0.106489934,1.9245974,-13.254892,-1.024618
1.0709252,-0.09537891,0.10317435,1.8646748,-12.842198,-0.9927164
1.0375823,-0.09240933,0.099962056,1.8066188,-12.442362,-0.9618085
1.0052781,-0.08953224,0.09684982,1.7503712,-12.054979,-0.93186337
0.97398007,-0.08674477,0.09383453,1.6958758,-11.679663,-0.90285105
0.94365686,-0.08404412,0.090913154,1.6430775,-11.316037,-0.8747423
0.91427815,-0.08142759,0.08808276,1.5919238,-10.963737,-0.8475091
0.88581437,-0.078892544,0.08534053,1.5423633,-10.622408,-0.821124
0.8582371,-0.076436445,0.0826837,1.4943461,-10.29171,-0.79556066
0.8315186,-0.07405684,0.0801096,1.4478245,-9.97131,-0.77079344
0.8056322,-0.07175134,0.07761567,1.4027516,-9.660888,-0.74679744
0.78055185,-0.069517635,0.0751994,1.3590822,-9.360133,-0.72354877
0.7562526,-0.06735349,0.07285837,1.3167727,-9.068744,-0.701024
0.7327099,-0.06525673,0.07059024,1.2757807,-8.7864275,-0.67920065
0.7099003,-0.06322526,0.06839274,1.236065,-8.512902,-0.65805686
0.687801,-0.061257042,0.06626365,1.197586,-8.247893,-0.6375714
0.66638976,-0.05935011,0.06420087,1.1603053,-7.9911366,-0.6177238
0.6456452,-0.057502557,0.06220231,1.1241852,-7.7423744,-0.5984942
0.6255465,-0.055712525,0.060265977,1.0891898,-7.501357,-0.5798633
0.6060736,-0.053978223,0.058389932,1.0552839,-7.267844,-0.5618125
0.58720696,-0.05229792,0.056572296,1.0224338,-7.0416017,-0.5443237
0.56892776,-0.050669935,0.05481125,0.99060625,-6.822403,-0.5273794
0.5512176,-0.04909263,0.053105034,0.9597697,-6.6100287,-0.5109626
0.53405887,-0.047564436,0.051451936,0.9298932,-6.404266,-0.49505693
0.5174343,-0.046083815,0.049850304,0.90094686,-6.20491,-0.47964647
0.5013273,-0.04464929,0.048298534,0.8729016,-6.0117598,-0.46471575
0.48572177,-0.04325943,0.046795078,0.84572953,-5.8246226,-0.45024985
0.47060204,-0.041912835,0.045338422,0.8194034,-5.643312,-0.43623433
0.455953,-0.04060816,0.04392712,0.7938968,-5.467645,-0.4226551
0.44176003,-0.039344102,0.042559747,0.76918423,-5.2974477,-0.40949863
0.42800888,-0.038119398,0.041234944,0.745241,-5.1325483,-0.39675173
0.41468585,-0.03693282,0.03995138,0.72204316,-4.972782,-0.38440165
0.40177754,-0.035783175,0.038707778,0.69956744,-4.81799,-0.37243602
0.38927105,-0.03466932,0.03750289,0.6777914,-4.6680164,-0.36084288
0.37715393,-0.03359014,0.03633551,0.6566933,-4.5227113,-0.34961066
0.365414,-0.03254456,0.035204466,0.6362519,-4.38193,-0.33872807
0.3540395,-0.031531524,0.034108635,0.6164469,-4.2455306,-0.32818428
0.3430191,-0.030550024,0.033046916,0.5972584,-4.1133776,-0.31796867
0.33234176,-0.029599076,0.032018244,0.5786672,-3.9853382,-0.3080711
0.3219968,-0.028677732,0.031021597,0.56065476,-3.8612845,-0.2984816
0.31197387,-0.027785067,0.030055974,0.543203,-3.7410927,-0.28919065
