ax,ay,az,gx,gy,gz
-5.4118676,-3.3236666,-9.357358,-41.78129,-23.415667,-54.26595
-5.560112,-4.0156555,-9.965159,-38.71175,-43.87008,-45.276947
-5.3219023,-5.0033617,-10.756218,-30.481766,-56.557545,-39.71819
-4.8379416,-5.7288833,-11.433547,-15.339492,-61.41905,-34.3429
-4.476288,-6.1969204,-11.960054,3.2101095,-61.74065,-32.6368
-4.3152184,-6.539829,-12.3976,23.567171,-62.11885,-33.22548
-4.1596146,-6.6390486,-12.669553,44.795685,-65.73615,-34.642265
-3.7493646,-6.5353684,-12.7545595,64.58492,-70.29968,-34.890923
-3.2745519,-6.2729263,-12.656462,82.52767,-73.457634,-34.59829
-2.7932591,-5.8854184,-12.420584,98.49387,-75.69271,-33.610523
-2.2886157,-5.39671,-12.064964,112.58582,-77.89506,-31.443316
-1.7570837,-4.8352747,-11.614645,124.755745,-80.628174,-27.398743
-1.2157133,-4.156083,-11.0510235,134.87935,-82.971825,-22.995543
-0.71957725,-3.4158568,-10.42221,143.29268,-84.46827,-19.422628
-0.24008282,-2.6111457,-9.700965,149.45992,-84.598045,-16.798243
0.21483399,-1.8036015,-8.917516,153.38078,-83.12788,-14.343378
0.55500615,-1.0524101,-8.126274,154.75461,-80.41537,-10.4898
0.6940473,-0.29942575,-7.3218546,154.4973,-77.717926,-6.2286024
0.7524172,0.511195,-6.4799604,152.11754,-75.16074,-2.7152877
0.7793387,1.2960414,-5.667045,147.84679,-72.3672,0.13970318
0.7292396,2.0533247,-4.925394,142.05048,-69.83639,2.1295216
0.623622,2.7506135,-4.290601,134.02321,-67.65343,3.409471
0.44635397,3.328059,-3.8219078,125.128555,-65.80317,4.1181936
0.2214509,3.8074617,-3.4746895,115.584915,-64.47305,3.7389877
-0.016243868,4.1929955,-3.228644,105.65732,-63.58135,2.5177848
-0.25376752,4.492603,-3.0701344,95.370155,-63.123016,0.6805566
-0.4799943,4.6981697,-2.99007,84.88414,-63.25985,-2.0296063
-0.67910296,4.7839217,-2.991167,74.93448,-63.948837,-5.3806286
-0.82379323,4.789136,-3.031554,65.56229,-65.16385,-9.141458
-0.8914131,4.7166653,-3.0910385,56.90155,-66.90094,-12.995654
-0.86025196,4.5629473,-3.1475267,49.04201,-68.634735,-16.736967
-0.75046253,4.326871,-3.1697624,42.414856,-69.105316,-21.492262
-0.52892965,3.970252,-3.090611,37.170635,-67.983604,-27.754967
-0.22035752,3.538529,-2.8975453,33.40671,-65.461075,-34.87453
0.1591148,3.0998652,-2.6118138,30.895758,-62.58941,-40.92503
0.6232254,2.7539773,-2.2787614,28.744135,-60.19166,-44.424107
1.1713762,2.4903562,-1.9480518,26.103336,-57.628834,-44.79843
1.7522649,2.2674594,-1.6367078,23.264248,-54.33237,-44.184887
2.3279912,2.0494535,-1.3528785,20.297941,-49.951847,-43.115974
2.879403,1.8399518,-1.1214217,17.32171,-44.11479,-41.530483
3.347926,1.6565719,-0.95989305,14.438339,-37.15437,-39.067795
3.69351,1.5061799,-0.8631527,11.396031,-29.279696,-35.168297
3.8655665,1.3922039,-0.8289031,8.2539215,-21.06316,-30.449413
3.9152071,1.3287452,-0.8216055,5.080291,-12.734008,-25.543564
3.8689637,1.3140538,-0.85315514,2.0804555,-4.854038,-21.02636
3.7573135,1.3277434,-0.92011285,-0.88483894,2.2141283,-16.802462
3.6051564,1.369275,-1.0072618,-4.163895,8.518844,-12.476802
3.3818722,1.4337455,-1.1320626,-7.6509943,14.199051,-8.209642
3.0859714,1.4825773,-1.302771,-11.17124,19.015154,-4.340079
2.7404175,1.500934,-1.5170554,-14.34144,22.622997,-1.0495745
2.3702464,1.4951688,-1.7483215,-17.077316,24.966335,1.3943243
1.9906878,1.476637,-1.9854583,-19.400686,26.074432,2.8264952
1.6324399,1.4215608,-2.259315,-21.25035,26.265675,3.8290613
1.2988005,1.3403811,-2.5579035,-22.498589,25.635624,4.6335506
0.9828024,1.2173655,-2.881829,-22.867346,24.307184,5.381853
0.6684707,1.0600028,-3.225115,-22.191235,22.282377,5.9958487
0.3516245,0.8857212,-3.5813692,-20.028492,19.29577,5.987337
0.049044993,0.7011208,-3.951723,-16.751715,15.728945,5.4490643
-0.23129359,0.5149987,-4.3302083,-12.306187,11.6259165,4.3976917
-0.48483074,0.33956158,-4.7122483,-6.752224,6.9271293,3.0079181
-0.7031497,0.1811922,-5.0991693,-0.3472954,1.3234441,1.5719763
-0.85787547,0.037178908,-5.4897485,7.1879287,-5.5928297,0.6944897
-0.93221134,-0.078461364,-5.8624177,15.6308975,-13.00637,-0.18600294
-0.93333304,-0.1398066,-6.187487,24.610725,-20.642065,-1.1167871
-0.8568119,-0.13807541,-6.445059,33.58665,-28.528141,-1.8859845
-0.6844242,-0.09629906,-6.638514,42.62659,-36.45468,-2.4055102
-0.37662154,0.02135877,-6.722207,52.18505,-43.04604,-3.9382539
0.13937761,0.32362816,-6.573283,61.285946,-47.179085,-6.178784
0.6931876,0.7178083,-6.2815924,69.305115,-49.344772,-7.6656246
1.2040733,1.1514442,-5.913152,75.99721,-50.832718,-7.1526084
1.6438419,1.6457425,-5.4574885,81.308105,-52.251667,-5.374083
2.035378,2.1907594,-4.908299,84.21489,-52.825905,-3.3207834
2.3708177,2.7230628,-4.3210588,85.04679,-52.42374,-1.0174985
2.6427195,3.1894357,-3.782149,84.11491,-51.01083,1.6899974
2.8656535,3.613192,-3.2850373,81.87948,-48.59629,4.0031037
3.0531287,3.9784312,-2.8374825,78.25508,-44.779373,5.809802
3.1794498,4.265937,-2.4577966,72.91399,-39.24815,7.3742666
3.2120292,4.4555306,-2.184769,66.81366,-33.30507,8.990006
3.1106744,4.3149376,-2.1158292,64.70537,-32.254135,8.706329
3.0126,4.178895,-2.0491207,62.665318,-31.237215,8.431833
2.9176924,4.047245,-1.984566,60.691135,-30.253132,8.166201
2.8258424,3.919836,-1.9220911,58.780556,-29.300753,7.909126
2.7369454,3.7965236,-1.8616248,56.931404,-28.378992,7.660316
2.650901,3.6771681,-1.8030989,55.14159,-27.48681,7.41949
2.5676124,3.5616353,-1.7464473,53.409096,-26.623203,7.186377
2.4869869,3.4497964,-1.6916072,51.732,-25.787209,6.960718
2.408935,3.3415277,-1.6385176,50.108437,-24.9779,6.742262
2.333371,3.2367098,-1.5871202,48.53662,-24.194387,6.530769
2.2602117,3.135228,-1.5373585,47.014835,-23.43581,6.3260074
2.189378,3.0369716,-1.4891785,45.541412,-22.701344,6.1277533
2.1207926,2.9418342,-1.442528,44.114765,-21.990192,5.935793
2.0543818,2.8497133,-1.3973565,42.733353,-21.30159,5.749919
1.9900744,2.7605097,-1.3536156,41.395687,-20.634794,5.5699315
1.9278014,2.6741285,-1.3112586,40.10034,-19.989094,5.3956385
1.8674966,2.5904772,-1.2702402,38.845936,-19.363802,5.226854
1.809096,2.5094676,-1.230517,37.63114,-18.758255,5.063399
1.7525378,2.4310136,-1.1920471,36.45467,-18.171812,4.905101
1.6977626,2.3550327,-1.1547899,35.315285,-17.603855,4.751793
1.6447127,2.281445,-1.1187062,34.21179,-17.053787,4.6033134
1.5933325,2.2101736,-1.0837584,33.14303,-16.521034,4.459508
1.5435685,2.141144,-1.0499097,32.107883,-16.00504,4.3202257
1.4953688,2.0742843,-1.017125,31.105278,-15.505263,4.185322
1.4486833,2.009525,-0.98537034,30.134169,-15.021189,4.054656
1.4034636,1.9467992,-0.9546127,29.193552,-14.552312,3.9280925
1.359663,1.8860415,-0.92482024,28.282452,-14.098149,3.805501
1.3172362,1.8271897,-0.89596224,27.39993,-13.658233,3.6867545
1.2761396,1.770183,-0.868009,26.545074,-13.232107,3.5717309
1.2363307,1.7149626,-0.84093165,25.717007,-12.819335,3.4603117
1.1977689,1.661472,-0.8147025,24.91488,-12.419493,3.3523827
1.1604146,1.6096562,-0.7892947,24.137869,-12.03217,3.247833
1.1242293,1.5594623,-0.7646822,23.385178,-11.656972,3.146556
1.0891764,1.5108391,-0.7408397,22.65604,-11.293513,3.0484478
1.05522,1.4637368,-0.7177431,21.949709,-10.941423,2.9534087
1.0223254,1.4181074,-0.69536877,21.265465,-10.600344,2.8613412
0.9904591,1.3739043,-0.67369384,20.602613,-10.269927,2.7721522
0.9595887,1.3310829,-0.6526963,19.960476,-9.949837,2.6857505
0.92968297,1.2895994,-0.6323549,19.338404,-9.639749,2.6020486
0.9007114,1.249412,-0.61264896,18.735765,-9.339347,2.5209615
0.87264466,1.2104795,-0.59355843,18.151947,-9.0483265,2.4424067
0.84545434,1.1727626,-0.575064,17.586359,-8.766394,2.3663049
0.81911284,1.1362233,-0.55714697,17.038427,-8.493263,2.292579
0.7935936,1.1008246,-0.5397892,16.507599,-8.228658,2.2211542
0.7688707,1.0665306,-0.5229731,15.993338,-7.9723096,2.1519585
0.7449193,1.0333066,-0.50668174,15.495122,-7.723961,2.0849218
0.72171515,1.0011193,-0.49089867,15.01245,-7.4833603,2.0199766
0.6992348,0.96993583,-0.4756079,14.544835,-7.2502646,1.9570575
0.6774556,0.9397251,-0.46079406,14.0918045,-7.02444,1.8961006
0.6563557,0.9104565,-0.44644222,13.652903,-6.805657,1.8370448
0.6359136,0.8821006,-0.4325379,13.227687,-6.5936966,1.7798306
0.61610895,0.85462874,-0.4190671,12.815728,-6.3883452,1.7244003
0.59692174,0.8280134,-0.40601626,12.416614,-6.1893954,1.6706979
0.57833266,0.80222774,-0.39337227,12.02994,-5.996648,1.6186697
0.56032294,0.7772458,-0.38112238,11.655319,-5.809908,1.5682632
0.5428746,0.75304246,-0.3692543,11.292375,-5.6289883,1.5194277
0.52597,0.72959346,-0.35775605,10.940741,-5.4537067,1.4721142
0.5095922,0.70687515,-0.34661615,10.600064,-5.283888,1.426275
0.4937247,0.68486476,-0.33582336,10.270004,-5.1193604,1.3818643
0.47835162,0.6635402,-0.32536685,9.950228,-4.959959,1.3388373
0.46345755,0.64288,-0.31523612,9.640415,-4.8055243,1.2971509
0.44902745,0.6228635,-0.30542102,9.340254,-4.655901,1.2567632
0.4350469,0.60347056,-0.2959117,9.049443,-4.5109386,1.2176336
0.4215019,0.5846817,-0.28669858,8.767693,-4.3704925,1.179723
0.40837878,0.56647813,-0.2777725,8.494718,-4.234421,1.1429933
0.39566445,0.5488416,-0.2691244,8.230246,-4.1025877,1.1074078
0.3833461,0.5317543,-0.26074567,7.974011,-3.9748607,1.0729306
0.37141144,0.5151993,-0.2526279,7.725757,-3.8511117,1.0395272
0.3598485,0.49915987,-0.24476297,7.485235,-3.7312171,1.007164
0.34864563,0.48361996,-0.23714298,7.2522035,-3.6150563,0.97580886
0.33779165,0.46856397,-0.22976029,7.0264297,-3.502513,0.94543016
0.3272757,0.45397687,-0.22260751,6.8076863,-3.3934746,0.9159975
0.3170872,0.43984404,-0.21567746,6.5957546,-3.2878315,0.8874814
0.307216,0.42615128,-0.20896322,6.390423,-3.1854782,0.85985327
0.29765216,0.4128849,-0.20245805,6.1914845,-3.0863123,0.8330855
0.2883861,0.40003163,-0.19615544,5.998741,-2.990234,0.8071512
0.2794086,0.38757855,-0.1900491,5.811999,-2.8971474,0.7820244
0.27071062,0.37551323,-0.18413286,5.6310716,-2.8069592,0.75768
0.26228344,0.3638236,-0.17840084,5.455777,-2.7195792,0.73409355
0.25411865,0.3524979,-0.1728473,5.285941,-2.6349196,0.7112415
0.24620809,0.34152484,-0.16746666,5.1213927,-2.5528963,0.689101
0.23854381,0.33089343,-0.16225354,4.9619675,-2.4734263,0.66764975
0.23111816,0.320593,-0.15720274,4.807506,-2.396431,0.64686644
0.2239237,0.31061327,-0.15230918,4.657853,-2.3218324,0.62673014
0.2169532,0.30094424,-0.14756797,4.51286,-2.2495565,0.60722077
0.21019974,0.29157624,-0.14297438,4.3723803,-2.1795309,0.58831877
0.20365652,0.2824999,-0.13852379,4.2362742,-2.111685,0.57000524
0.197317,0.2737061,-0.13421175,4.104406,-2.0459516,0.5522619
0.19117485,0.2651861,-0.13003397,3.9766424,-1.9822645,0.53507084
0.1852239,0.2569313,-0.12598623,3.8528564,-1.92056,0.51841503
0.17945823,0.24893351,-0.12206451,3.732924,-1.8607765,0.50227773
0.17387204,0.24118468,-0.11826488,3.6167252,-1.8028542,0.48664278
0.16845976,0.23367709,-0.11458353,3.504144,-1.7467349,0.4714946
0.16321595,0.2264032,-0.11101679,3.3950672,-1.6923627,0.45681792
0.1581354,0.21935576,-0.107561074,3.289386,-1.6396831,0.44259816
0.153213,0.2125277,-0.10421293,3.1869948,-1.5886434,0.4288211
0.14844382,0.2059122,-0.100969024,3.087791,-1.5391926,0.41547287
0.14382312,0.19950265,-0.09782609,2.9916754,-1.4912812,0.40254018
0.13934624,0.1932926,-0.094781004,2.8985517,-1.4448612,0.39001006
0.13500874,0.18727589,-0.09183071,2.8083267,-1.3998861,0.37787
0.13080625,0.18144646,-0.08897225,2.7209105,-1.3563112,0.36610785
0.1267346,0.17579849,-0.08620277,2.6362157,-1.3140928,0.35471186
