ax,ay,az,gx,gy,gz
0.32182112,2.4227493,0.23454757,34.679405,-22.139294,-7.8237076
0.53107536,3.2266686,0.44440863,24.757263,-15.516739,-28.029858
0.60990345,4.273187,0.6999008,12.59483,-12.178843,-42.9369
0.8013666,5.01246,0.9853708,-2.2478156,-11.483382,-52.103992
1.1171842,5.355685,1.2678425,-17.580252,-9.00078,-54.25149
1.3948457,5.434676,1.4270699,-30.135101,-5.6628847,-55.141747
1.6185213,5.370638,1.5068444,-37.507236,-1.1261728,-58.300194
1.824045,5.271156,1.5646702,-42.05153,3.8397794,-62.064735
1.9751394,5.1778255,1.6002337,-45.29741,9.076011,-66.08667
2.046944,5.069555,1.5926714,-47.808376,14.269676,-70.26645
2.0622463,4.9417157,1.5436393,-49.634205,19.03029,-74.66583
2.0791972,4.796314,1.4831908,-51.305298,23.658758,-79.575455
2.1177416,4.558355,1.405334,-53.039436,28.098553,-83.90689
2.138406,4.276504,1.3041105,-54.42322,32.20703,-87.84418
2.142831,3.9654105,1.1919804,-55.58105,35.901974,-91.144
2.1361525,3.6447375,1.0731696,-56.595165,38.983868,-93.727425
2.1186578,3.313494,0.9522901,-57.33925,41.34447,-95.61488
2.0870728,2.9490561,0.82220924,-58.396545,43.179523,-96.775444
2.05704,2.544568,0.68413556,-59.765743,44.564056,-97.1421
2.0461037,2.0772147,0.5402552,-61.259827,45.186684,-96.7826
2.0868292,1.5153513,0.42712957,-61.969296,44.83463,-95.671814
2.1983073,0.8876698,0.38830578,-61.20498,44.953175,-92.77212
2.2905273,0.25726005,0.3695017,-59.18806,45.84081,-88.57449
2.302053,-0.30896384,0.30460447,-56.07416,47.08412,-83.35599
2.250545,-0.8115102,0.19289398,-52.618984,48.141376,-77.35587
2.15222,-1.2634352,0.049279556,-48.841362,48.68856,-70.38887
2.0335636,-1.6458762,-0.10076343,-43.995617,48.76355,-62.676624
1.920498,-1.916889,-0.22710316,-38.533463,48.672398,-54.885807
1.8295687,-2.078125,-0.31809273,-32.94457,48.63177,-46.910553
1.763875,-2.1297777,-0.37455806,-27.795881,48.624607,-38.861805
1.7145964,-2.1014175,-0.40841234,-23.184212,48.630505,-31.013813
1.6750224,-2.0104606,-0.4239388,-19.007385,48.814888,-23.85368
1.63344,-1.8600844,-0.4393492,-14.863591,48.822735,-17.486084
1.5907478,-1.6746053,-0.4435517,-11.052741,48.66182,-11.965305
1.5646603,-1.4731826,-0.42838457,-7.928461,48.48575,-7.1937714
1.5454038,-1.2937356,-0.40465647,-5.4852796,48.538624,-2.9549143
1.5150173,-1.1334922,-0.39226374,-3.5233476,48.930477,0.5110853
1.4773462,-0.96773124,-0.40283003,-1.9135945,49.44671,3.5576072
1.4365367,-0.7959811,-0.43110576,-0.76025236,49.92006,6.2274413
1.3866414,-0.6269018,-0.48829073,0.182568,50.092133,8.343119
1.3328165,-0.4664781,-0.5610536,0.9626706,49.966824,9.868567
1.2802002,-0.31756026,-0.64563555,1.5521154,49.407097,10.865439
1.2268533,-0.1762608,-0.7496257,1.9592012,48.546577,11.533879
1.1746229,-0.040072475,-0.8639504,2.1850307,47.445698,11.878369
1.1166046,0.08778846,-0.9918105,2.3264685,46.0414,11.898412
1.0511843,0.20563273,-1.1287664,2.3855965,44.34177,11.629155
0.9802131,0.31513005,-1.274639,2.292728,42.16451,11.057117
0.9012865,0.42412412,-1.437566,2.0738485,39.57329,10.278038
0.8227573,0.528926,-1.6078142,1.6847686,36.49064,9.376172
0.7457006,0.62942153,-1.7757157,1.1868885,32.941963,8.329872
0.6766372,0.7276212,-1.9345133,0.6095822,29.053951,7.11846
0.61684227,0.8271781,-2.0920014,-0.11553958,24.67639,5.6771007
0.56105757,0.9204116,-2.2551954,-1.096523,19.863707,4.000993
0.5045091,0.9841957,-2.4219682,-2.0711026,14.789359,2.1889412
0.44830772,1.027984,-2.588071,-2.8031871,9.420448,0.1611997
0.39876246,1.063527,-2.7434723,-3.1558337,3.8302293,-2.2330248
0.37226635,1.0904082,-2.8815668,-3.521699,-2.154278,-4.6603713
0.3470553,1.0868226,-3.0149994,-3.8583517,-8.4946375,-6.8819985
0.31961107,1.0691543,-3.1503818,-4.210844,-15.393503,-8.840569
0.3115457,1.0460225,-3.2617683,-4.423582,-22.609829,-10.657983
0.34215876,1.0379987,-3.3417149,-4.184721,-29.936506,-12.675003
0.41556644,1.0482364,-3.3790135,-4.1875486,-37.323097,-14.568024
0.53250766,1.0588937,-3.372194,-4.4210944,-44.571224,-16.45046
0.67455786,1.0540606,-3.3288841,-4.7902193,-51.68312,-18.34068
0.8440662,1.0378428,-3.243787,-5.364652,-58.53119,-20.195473
1.0465119,0.9934409,-3.1244123,-6.199724,-65.02987,-21.965374
1.2776577,0.8996543,-2.973517,-6.80105,-70.66635,-23.544144
1.5218223,0.76370454,-2.781044,-7.1106553,-75.44272,-24.809887
1.7426414,0.6237654,-2.571024,-6.844566,-79.27493,-25.884958
1.9240255,0.50547254,-2.3602507,-6.3752365,-82.457306,-26.62821
2.0591526,0.4208274,-2.152552,-6.148944,-85.20718,-26.851147
2.1557112,0.38401356,-1.9523492,-7.2905354,-87.98998,-26.16817
2.2439017,0.39141187,-1.7397754,-9.640616,-90.738976,-24.912764
2.3777757,0.3666925,-1.4913875,-11.535813,-92.359856,-24.420738
2.5234745,0.28322807,-1.2356939,-12.094605,-92.564384,-24.795635
2.6510832,0.18401413,-0.99276584,-11.930128,-91.71537,-25.279942
2.7542334,0.095908575,-0.7698708,-11.799942,-90.07594,-25.0982
2.8266773,0.02396567,-0.57371366,-11.743411,-88.14867,-24.600449
2.8910592,-0.038385402,-0.3861929,-11.696413,-85.79472,-23.937817
2.9575505,-0.09947517,-0.20051645,-11.789472,-82.83381,-23.07341
3.018146,-0.16341245,-0.03154648,-11.898774,-79.12055,-22.044615
3.0609546,-0.22802864,0.10352144,-11.977639,-74.5912,-20.810724
3.0781639,-0.29566365,0.1953955,-12.151899,-69.69288,-19.436024
3.0779703,-0.36383212,0.26174897,-12.53548,-64.68501,-17.82529
2.9812636,-0.35240087,0.25352508,-12.141627,-62.65267,-17.26524
2.887649,-0.34133515,0.24556415,-11.760368,-60.685318,-16.723093
2.7970228,-0.33062264,0.23785734,-11.39128,-58.780766,-16.198254
2.709285,-0.32025158,0.23039617,-11.033956,-56.936913,-15.690144
2.6243396,-0.31021062,0.22317247,-10.688004,-55.15175,-15.198204
2.5420942,-0.30048877,0.21617836,-10.353047,-53.42332,-14.7219
2.4624596,-0.29107556,0.20940627,-10.028724,-51.74976,-14.260716
2.3853498,-0.2819608,0.2028489,-9.714683,-50.129265,-13.814155
2.3106823,-0.27313468,0.1964992,-9.410588,-48.560085,-13.381736
2.2383769,-0.2645878,0.19035038,-9.116114,-47.040554,-12.9629965
2.1683567,-0.25631106,0.18439591,-8.830947,-45.56905,-12.557493
2.1005476,-0.24829565,0.17862946,-8.554784,-44.144005,-12.164793
2.0348775,-0.24053314,0.17304493,-8.287334,-42.763924,-11.784483
1.971278,-0.23301531,0.16763644,-8.028315,-41.427345,-11.416161
1.9096814,-0.2257343,0.16239831,-7.7774544,-40.132866,-11.059441
1.8500239,-0.21868245,0.15732506,-7.53449,-38.87913,-10.713948
1.7922426,-0.21185242,0.15241137,-7.299168,-37.664833,-10.379323
1.7362778,-0.20523708,0.14765215,-7.071243,-36.488705,-10.055217
1.6820711,-0.19882958,0.14304245,-6.8504786,-35.349525,-9.741292
1.6295664,-0.19262324,0.13857748,-6.6366453,-34.246117,-9.437224
1.5787094,-0.18661167,0.13425262,-6.4295225,-33.17733,-9.142698
1.5294474,-0.18078867,0.13006341,-6.2288966,-32.142067,-8.85741
1.48173,-0.1751482,0.12600555,-6.03456,-31.139261,-8.581067
1.4355079,-0.1696845,0.122074835,-5.8463135,-30.167881,-8.313383
1.3907336,-0.16439195,0.11826725,-5.663964,-29.226929,-8.054084
1.3473612,-0.15926512,0.114578895,-5.4873238,-28.31544,-7.802904
1.3053465,-0.15429877,0.111005984,-5.316213,-27.43248,-7.5595865
1.2646464,-0.1494878,0.10754487,-5.150456,-26.577148,-7.323882
1.2252195,-0.14482732,0.104192026,-4.989884,-25.748571,-7.095551
1.1870254,-0.1403126,0.10094402,-4.834333,-24.945906,-6.8743596
1.1500254,-0.13593899,0.09779756,-4.6836452,-24.168331,-6.6600833
1.1141818,-0.13170208,0.09474943,-4.537667,-23.41506,-6.4525037
1.079458,-0.12759757,0.09179655,-4.3962493,-22.685326,-6.25141
1.045819,-0.12362126,0.088935904,-4.2592497,-21.978386,-6.0565987
1.0132307,-0.11976915,0.08616461,-4.1265287,-21.293526,-5.8678713
0.9816599,-0.11603732,0.083479844,-3.9979522,-20.63005,-5.6850367
0.9510747,-0.11242199,0.0808789,-3.8733897,-19.98729,-5.5079103
0.92144424,-0.10891951,0.078359134,-3.752715,-19.36459,-5.336313
0.89273846,-0.105526336,0.07591801,-3.6358066,-18.761324,-5.17007
0.86492836,-0.102239035,0.073553056,-3.522546,-18.176882,-5.009015
0.83798593,-0.0990543,0.07126188,-3.4128191,-17.610674,-4.852985
0.8118839,-0.09596891,0.06904218,-3.3065147,-17.062128,-4.701822
0.78659606,-0.09297975,0.066891715,-3.2035263,-16.530691,-4.555373
0.76209676,-0.09008381,0.06480831,-3.1037495,-16.015827,-4.413492
0.7383615,-0.08727817,0.06278987,-3.0070841,-15.517018,-4.276035
0.71536624,-0.084560014,0.06083437,-2.9134326,-15.033762,-4.1428638
0.6930879,-0.0819266,0.05893983,-2.8227007,-14.565572,-4.0138445
0.671504,-0.07937527,0.057104345,-2.7347972,-14.111977,-3.8888466
0.65059286,-0.07690347,0.055326078,-2.649634,-13.67252,-3.7677453
0.63033354,-0.074508704,0.053603232,-2.5671246,-13.246759,-3.6504183
0.61070555,-0.07218858,0.05193408,-2.4871867,-12.834268,-3.5367477
0.5916892,-0.069940746,0.05031694,-2.40974,-12.43463,-3.4266193
0.57326543,-0.06776296,0.048750192,-2.3347065,-12.047446,-3.3199227
0.5554157,-0.06565303,0.047232263,-2.262011,-11.672326,-3.2165506
0.5381221,-0.06360884,0.045761622,-2.1915803,-11.308893,-3.116399
0.5213673,-0.061628334,0.044336803,-2.123344,-10.956782,-3.019368
0.50513446,-0.059709527,0.04295637,-2.0572333,-10.615642,-2.9253592
0.48940727,-0.05785049,0.04161894,-1.9931821,-10.285128,-2.8342793
0.47417,-0.056049366,0.040323168,-1.931126,-9.964909,-2.7460365
0.45940733,-0.05430434,0.03906776,-1.8710029,-9.654664,-2.6605422
0.44510448,-0.05261367,0.037851453,-1.8127525,-9.354083,-2.5777109
0.43124712,-0.050975654,0.036673028,-1.7563163,-9.062863,-2.4974592
0.41782132,-0.049388655,0.035531305,-1.7016377,-8.780714,-2.419707
0.40481362,-0.04785108,0.03442514,-1.6486622,-8.507351,-2.3443763
0.39221105,-0.04636139,0.03335342,-1.5973363,-8.242502,-2.2713919
0.38000092,-0.04491809,0.03231508,-1.5476089,-7.9859004,-2.20068
0.36817104,-0.043519735,0.031309072,-1.49943,-7.73729,-2.1321702
0.35670954,-0.042164925,0.030334393,-1.4527513,-7.496421,-2.0657938
0.34560493,-0.040852305,0.029390061,-1.4075261,-7.2630525,-2.0014842
0.3348461,-0.039580554,0.028475136,-1.3637092,-7.03695,-1.939177
0.32442227,-0.038348403,0.027588699,-1.3212568,-6.8178887,-1.87881
0.314323,-0.037154615,0.026729863,-1.280126,-6.6056476,-1.8203228
0.3045382,-0.035998,0.02589777,-1.240276,-6.4000154,-1.7636565
0.29505804,-0.034877397,0.025091581,-1.2016666,-6.200785,-1.7087545
0.28587306,-0.033791684,0.024310494,-1.1642594,-6.0077586,-1.6555619
0.27697405,-0.032739773,0.023553727,-1.128017,-5.820741,-1.6040256
0.2683521,-0.031720612,0.022820521,-1.0929028,-5.639547,-1.5540937
0.25999856,-0.030733185,0.022110142,-1.0588818,-5.4639935,-1.5057163
0.2519051,-0.029776497,0.021421878,-1.02592,-5.2939057,-1.4588451
0.24406363,-0.028849592,0.020755043,-0.9939845,-5.1291137,-1.4134332
0.23646627,-0.027951546,0.020108968,-0.9630432,-4.9694514,-1.3694351
0.22910544,-0.027081458,0.019483007,-0.9330651,-4.81476,-1.3268067
0.22197378,-0.026238456,0.018876534,-0.90402037,-4.6648846,-1.2855053
0.21506411,-0.0254217,0.01828894,-0.87587976,-4.519675,-1.2454898
0.20836957,-0.024630368,0.017719638,-0.8486152,-4.378986,-1.20672
0.20188342,-0.023863671,0.01716806,-0.82219946,-4.2426763,-1.1691571
0.1955992,-0.023120843,0.016633652,-0.79660606,-4.1106105,-1.1327636
0.1895106,-0.022401141,0.016115882,-0.7718094,-3.9826555,-1.0975031
0.18361154,-0.021703841,0.015614229,-0.7477846,-3.858684,-1.0633402
0.17789613,-0.021028249,0.015128193,-0.72450775,-3.738572,-1.0302408
0.17235863,-0.020373687,0.014657287,-0.7019555,-3.6221986,-0.9981717
0.16699351,-0.019739503,0.01420104,-0.68010527,-3.509448,-0.9671009
0.16179541,-0.01912506,0.013758996,-0.6589352,-3.4002075,-0.9369974
0.15675911,-0.018529743,0.013330712,-0.63842416,-3.2943673,-0.907831
0.1518796,-0.017952958,0.01291576,-0.6185516,-3.191822,-0.8795725
0.14715196,-0.01739413,0.012513726,-0.5992977,-3.0924687,-0.85219365
