ax,ay,az,gx,gy,gz
0.81364375,4.1409464,0.6572787,-35.51123,-1.4981954,-44.22313
1.1783108,5.2320814,1.1193188,-41.21634,0.43683004,-55.199913
1.7440737,6.451683,1.719335,-51.763393,3.2148192,-70.53772
2.4253554,7.1051526,2.2132747,-66.55457,8.613851,-78.74545
2.8126006,7.1374807,2.318583,-82.55415,15.982342,-80.46549
2.7684808,6.7276483,2.0045521,-92.28543,22.51897,-81.603325
2.447847,6.1505094,1.5251951,-97.48607,26.413431,-83.53738
2.1294293,5.6560764,1.1104739,-100.56776,28.424782,-85.710464
1.8857554,5.233237,0.77202064,-103.561554,29.373676,-87.03287
1.698033,4.805458,0.4779182,-106.796295,29.415577,-87.536835
1.5579304,4.3304577,0.21600887,-108.71625,28.801025,-88.23595
1.489703,3.7739549,0.006914376,-108.85717,28.486134,-89.063286
1.451247,3.2546406,-0.14443295,-107.27419,28.781136,-90.05059
1.3968756,2.8055058,-0.27367616,-104.98963,29.259716,-90.768166
1.3244927,2.4133246,-0.38730595,-102.48635,29.335663,-90.935844
1.2608391,2.065229,-0.48114437,-99.48057,29.165628,-90.91177
1.1983485,1.7334455,-0.5503756,-96.14358,29.03817,-90.75849
1.1314759,1.4291286,-0.6000365,-92.52161,28.835423,-90.51787
1.0702295,1.1588063,-0.63575494,-88.785545,28.65662,-90.08522
1.015602,0.9160911,-0.6723644,-85.143456,28.447165,-89.26476
0.9525386,0.6963642,-0.7146342,-81.84738,27.754889,-87.833115
0.88074064,0.47698754,-0.74656826,-78.914444,26.732677,-85.90715
0.8273515,0.26116925,-0.75618523,-76.27767,25.677914,-83.489426
0.78819627,0.048801333,-0.7566636,-74.01163,24.6227,-80.613075
0.75786185,-0.16526589,-0.7580063,-71.5256,23.67292,-77.59159
0.7315165,-0.3691912,-0.7451301,-68.48944,22.946613,-74.720566
0.70762885,-0.5311902,-0.7130649,-65.38359,22.394327,-71.55401
0.67459977,-0.67880803,-0.6838008,-62.530746,21.876236,-68.185265
0.64391243,-0.8185587,-0.6568084,-59.727554,21.446707,-64.836266
0.6181294,-0.95325094,-0.6246568,-56.998142,21.188133,-61.386353
0.59211546,-1.0677528,-0.58909565,-54.134544,20.914747,-57.863255
0.5682262,-1.1553258,-0.5429096,-51.37804,20.580294,-54.247246
0.56137365,-1.2280303,-0.4868843,-48.623257,20.377096,-50.483612
0.5660086,-1.2916276,-0.42451188,-45.67553,20.365429,-46.733837
0.5748627,-1.3360695,-0.3587829,-42.62411,20.572443,-43.010834
0.57797104,-1.3647987,-0.29627073,-39.438667,20.925367,-39.370975
0.5826999,-1.3781576,-0.23404272,-36.14178,21.396658,-35.905804
0.5973981,-1.3811787,-0.17342454,-32.91614,22.093351,-32.495102
0.61175835,-1.3792876,-0.12052833,-30.005934,22.889576,-29.025307
0.6179102,-1.3755839,-0.076593556,-27.335321,23.742085,-25.584898
0.61823934,-1.3732456,-0.039352655,-24.876112,24.515543,-22.137182
0.62712675,-1.3591753,-0.0025721842,-22.722698,25.227852,-18.643587
0.64344424,-1.336553,0.03460827,-20.72097,25.9781,-15.21335
0.6582069,-1.3018979,0.076241195,-18.812593,26.889519,-11.901903
0.6628198,-1.2534952,0.11494379,-17.075302,27.932983,-8.703872
0.6507678,-1.1904764,0.1477149,-15.597483,28.96662,-5.6886964
0.5969309,-1.1109008,0.19711708,-14.597746,29.797537,-2.8063133
0.5285434,-1.0357232,0.25648263,-14.105443,30.485842,-0.07660625
0.47298515,-0.98817104,0.3036869,-13.641165,31.154915,2.3024523
0.43843693,-0.9528706,0.3328215,-13.1124525,31.92794,4.4945
0.4165332,-0.9107159,0.34112442,-12.719615,32.8376,6.681428
0.38714874,-0.8679341,0.31601605,-12.266108,33.699986,8.739153
0.3555072,-0.8231039,0.26630563,-11.715654,34.443928,10.669715
0.32139605,-0.77440387,0.19853936,-10.960536,35.027958,12.391701
0.29060733,-0.7099241,0.12110218,-10.085882,35.470974,13.968785
0.25986302,-0.62379295,0.03262208,-9.183001,35.63582,15.318616
0.22534004,-0.5219273,-0.06772537,-8.395314,35.5498,16.49276
0.19475181,-0.416696,-0.17873603,-7.636088,35.188847,17.41847
0.16385455,-0.30693635,-0.293578,-6.846234,34.589596,18.065735
0.13278484,-0.19531144,-0.41134244,-5.969138,33.717373,18.423622
0.10531182,-0.078137726,-0.5294694,-5.164613,32.489338,18.536932
0.079740055,0.048249543,-0.64038336,-4.4831753,31.074915,18.444569
0.052892037,0.17211711,-0.74679476,-3.9043186,29.524225,18.18578
0.021393243,0.2904484,-0.8476925,-3.4576337,27.851954,17.79225
-0.017164206,0.3995048,-0.9474427,-3.1166303,26.050549,17.25908
-0.06885457,0.50037533,-1.0532922,-2.9518905,23.838312,16.51678
-0.13580751,0.58109224,-1.1689119,-2.9257426,21.25911,15.676425
-0.20021111,0.64104,-1.2821622,-2.9825027,18.38432,14.792218
-0.24945144,0.6852078,-1.3850266,-3.185479,15.304035,13.968935
-0.28269508,0.71584445,-1.4730016,-3.5626857,12.237281,13.488465
-0.32396913,0.7473071,-1.5590963,-3.7854466,9.076442,12.854935
-0.3834915,0.78303564,-1.6393136,-3.9561749,5.7177305,11.928063
-0.44758764,0.81501096,-1.7244684,-4.268567,2.0204053,10.838002
-0.50487876,0.83559394,-1.8148742,-4.6384144,-1.9345497,9.603829
-0.5455901,0.84460366,-1.8965466,-5.017409,-6.1753693,8.290297
-0.56813425,0.8380024,-1.955104,-5.407166,-10.563269,7.1162934
-0.5755906,0.82481974,-1.9855756,-5.5256457,-14.898715,5.88414
-0.5707082,0.82520443,-2.0056756,-5.4455943,-19.293608,4.6226525
-0.5434857,0.8529346,-2.009567,-5.4278417,-23.72501,3.2538192
-0.49586257,0.8921264,-2.0008159,-5.7608805,-28.07841,1.8638351
-0.44527218,0.9053224,-1.9926623,-6.419656,-32.425858,0.5206852
-0.39089704,0.8715653,-1.9834176,-6.9150414,-36.72353,-0.86182755
-0.31628054,0.8155513,-1.9694998,-7.118011,-40.952175,-2.182621
-0.22195733,0.756053,-1.9378259,-7.051582,-44.99332,-3.3670015
-0.114568666,0.71033674,-1.8821884,-6.902889,-48.7497,-4.4712524
-0.0056522354,0.6725508,-1.8045907,-6.5634794,-52.060154,-5.55552
0.09966188,0.65549195,-1.7085996,-6.359405,-55.11743,-6.5496264
0.20221534,0.638224,-1.6075749,-6.3130927,-57.94326,-7.4259105
0.30796364,0.61310285,-1.4974751,-6.300768,-60.501156,-8.257092
0.4200974,0.5820422,-1.3649256,-6.233364,-62.65831,-8.985325
0.531491,0.5608016,-1.2118359,-6.282817,-64.27092,-9.527919
0.6351567,0.56303114,-1.0388931,-6.619324,-65.57819,-9.917625
0.7433336,0.57852495,-0.8588439,-7.4915924,-66.57277,-10.063789
0.8599163,0.581669,-0.6807359,-8.863406,-67.20546,-9.9876
0.9749103,0.55568427,-0.51154166,-10.541247,-67.40575,-9.768735
1.0778923,0.48564458,-0.3616061,-11.988608,-67.029015,-9.461338
1.1599928,0.37979847,-0.23165725,-12.978132,-66.33407,-9.043432
1.227816,0.2805707,-0.10852395,-13.48055,-65.38061,-8.631074
1.2908157,0.1962798,0.015230394,-13.589521,-64.14821,-8.168741
1.3548313,0.13544758,0.14524233,-13.3594885,-62.493156,-7.755294
1.4130855,0.09698621,0.27447549,-13.090935,-60.32211,-7.280517
1.4592038,0.06857084,0.39127767,-12.939459,-57.874348,-6.652949
1.4949132,0.041048154,0.49276537,-12.8518095,-55.232903,-5.9574304
1.5188885,0.0072103273,0.57505363,-12.711663,-52.47053,-5.287557
1.5348085,-0.033180613,0.6413398,-12.520676,-49.667202,-4.53013
1.4869165,-0.032145247,0.62132746,-12.129981,-48.117393,-4.3887725
1.440526,-0.031142343,0.60194254,-11.751536,-46.61617,-4.2518463
1.3955892,-0.030170865,0.5831651,-11.38495,-45.16199,-4.119211
1.35206,-0.02922982,0.5649759,-11.029847,-43.753365,-3.9907305
1.3098937,-0.028318241,0.5473562,-10.6858635,-42.388844,-3.8662732
1.2690474,-0.027435195,0.530288,-10.352647,-41.067036,-3.7457113
1.2294791,-0.026579779,0.5137539,-10.029856,-39.786583,-3.6289217
1.1911485,-0.02575112,0.49773696,-9.717162,-38.54619,-3.5157855
1.1540166,-0.024948373,0.4822209,-9.414247,-37.344578,-3.406187
1.1180454,-0.024170723,0.46718988,-9.120801,-36.18053,-3.300015
1.0831985,-0.023417378,0.45262864,-8.836527,-35.052868,-3.1971612
1.0494405,-0.02268757,0.43852237,-8.561134,-33.960438,-3.0975208
1.0167369,-0.021980561,0.42485678,-8.294346,-32.902134,-3.0009935
0.98505473,-0.021295633,0.41161796,-8.035889,-31.876884,-2.9074805
0.95436186,-0.020632092,0.39879256,-7.785502,-30.883646,-2.8168876
0.9246272,-0.019989267,0.38636753,-7.542932,-29.921417,-2.729123
0.8958207,-0.019366506,0.37433034,-7.307934,-28.989223,-2.6440978
0.8679131,-0.01876318,0.3626688,-7.08027,-28.08612,-2.561726
0.8408764,-0.01817868,0.35137117,-6.8597093,-27.211197,-2.4819248
0.81468314,-0.017612416,0.340426,-6.64603,-26.363571,-2.404613
0.789307,-0.017063815,0.3298222,-6.439016,-25.542385,-2.3297129
0.76472235,-0.016532326,0.3195492,-6.2384586,-24.746813,-2.257149
0.7409044,-0.016017413,0.30959654,-6.0441566,-23.976051,-2.1868482
0.7178291,-0.015518554,0.29995424,-5.8559127,-23.229322,-2.1187394
0.6954733,-0.01503525,0.29061258,-5.673538,-22.505878,-2.052754
0.6738145,-0.014567013,0.28156215,-5.4968495,-21.804987,-1.9888259
0.6528308,-0.014113373,0.27279386,-5.325669,-21.125944,-1.9268907
0.6325012,-0.013673873,0.26429886,-5.159824,-20.468067,-1.8668859
0.6128052,-0.01324807,0.25606865,-4.9991474,-19.830694,-1.8087513
0.593723,-0.012835538,0.2480949,-4.843479,-19.213186,-1.7524287
0.5752355,-0.012435861,0.24036965,-4.6926613,-18.61492,-1.697861
0.55732405,-0.012048638,0.23288512,-4.546543,-18.035295,-1.6449937
0.5399707,-0.011673481,0.2256338,-4.404978,-17.473732,-1.5937736
0.523158,-0.011310012,0.2186084,-4.267823,-16.929665,-1.5441494
0.50686914,-0.010957867,0.21180187,-4.1349416,-16.402548,-1.4960712
0.49108768,-0.010616692,0.20520738,-4.0061994,-15.891852,-1.4494909
0.47579783,-0.010286145,0.19881833,-3.8814678,-15.397065,-1.4043615
0.46098426,-0.009965895,0.19262828,-3.7606215,-14.91769,-1.3606379
0.44663212,-0.009655619,0.18663105,-3.6435394,-14.453248,-1.3182762
0.432727,-0.009355009,0.18082061,-3.5301042,-14.003271,-1.277234
0.41925496,-0.00906376,0.17519115,-3.420202,-13.567308,-1.2374699
0.40620252,-0.008781583,0.16973701,-3.3137226,-13.144924,-1.1989444
0.39355657,-0.008508193,0.16445275,-3.2105594,-12.735695,-1.1616187
0.38130444,-0.008243318,0.15933304,-3.1106088,-12.33921,-1.1254554
0.36943385,-0.007986691,0.15437275,-3.0137708,-11.955071,-1.0904183
0.35793293,-0.0077380557,0.14956695,-2.9199486,-11.582896,-1.0564723
0.34679013,-0.0074971626,0.14491078,-2.8290477,-11.222309,-1.0235833
0.33599433,-0.007263771,0.14039962,-2.7409775,-10.8729515,-0.9917185
0.32553467,-0.0070376466,0.13602892,-2.65565,-10.5344715,-0.9608458
0.31540072,-0.006818563,0.1317943,-2.572979,-10.206532,-0.93093455
0.3055823,-0.0066063013,0.12769155,-2.492882,-9.888803,-0.90195453
0.2960696,-0.0064006485,0.12371654,-2.4152792,-9.580966,-0.87387687
0.28685305,-0.006201399,0.11986529,-2.3400924,-9.282714,-0.8466734
0.2779235,-0.006008353,0.11613395,-2.2672467,-8.993749,-0.820317
0.26927194,-0.0058213174,0.11251879,-2.196669,-8.713779,-0.7947811
0.26088974,-0.005640105,0.10901618,-2.1282887,-8.442528,-0.7700403
0.25276852,-0.0054645343,0.10562262,-2.0620372,-8.179721,-0.7460697
0.24490012,-0.0052944296,0.10233471,-1.9978485,-7.9250956,-0.72284544
0.2372767,-0.005129621,0.09914917,-1.935658,-7.6783977,-0.7003442
0.22989061,-0.0049699433,0.096062794,-1.8754038,-7.4393797,-0.6785435
0.22273448,-0.0048152367,0.093072504,-1.8170253,-7.2078032,-0.65742147
0.21580112,-0.0046653464,0.09017531,-1.7604643,-6.9834366,-0.63695705
0.2090836,-0.004520122,0.08736831,-1.7056642,-6.766054,-0.6171297
0.20257522,-0.004379419,0.0846487,-1.6525699,-6.5554395,-0.5979196
0.19626944,-0.004243096,0.08201374,-1.6011286,-6.3513813,-0.5793075
0.19015996,-0.004111017,0.07946082,-1.5512887,-6.1536756,-0.5612748
0.18424068,-0.0039830497,0.07698737,-1.5030003,-5.9621243,-0.5438035
0.17850567,-0.003859066,0.07459092,-1.4562151,-5.7765365,-0.52687603
0.17294918,-0.0037389419,0.072269075,-1.4108864,-5.5967255,-0.5104756
0.16756567,-0.003622557,0.0700195,-1.3669688,-5.422512,-0.49458563
0.16234975,-0.0035097953,0.06783996,-1.3244182,-5.253722,-0.47919035
0.1572962,-0.003400544,0.06572826,-1.2831923,-5.0901866,-0.46427432
0.15239994,-0.0032946933,0.0636823,-1.2432497,-4.9317417,-0.4498226
0.14765611,-0.0031921377,0.061700035,-1.2045504,-4.7782288,-0.43582073
0.14305995,-0.0030927747,0.05977947,-1.1670558,-4.6294947,-0.42225474
