ax,ay,az,gx,gy,gz
1.5527413,2.8191166,1.9100174,-6.8800626,3.2736661,-25.30205
1.870668,3.548532,2.2902298,-12.588107,7.094137,-31.45131
2.1693807,4.0331087,2.5506272,-23.786741,14.584756,-37.441734
2.3389392,4.118765,2.5786266,-33.099777,21.563301,-41.977352
2.386305,4.0331798,2.4569614,-39.3823,27.653347,-46.59271
2.3706985,3.8820577,2.2775767,-43.541344,32.6726,-50.891853
2.3170762,3.7234793,2.078818,-46.203728,36.7381,-54.81359
2.2363892,3.5790293,1.8885831,-47.7071,40.013813,-58.970287
2.160908,3.469861,1.711785,-49.198635,42.56926,-62.818684
2.11966,3.3601606,1.5540094,-51.08837,44.74264,-66.23708
2.0942276,3.2038162,1.4077529,-53.040867,46.666573,-69.17907
2.065088,3.0056798,1.2675169,-54.502556,48.430336,-71.73238
2.013454,2.7977538,1.1344793,-55.344257,50.09649,-74.089485
1.9474306,2.606036,1.0008134,-56.26636,51.618782,-76.188644
1.8868853,2.4028559,0.8674958,-57.397453,52.875614,-77.98679
1.833976,2.1793568,0.7374115,-58.526875,53.911434,-79.41697
1.7858462,1.9382327,0.60596216,-59.396553,54.72137,-80.4447
1.72137,1.6798513,0.46674094,-59.773666,55.000706,-80.792755
1.6464223,1.405247,0.32375744,-59.82567,55.08535,-80.5598
1.5759407,1.1487837,0.19758241,-59.692245,55.001873,-79.800896
1.5097963,0.9083317,0.086427376,-59.33479,54.840675,-78.66135
1.4351826,0.68734795,-0.020860612,-58.72618,54.563522,-77.3349
1.3462536,0.47492772,-0.12726995,-57.7046,53.90132,-75.629906
1.2426202,0.2815314,-0.23789632,-56.33488,52.803246,-73.847595
1.1422336,0.103109,-0.33318856,-54.89757,51.29323,-71.86965
1.0592448,-0.06682095,-0.40462032,-53.504826,49.596416,-69.63166
0.98696524,-0.239418,-0.46290252,-52.01083,47.813953,-67.23835
0.9266842,-0.4242954,-0.5132889,-50.119728,46.002796,-64.516075
0.8760547,-0.6269414,-0.55672795,-47.900913,44.242523,-61.469646
0.826378,-0.82120985,-0.5913891,-45.35381,42.44228,-58.192757
0.7856101,-0.9958893,-0.6055369,-42.54274,40.66938,-54.751392
0.7555974,-1.1403401,-0.59684825,-39.691666,39.046844,-51.155235
0.73244154,-1.2643905,-0.5781247,-36.96979,37.52815,-47.190456
0.7098061,-1.3876711,-0.5602302,-34.252796,35.960403,-43.077423
0.6971145,-1.5233351,-0.53940564,-31.308401,34.497505,-38.946507
0.6879926,-1.654148,-0.5137996,-27.866655,33.23206,-34.800636
0.6826221,-1.7376541,-0.4786324,-24.227175,32.102116,-30.628807
0.6842805,-1.7708904,-0.4346225,-20.698662,31.21719,-26.37063
0.6823486,-1.7545979,-0.38833365,-17.49336,30.487646,-22.337719
0.67209744,-1.7245555,-0.33775103,-14.695557,29.93749,-18.436567
0.65000844,-1.6917331,-0.29416844,-12.240938,29.50105,-14.650992
0.62324834,-1.6552618,-0.25753805,-10.008721,28.977045,-11.04936
0.61061573,-1.6081356,-0.21075764,-7.799287,28.764856,-7.7567835
0.6333082,-1.5266209,-0.14780846,-5.771862,28.958002,-4.6997266
0.6737935,-1.4261115,-0.079843365,-4.1855197,29.75389,-1.6234694
0.70507556,-1.3092089,-0.033005934,-2.990209,30.821827,1.3259449
0.7173952,-1.1815962,-0.015851298,-1.871574,31.938389,4.0125656
0.7039369,-1.0317628,-0.028923877,-0.8988676,32.51348,6.2404656
0.6740723,-0.8711181,-0.065134704,-0.18149224,32.709713,8.139882
0.64084345,-0.71745884,-0.111104675,0.32753304,32.627098,9.639415
0.6098533,-0.5751142,-0.16675116,0.7302526,32.407734,10.823229
0.58247185,-0.43730572,-0.23535979,1.0785483,32.06162,11.775101
0.5548618,-0.30326593,-0.3150907,1.466621,31.561459,12.378798
0.5228677,-0.1717364,-0.4096535,1.8726047,30.881123,12.748686
0.4831851,-0.050001018,-0.5165679,2.2695534,29.890469,12.902607
0.43928716,0.05444842,-0.632021,2.7123148,28.591848,12.845396
0.39038023,0.1520971,-0.74924934,3.1289032,26.9492,12.529374
0.34183118,0.25060913,-0.85830927,3.3444207,24.999832,12.004734
0.2928324,0.35389024,-0.96470374,3.3707385,22.841133,11.327406
0.24199171,0.45444608,-1.0664057,3.2013032,20.496735,10.481314
0.1895331,0.5464539,-1.161858,2.8554544,17.931648,9.500501
0.14030395,0.6282754,-1.2459018,2.3101244,15.238842,8.397802
0.089231394,0.6936462,-1.3279608,1.6496334,12.320127,7.155917
0.04130952,0.743023,-1.415988,0.8761467,9.258179,5.872291
-0.013300202,0.7743922,-1.5108382,0.03494529,5.9400387,4.530614
-0.060490925,0.78809017,-1.6056936,-0.80887985,2.3784971,3.1504812
-0.08983117,0.7962595,-1.6904063,-1.6690522,-1.2733895,1.8113399
-0.10669571,0.79957825,-1.7649318,-2.590001,-4.995248,0.6228716
-0.11858605,0.8062985,-1.8276266,-3.5150607,-8.701162,-0.52759624
-0.14286517,0.8112633,-1.8872988,-4.650519,-12.569164,-1.6278979
-0.17474107,0.7983917,-1.9503002,-5.79476,-16.69502,-2.6837718
-0.20584542,0.76798266,-2.0109248,-6.7574434,-20.96536,-3.7026694
-0.22696687,0.73568916,-2.0678625,-7.3181133,-25.548054,-4.7809258
-0.2141549,0.7071869,-2.1088116,-7.7673903,-30.334066,-5.783008
-0.16295671,0.6755336,-2.1235483,-8.109131,-35.092503,-6.75606
-0.0749853,0.6331126,-2.1147969,-8.511144,-39.482773,-7.49253
0.015743216,0.5769329,-2.1080065,-8.797772,-43.538807,-7.907843
0.07689578,0.5006624,-2.1348202,-8.350283,-47.327938,-8.163133
0.09740964,0.39654243,-2.2128608,-7.4396667,-51.654724,-8.381267
0.15392704,0.28822547,-2.2580452,-6.148655,-56.61121,-8.45762
0.27298135,0.22984225,-2.2259417,-3.882141,-61.494194,-8.931477
0.43145406,0.25333157,-2.122436,-1.2832445,-65.856705,-9.878076
0.6125153,0.3408074,-1.9594669,-0.01017137,-69.232216,-10.56192
0.7463941,0.40787098,-1.793176,0.22998992,-72.098366,-11.118283
0.85119534,0.40737236,-1.6463183,0.10579108,-74.87271,-11.608881
0.9632907,0.36226887,-1.495144,0.16571069,-77.51429,-12.001397
1.0971975,0.3159061,-1.315748,0.62791336,-79.759315,-12.452249
1.2597103,0.295802,-1.0896848,1.3051255,-80.92761,-12.911723
1.4395626,0.32089093,-0.82403725,1.555071,-81.2416,-13.270446
1.5957094,0.34471235,-0.568024,1.1888044,-80.82257,-13.3461485
1.7183927,0.3524903,-0.34231657,0.23952684,-79.86619,-13.134565
1.8187735,0.3348451,-0.14502771,-0.70448506,-78.43175,-12.889545
1.903548,0.3165692,0.033272788,-1.8708049,-76.39505,-12.421117
1.9654261,0.3069761,0.18599951,-3.6266563,-74.01978,-11.562592
2.0108337,0.29017863,0.3081544,-6.209124,-71.24035,-10.181332
2.0346057,0.25849435,0.39489847,-9.305562,-68.231865,-8.335983
2.0300848,0.20942692,0.44673604,-12.40351,-65.00345,-6.3275104
2.0070162,0.14171563,0.47509244,-14.087535,-61.29686,-5.2865524
1.9795808,0.06582564,0.48715088,-14.749673,-57.281723,-4.7361197
1.9489791,0.0066633276,0.48927045,-15.078292,-52.99066,-4.130568
1.9148737,-0.031648625,0.485639,-15.545242,-48.739254,-3.1628065
1.8550795,-0.03066036,0.47047436,-15.059824,-47.217316,-3.0640442
1.7971638,-0.02970314,0.45578614,-14.589656,-45.743187,-2.9683845
1.7410667,-0.028775977,0.44155908,-14.13425,-44.315346,-2.8757286
1.6867298,-0.02787791,0.42777848,-13.693134,-42.93231,-2.78598
1.6340972,-0.02700801,0.41443014,-13.265856,-41.592655,-2.6990466
1.5831147,-0.026165383,0.40150025,-12.851972,-40.295,-2.6148386
1.5337299,-0.02534916,0.38897556,-12.451058,-39.038006,-2.5332694
1.485892,-0.024558507,0.3768432,-12.062703,-37.82039,-2.4542553
1.4395521,-0.02379261,0.36509073,-11.686507,-36.6409,-2.3777153
1.3946626,-0.023050684,0.35370612,-11.322087,-35.498325,-2.3035712
1.3511777,-0.022331975,0.34267774,-10.96907,-34.391506,-2.231747
1.309053,-0.021635748,0.33199432,-10.627095,-33.319305,-2.1621695
1.2682456,-0.020961292,0.321645,-10.2958145,-32.280636,-2.0947676
1.2287139,-0.02030792,0.3116192,-9.97489,-31.274437,-2.0294728
1.1904176,-0.019674968,0.30190673,-9.663996,-30.299685,-1.9662188
1.153318,-0.019061795,0.29249775,-9.362816,-29.355389,-1.9049412
1.1173774,-0.018467775,0.28338268,-9.071044,-28.440592,-1.8455778
1.0825592,-0.017892309,0.27455232,-8.788384,-27.554365,-1.7880685
1.0488282,-0.01733481,0.26599765,-8.514551,-26.69581,-1.7323549
1.0161504,-0.016794715,0.25771007,-8.249267,-25.864061,-1.6783806
0.9844924,-0.016271481,0.24968119,-7.9922624,-25.058271,-1.6260911
0.9538225,-0.015764574,0.24190286,-7.7432795,-24.27763,-1.5754334
0.9241096,-0.015273485,0.23436724,-7.502065,-23.521347,-1.5263563
0.89532363,-0.014797717,0.22706671,-7.2683764,-22.78866,-1.4788105
0.86743563,-0.014336791,0.21999393,-7.0419774,-22.078827,-1.4327478
0.8404175,-0.01389024,0.21314174,-6.82264,-21.391134,-1.3881217
0.81424195,-0.013457617,0.20650324,-6.6101427,-20.724888,-1.3448875
0.78888255,-0.0130384825,0.20007177,-6.404271,-20.079416,-1.3030013
0.7643139,-0.012632417,0.1938408,-6.204819,-19.454071,-1.2624211
0.7405112,-0.012239011,0.18780409,-6.0115848,-18.84822,-1.223106
0.7174505,-0.011857868,0.18195558,-5.8243747,-18.261257,-1.1850165
0.69510853,-0.011488605,0.17628935,-5.642999,-17.692589,-1.1481143
0.673463,-0.011130853,0.17079972,-5.467277,-17.141644,-1.1123621
0.652492,-0.010784248,0.16548118,-5.2970314,-16.60787,-1.0777243
0.6321745,-0.010448445,0.16032837,-5.132091,-16.090729,-1.0441658
0.6124901,-0.010123106,0.15533614,-4.97229,-15.589703,-1.011653
0.5934191,-0.009807903,0.15049945,-4.817468,-15.104287,-0.98015326
0.5749422,-0.009502522,0.14581347,-4.66747,-14.633995,-0.9496349
0.5570409,-0.009206654,0.14127345,-4.5221453,-14.178355,-0.92006737
0.5396974,-0.008920004,0.13687488,-4.381347,-13.73691,-0.8914209
0.52289414,-0.008642282,0.13261333,-4.2449355,-13.3092165,-0.86366683
0.50661427,-0.008373212,0.12848453,-4.1127734,-12.894845,-0.83677727
0.49084148,-0.008112523,0.12448433,-3.9847274,-12.4933815,-0.81072533
0.47555998,-0.007859954,0.120608725,-3.8606699,-12.104422,-0.7854848
0.46075442,-0.0076152505,0.116853826,-3.7404761,-11.727576,-0.7610304
0.44641,-0.007378169,0.11321588,-3.6240258,-11.362467,-0.73733765
0.43251228,-0.0071484707,0.109691225,-3.511202,-11.008729,-0.7143827
0.41904742,-0.006925926,0.10627634,-3.401892,-10.666008,-0.69214267
0.40600184,-0.0067103114,0.1029678,-3.295986,-10.333959,-0.6705952
0.3933625,-0.0065014116,0.09976228,-3.193378,-10.01225,-0.6497188
0.38111675,-0.0062990165,0.09665659,-3.093965,-9.70056,-0.62949246
0.36925232,-0.006102924,0.09364761,-2.997648,-9.398575,-0.60989594
0.35775736,-0.005912937,0.09073231,-2.9043298,-9.105993,-0.5909096
0.3466203,-0.005728866,0.0879078,-2.8139174,-8.822521,-0.5725145
0.33583,-0.0055505265,0.08517123,-2.7263203,-8.547876,-0.5546921
0.32537568,-0.0053777397,0.08251987,-2.6414504,-8.281783,-0.5374247
0.31524688,-0.005210333,0.079951055,-2.5592232,-8.023974,-0.52069485
0.30543342,-0.005048138,0.077462226,-2.4795558,-7.7741923,-0.5044859
0.2959255,-0.0048909932,0.07505088,-2.4023693,-7.5321875,-0.48878163
0.2867136,-0.004738741,0.07271462,-2.3275857,-7.297717,-0.4735663
0.27778852,-0.004591229,0.07045109,-2.2551303,-7.0705466,-0.45882466
0.2691413,-0.0044483095,0.068258025,-2.1849308,-6.850449,-0.444542
0.26076326,-0.0043098396,0.066133246,-2.1169167,-6.6372037,-0.43070397
0.25264606,-0.00417568,0.06407461,-2.0510201,-6.430597,-0.41729677
0.24478158,-0.004045698,0.062080067,-1.987175,-6.230422,-0.40430698
0.23716193,-0.0039197616,0.060147617,-1.9253175,-6.0364795,-0.39172155
0.2297795,-0.0037977465,0.058275327,-1.8653857,-5.848574,-0.37952796
0.22262688,-0.0036795295,0.056461323,-1.8073196,-5.666519,-0.36771396
0.21569695,-0.003564993,0.05470379,-1.7510613,-5.490131,-0.35626772
0.20898272,-0.0034540219,0.05300097,-1.6965543,-5.3192344,-0.34517783
0.20247753,-0.0033465053,0.05135116,-1.6437441,-5.153658,-0.33443314
0.19617485,-0.0032423357,0.04975271,-1.5925778,-4.9932356,-0.32402298
0.19006835,-0.0031414093,0.04820402,-1.5430044,-4.837807,-0.31393686
0.18415196,-0.0030436243,0.04670354,-1.4949743,-4.687217,-0.3041647
0.17841974,-0.0029488835,0.045249768,-1.4484392,-4.541315,-0.29469678
0.17286597,-0.0028570918,0.04384125,-1.4033527,-4.399955,-0.2855236
0.16748507,-0.0027681575,0.04247658,-1.3596699,-4.2629952,-0.27663594
0.16227168,-0.0026819918,0.041154392,-1.3173468,-4.130299,-0.26802495
0.15722059,-0.0025985083,0.039873358,-1.2763411,-4.0017333,-0.25968203
