ax,ay,az,gx,gy,gz
0.64364225,1.4745588,0.81818926,9.266448,6.9909725,-30.40664
0.5856837,1.8230665,0.8409695,9.766048,9.912682,-33.367577
0.49368364,2.2683675,0.84615,9.312307,11.423262,-35.26728
0.4195844,2.687633,0.8169812,7.0923166,11.211684,-37.6159
0.41887715,2.9607794,0.7852183,3.6216092,10.769776,-40.249584
0.48807228,3.1842275,0.7582073,-0.028206157,10.845939,-43.426727
0.581691,3.3888657,0.76745504,-3.9182084,11.832907,-46.811115
0.6355148,3.576376,0.7792104,-8.403692,13.736125,-50.830517
0.6006051,3.6886463,0.69587964,-12.474983,15.396295,-55.34006
0.5467558,3.6935723,0.5362607,-15.631139,16.327362,-60.2166
0.5007006,3.6280396,0.3634906,-18.095646,16.387117,-65.0524
0.45713288,3.541366,0.23240937,-20.632887,15.885007,-69.57032
0.42393333,3.4416096,0.13938351,-23.054644,14.8855715,-74.44939
0.45141503,3.2960725,0.07216439,-25.470669,13.923843,-79.79313
0.529433,3.0918295,0.039986532,-28.34303,13.245818,-84.38271
0.63744545,2.8395658,0.028012564,-31.583536,12.894612,-87.8145
0.75358075,2.5385344,0.015867678,-34.298244,12.959554,-90.07791
0.8486664,2.2240207,-0.0019594633,-35.764717,13.239726,-91.35962
0.9083363,1.9366865,-0.016830876,-36.49866,13.612224,-92.13301
0.93375605,1.6807566,-0.03564029,-36.944748,13.894769,-92.64881
0.938068,1.4361686,-0.057099834,-37.455402,14.089409,-92.78014
0.93956935,1.2012336,-0.07946116,-38.245113,14.378129,-92.333176
0.9325076,0.96540856,-0.10937935,-39.083416,14.54501,-91.23307
0.9071381,0.7107715,-0.14367373,-39.62382,14.42511,-89.84749
0.8850037,0.45330283,-0.1735879,-39.880646,14.045281,-88.16414
0.8733275,0.19743231,-0.19206698,-39.93023,13.563276,-86.086815
0.87277246,-0.05320817,-0.19418025,-39.657578,13.29058,-83.73308
0.8779746,-0.29446116,-0.17890367,-38.992203,13.377193,-80.862434
0.8793107,-0.52039754,-0.16297418,-38.251408,13.6422,-77.67194
0.8717009,-0.7403914,-0.15086266,-37.335136,14.001519,-74.159454
0.85067445,-0.9510942,-0.14440762,-36.1529,14.399909,-70.398056
0.81878746,-1.142736,-0.14028144,-34.58255,14.804891,-66.48559
0.7911817,-1.3017087,-0.12874421,-32.888332,15.218749,-62.273712
0.76867473,-1.4378225,-0.10404782,-31.176323,15.689325,-57.963173
0.7507067,-1.5566651,-0.0730555,-29.30663,16.189316,-53.7685
0.7399147,-1.6530253,-0.033978067,-27.264997,16.724174,-49.440624
0.73817813,-1.7186462,0.0134503385,-25.109539,17.324371,-45.06826
0.7440388,-1.7475849,0.06784642,-23.003298,18.077469,-40.64911
0.7531649,-1.753365,0.11892189,-20.971397,18.940907,-36.338917
0.7630682,-1.7517062,0.16232829,-19.135527,19.917692,-32.070892
0.76958275,-1.7475532,0.1963135,-17.322329,21.026283,-27.911013
0.77114016,-1.7323958,0.22051522,-15.551542,22.176836,-23.818377
0.7660145,-1.7024403,0.23376074,-13.765739,23.309034,-19.963205
0.7607587,-1.6545627,0.23884812,-11.947664,24.370567,-16.43471
0.75709206,-1.6011666,0.2373484,-10.102462,25.297092,-13.280996
0.75754064,-1.5435455,0.23591155,-8.357931,26.174177,-10.306127
0.7611116,-1.4714228,0.23833072,-6.9423647,27.040382,-7.3928714
0.7624111,-1.382234,0.23818219,-6.153708,27.85882,-4.541422
0.7532257,-1.2767038,0.22027642,-5.9376616,28.457216,-1.793707
0.73758805,-1.1746951,0.19056669,-6.034335,28.845755,0.7689904
0.712374,-1.0889032,0.1513902,-5.946093,29.097706,2.844838
0.6780277,-1.023461,0.10566595,-5.256966,29.339964,4.3061905
0.64675766,-0.9601724,0.056735612,-3.87832,29.764671,5.2858157
0.61154056,-0.8757127,0.0005637194,-2.44186,30.313517,6.1230774
0.5679929,-0.77663743,-0.06491519,-1.3843639,30.86216,6.9130034
0.51103276,-0.6767872,-0.14992957,-0.69010156,31.195238,7.5993333
0.44056273,-0.5845236,-0.25624365,-0.30214092,31.122787,8.120161
0.36936164,-0.50168943,-0.37441456,-0.31622866,30.522854,8.526146
0.3097606,-0.43714464,-0.49756512,-0.5292264,29.745031,8.927551
0.2518214,-0.38955104,-0.63177925,-0.6948843,28.780127,9.227203
0.18939625,-0.34938505,-0.77399385,-0.63661486,27.595493,9.347771
0.12371359,-0.30132702,-0.9202365,-0.39452052,26.141865,9.292088
0.056307096,-0.24517974,-1.0700561,-0.26342112,24.156885,9.139736
-0.007062039,-0.18790881,-1.2234707,-0.4379437,21.797668,9.059554
-0.06349374,-0.13060935,-1.3822356,-0.96389854,19.09134,9.147082
-0.11523774,-0.06402764,-1.545278,-1.7638998,16.193226,9.227706
-0.16567369,0.008401756,-1.7090665,-2.83796,13.180288,9.199962
-0.22253174,0.065684386,-1.8676426,-3.9616694,9.886414,8.845121
-0.28862464,0.086198114,-2.017503,-4.5797596,6.3095036,8.242943
-0.33589298,0.105579026,-2.1457362,-4.752913,2.336541,7.3417253
-0.34713584,0.1359039,-2.2419643,-4.8483715,-1.9646158,6.2898116
-0.31937394,0.16900618,-2.3013597,-5.2045975,-6.3520727,5.2631054
-0.27687493,0.19069411,-2.3344996,-6.0103416,-10.858057,4.3866224
-0.22483392,0.18645395,-2.3386068,-6.909558,-15.457613,3.5235314
-0.16040409,0.16340894,-2.319707,-7.5414095,-20.004797,2.5070302
-0.07719689,0.13051695,-2.2761412,-8.156478,-24.40512,1.5257215
0.016004128,0.08463031,-2.2153769,-8.809364,-28.503664,0.7211191
0.10209893,0.02318171,-2.1493251,-9.267494,-32.37826,0.0159644
0.18297058,-0.047159526,-2.0639908,-9.514331,-36.082844,-0.6066094
0.26349488,-0.11415221,-1.9616501,-9.553038,-39.536682,-1.0897304
0.34037954,-0.17264956,-1.8556831,-9.390541,-42.78093,-1.5053341
0.41204834,-0.22340693,-1.7472433,-8.962359,-45.813057,-1.9113886
0.48188484,-0.2639442,-1.631468,-8.498019,-48.582573,-2.2122462
0.5575915,-0.29987976,-1.4911135,-8.014029,-51.04064,-2.3480198
0.63238144,-0.32457882,-1.340676,-7.4975944,-53.172585,-2.3950534
0.70164,-0.33828288,-1.1898044,-6.8654428,-55.002552,-2.4789236
0.76686746,-0.34012565,-1.0362169,-6.199835,-56.490612,-2.56586
0.8247774,-0.327198,-0.8830388,-5.704755,-57.56555,-2.6844993
0.87394655,-0.32054487,-0.73636633,-5.3019967,-58.395775,-2.8452637
0.92587775,-0.32745382,-0.58880866,-4.8584805,-58.99305,-2.9263308
0.9815799,-0.3363676,-0.43650573,-4.320059,-59.336166,-2.9703965
1.04181,-0.3376713,-0.27509692,-3.6802156,-59.320564,-2.974862
1.1059551,-0.32021475,-0.10906491,-3.2669833,-58.682602,-2.9466941
1.1584954,-0.3012139,0.04364109,-3.1322725,-57.58928,-2.8544867
1.1966435,-0.28938273,0.17713113,-3.0972912,-56.28992,-2.7804592
1.2329929,-0.28274107,0.30177778,-3.1263964,-54.724316,-2.6629553
1.2680392,-0.27840358,0.41577038,-3.2309282,-52.84173,-2.4709382
1.2945108,-0.27629688,0.51269877,-3.3187878,-50.58736,-2.288787
1.3074311,-0.27738127,0.5862323,-3.4496567,-48.136993,-2.0494418
1.3141341,-0.2800872,0.64504915,-3.6488822,-45.573067,-1.712759
1.3231561,-0.28358254,0.6972374,-3.9733617,-42.84389,-1.220821
1.3440104,-0.2834082,0.7534683,-4.7565026,-39.762157,-0.31742293
1.3736067,-0.2817408,0.8098683,-6.077157,-35.929264,1.3064699
1.3727137,-0.27444473,0.8362797,-7.2667923,-31.953802,2.829839
1.3566189,-0.25720352,0.8417013,-8.453394,-28.110706,4.0273004
1.3142871,-0.24917777,0.81543696,-8.189615,-27.233543,3.9016328
1.2732824,-0.24140362,0.789996,-7.9341063,-26.383879,3.779905
1.2335627,-0.23387311,0.7653523,-7.686604,-25.56084,3.6619918
1.1950872,-0.22657847,0.7414805,-7.4468546,-24.763584,3.5477724
1.1578164,-0.21951225,0.71835625,-7.214612,-23.991291,3.4371293
1.1217123,-0.21266721,0.6959558,-6.9896393,-23.243172,3.3299494
1.0867379,-0.20603636,0.6742562,-6.7717056,-22.518461,3.226123
1.0528574,-0.19961292,0.65323544,-6.5605893,-21.81642,3.1255448
1.0200365,-0.19339032,0.632872,-6.3560743,-21.136332,3.0281115
0.9882415,-0.18736228,0.6131451,-6.1579533,-20.477503,2.933724
0.95744026,-0.18152262,0.5940348,-5.966024,-19.839266,2.8422866
0.92760146,-0.17586544,0.5755216,-5.7800913,-19.220972,2.753706
0.89869475,-0.17038497,0.55758667,-5.5999675,-18.621992,2.6678927
0.8706909,-0.16507567,0.5402119,-5.425469,-18.04172,2.5847595
0.8435614,-0.15993215,0.52337974,-5.256419,-17.479565,2.5042222
0.8172789,-0.15494922,0.507073,-5.092647,-16.934961,2.4261992
0.7918168,-0.15012181,0.49127525,-4.933987,-16.407356,2.3506114
0.76714927,-0.14544505,0.47597054,-4.780278,-15.896218,2.2773829
0.7432515,-0.14091423,0.46114337,-4.631366,-15.401028,2.206439
0.7200993,-0.13652477,0.4467788,-4.487099,-14.921288,2.1377087
0.69766927,-0.13227223,0.4328623,-4.3473325,-14.4565115,2.0711224
0.67593884,-0.12815233,0.41937986,-4.2119255,-14.006232,2.0066128
0.6548861,-0.1241609,0.40631792,-4.0807414,-13.569996,1.9441149
0.63448983,-0.120293945,0.39366326,-3.9536479,-13.147362,1.883566
0.6147295,-0.116547555,0.38140315,-3.8305168,-12.7379055,1.8249049
0.5955853,-0.11291796,0.36952525,-3.7112246,-12.341214,1.7680727
0.5770378,-0.10940151,0.35801765,-3.5956511,-11.956888,1.713012
0.55906844,-0.10599467,0.34686872,-3.48368,-11.584542,1.6596676
0.5416591,-0.10269401,0.3360673,-3.3751986,-11.223802,1.6079859
0.5247924,-0.099496216,0.32560247,-3.2700982,-10.874303,1.5579146
0.5084512,-0.09639808,0.31546375,-3.168273,-10.535696,1.5094038
0.49261928,-0.09339648,0.305641,-3.0696206,-10.20764,1.4624047
0.47728065,-0.0904884,0.29612428,-2.974042,-9.889805,1.4168699
0.4624199,-0.08767092,0.28690407,-2.8814414,-9.581873,1.3727539
0.44802213,-0.08494122,0.2779711,-2.7917256,-9.283535,1.3300122
0.43407288,-0.082296565,0.26931643,-2.704805,-8.994491,1.288602
0.42055818,-0.079734296,0.26093134,-2.6205916,-8.714451,1.2484819
0.40746444,-0.07725184,0.25280747,-2.539002,-8.443133,1.2096114
0.39477858,-0.0748467,0.24493665,-2.4599533,-8.180267,1.1719518
0.38248783,-0.07251648,0.23731096,-2.3833668,-7.925589,1.135465
0.3705799,-0.070258826,0.22992279,-2.309166,-7.6788425,1.1001148
0.3590428,-0.0680715,0.22276472,-2.2372758,-7.439781,1.0658655
0.34786505,-0.065952286,0.21582958,-2.1676245,-7.2081647,1.0326828
0.33703536,-0.06389907,0.20911041,-2.1001425,-6.9837613,1.0005335
0.32654294,-0.0619098,0.2026005,-2.034762,-6.7663465,0.9693854
0.31637728,-0.05998247,0.1962933,-1.9714173,-6.555702,0.93920726
0.30652815,-0.058115162,0.1901825,-1.9100453,-6.351617,0.90996885
0.29698572,-0.056305997,0.184262,-1.8505843,-6.153887,0.8816409
0.28774044,-0.054553166,0.17852584,-1.7929748,-5.9623137,0.85419506
0.27878302,-0.052854914,0.17296828,-1.7371591,-5.7767057,0.8276038
0.2701045,-0.051209543,0.1675838,-1.6830814,-5.5968766,0.8018405
0.26169622,-0.049615398,0.16236694,-1.6306874,-5.422647,0.7768794
0.2535497,-0.048070893,0.15731253,-1.5799247,-5.2538424,0.75269544
0.24565685,-0.046574473,0.15241547,-1.5307425,-5.0902934,0.72926444
0.23800974,-0.045124643,0.1476709,-1.4830917,-4.931836,0.706563
0.2306007,-0.043719955,0.14307402,-1.4369243,-4.7783127,0.6845683
0.22342233,-0.042359,0.13862029,-1.3921944,-4.6295686,0.6632584
0.21646747,-0.04104041,0.1343052,-1.348857,-4.4854555,0.6426119
0.20972912,-0.039762877,0.13012445,-1.3068689,-4.345829,0.62260824
0.20320055,-0.038525116,0.12607387,-1.2661879,-4.21055,0.6032274
0.19687523,-0.03732589,0.12214938,-1.2267734,-4.0794816,0.5844498
0.19074683,-0.036163993,0.11834706,-1.188586,-3.9524941,0.5662569
0.18480921,-0.03503827,0.11466313,-1.1515874,-3.82946,0.5486303
0.17905644,-0.033947594,0.11109388,-1.1157405,-3.7102559,0.53155243
0.17348276,-0.03289087,0.10763574,-1.0810097,-3.5947628,0.5150062
0.16808258,-0.031867046,0.104285255,-1.0473601,-3.482865,0.4989751
0.16285053,-0.03087509,0.10103907,-1.0147579,-3.3744507,0.48344305
0.15778133,-0.029914014,0.09789394,-0.9831707,-3.2694113,0.46839452
0.15286995,-0.02898286,0.09484672,-0.95256674,-3.1676419,0.45381442
0.14811146,-0.028080689,0.09189436,-0.9229156,-3.0690403,0.43968824
0.1435011,-0.027206602,0.0890339,-0.89418733,-2.9735084,0.42600176
0.13903426,-0.026359726,0.086262494,-0.86635345,-2.8809502,0.41274136
0.13470647,-0.025539212,0.08357736,-0.839386,-2.7912734,0.39989373
0.13051338,-0.02474424,0.0809758,-0.81325805,-2.704388,0.38744605
0.12645084,-0.023974016,0.07845523,-0.78794336,-2.6202073,0.37538585
