ax,ay,az,gx,gy,gz
0.9790998,2.49275,-0.07363703,-36.56579,-109.75372,-4.660951
1.6527765,3.0012593,0.6113495,-31.037441,-95.061516,-8.954418
2.1857493,3.259062,1.1111742,-32.42756,-81.225,-9.216694
2.4355145,3.2823036,1.4085728,-34.51514,-69.24485,-9.395968
2.5638604,3.2360737,1.6272743,-35.53283,-58.53284,-11.058491
2.6709554,3.2319243,1.8426967,-36.621944,-48.83615,-13.713199
2.7678735,3.2699006,2.0584009,-39.11326,-38.98238,-16.6779
2.825947,3.2366116,2.2345338,-41.43854,-29.381853,-20.104439
2.8385446,3.1487386,2.3458872,-43.284843,-20.314548,-23.669956
2.8350255,3.0463853,2.4217923,-45.36047,-12.014996,-27.221474
2.8473356,2.9318073,2.470408,-47.36911,-4.165042,-31.04152
2.8572142,2.8094864,2.481056,-49.009197,3.345192,-35.41866
2.8729095,2.685911,2.443293,-50.374496,10.269711,-39.752403
2.8882313,2.579089,2.3787832,-51.57345,16.660547,-43.929886
2.9218657,2.5083876,2.2958734,-52.88955,22.830982,-47.905003
2.9869673,2.4919715,2.186168,-54.467518,28.690107,-51.939663
3.1106992,2.5212207,2.056578,-57.535614,34.413906,-55.73506
3.230286,2.4890556,1.8851069,-61.850414,40.534954,-58.95576
3.2402594,2.3372834,1.6305262,-66.27335,46.72066,-61.753075
3.1134427,2.0712786,1.293436,-69.86274,52.03756,-64.30418
2.8993392,1.7378387,0.92387784,-72.13681,56.286182,-66.3325
2.652304,1.3918668,0.5717285,-72.91633,59.098232,-67.27072
2.392864,1.0846732,0.2655968,-72.89591,60.69797,-67.4634
2.1596014,0.83216774,0.011730416,-72.2256,61.068398,-67.03705
1.9622699,0.6102176,-0.18631798,-71.12273,60.797867,-66.226326
1.7944093,0.40183952,-0.34049103,-69.61497,60.1694,-65.03748
1.6392725,0.2079149,-0.46154687,-67.61266,59.19702,-63.35673
1.4765856,0.025882995,-0.5671713,-65.38689,57.894787,-61.56798
1.3194633,-0.15597081,-0.65751195,-62.93117,56.240067,-59.69987
1.1813937,-0.33783,-0.7172093,-60.37823,54.391983,-57.618195
1.0640904,-0.52656484,-0.75447404,-57.685547,52.505863,-55.285034
0.9577254,-0.70956135,-0.7825709,-54.628105,50.53086,-52.521473
0.85524344,-0.8755446,-0.8041192,-51.381744,48.42554,-49.505974
0.76271266,-1.0341253,-0.8103404,-47.97179,46.197483,-46.28054
0.68590784,-1.1827816,-0.7968902,-44.418766,44.0265,-42.989937
0.623161,-1.314535,-0.77352583,-40.80914,41.94239,-39.7016
0.5762552,-1.4269985,-0.74642515,-37.37959,39.95666,-36.191586
0.55098253,-1.5367587,-0.7192402,-33.95488,38.141804,-32.494213
0.5359431,-1.6491802,-0.6928465,-30.185291,36.506763,-28.690615
0.5366399,-1.7398932,-0.6577124,-26.169046,35.09153,-24.657612
0.5504835,-1.7806647,-0.6158691,-22.23168,33.887314,-20.525257
0.56919086,-1.772247,-0.57042515,-18.647097,32.9082,-16.649418
0.5872485,-1.7352558,-0.51763916,-15.501073,32.048355,-12.997079
0.6056862,-1.6980013,-0.462242,-12.739183,31.31842,-9.410744
0.6258577,-1.6653804,-0.40973216,-10.150614,30.786217,-5.970931
0.6501528,-1.629957,-0.3642191,-7.6196527,30.403578,-2.7537875
0.6799003,-1.5849152,-0.32886717,-5.182562,30.156803,0.14105858
0.7179743,-1.5290812,-0.30496615,-2.8109498,30.0059,2.838753
0.7568087,-1.4715612,-0.29504582,-0.4593596,29.823566,5.501328
0.7859731,-1.4171255,-0.2973837,1.7849287,29.555328,8.232632
0.793023,-1.3614374,-0.31106403,3.898553,29.136965,11.133359
0.7803694,-1.3000047,-0.33049414,6.070183,28.550339,13.680787
0.7681969,-1.2113419,-0.34454206,8.463065,28.000278,15.578822
0.7622363,-1.0995679,-0.35377106,10.751802,27.675959,17.174074
0.7542778,-0.9710469,-0.36202744,12.508569,27.598242,18.651365
0.7328508,-0.84488106,-0.38228938,13.854215,27.696611,20.03398
0.6939547,-0.7195338,-0.41457126,14.946065,27.797411,21.267828
0.638439,-0.5799039,-0.45932028,15.90244,27.70452,22.307095
0.57569915,-0.43057472,-0.49965665,16.577312,27.395645,23.077797
0.5168825,-0.2829686,-0.5318498,16.820654,26.992373,23.683952
0.45377323,-0.14820063,-0.56524646,16.82544,26.575548,24.064516
0.3796874,-0.023722785,-0.6093963,16.616493,26.09028,24.06991
0.29334328,0.091159426,-0.67321193,16.227432,25.424614,23.860102
0.20333955,0.19191642,-0.7525573,15.731732,24.486748,23.462725
0.11011971,0.27782446,-0.84751785,15.225575,23.099947,22.8178
0.02698543,0.34586927,-0.94475967,14.68378,21.209784,22.002846
-0.03461038,0.3984322,-1.0324187,14.113429,18.935856,21.133389
-0.08248105,0.44355735,-1.1083834,13.620917,16.535688,20.146845
-0.12982847,0.48668665,-1.1771957,13.197593,14.103142,19.099918
-0.18276617,0.53541976,-1.2406763,12.767037,11.7013855,18.06465
-0.2450522,0.5869232,-1.3075182,12.280874,9.327177,17.116344
-0.3215508,0.6443485,-1.3899478,11.727381,6.736751,16.215055
-0.4146684,0.7068615,-1.5085514,11.335617,3.6795902,15.116771
-0.49954933,0.7768617,-1.6384085,10.9490185,-0.31828162,13.543631
-0.55012333,0.8331914,-1.7447736,10.406863,-5.0047383,11.73211
-0.5529991,0.86723524,-1.8023745,9.484577,-9.844958,10.057111
-0.5175295,0.8777865,-1.818011,7.830225,-14.272566,9.196984
-0.5061745,0.8789303,-1.833139,5.7516537,-18.509895,8.900737
-0.51888555,0.8894086,-1.8648471,3.4304354,-22.790773,8.920309
-0.5260461,0.90888023,-1.8989971,1.3228786,-27.264084,8.296543
-0.50767803,0.9140191,-1.915316,-0.18784021,-31.654482,6.635342
-0.4570363,0.8912582,-1.8991566,-1.3270878,-35.567192,4.5338607
-0.4021714,0.8388401,-1.8541659,-2.6543534,-38.998875,2.9857259
-0.3756951,0.7890157,-1.8226597,-4.046486,-42.224525,2.05526
-0.37485638,0.76541954,-1.8079349,-5.1984153,-45.50795,1.319514
-0.37300822,0.7697711,-1.8001496,-6.279035,-48.97961,0.39646634
-0.3449192,0.7837442,-1.7905099,-7.4458323,-52.719727,-1.0756193
-0.26731667,0.7584067,-1.7546086,-8.76114,-56.405727,-2.5907497
-0.16967222,0.69741154,-1.6968993,-10.143664,-59.658653,-3.743842
-0.072718166,0.6266655,-1.6375768,-11.610424,-62.580566,-4.3801637
0.019497901,0.55995077,-1.5846171,-12.984732,-65.36384,-4.7802277
0.118967265,0.48818034,-1.5267606,-13.182081,-67.91744,-5.981806
0.24076673,0.4222827,-1.4383695,-13.050295,-70.16089,-7.2714167
0.36694255,0.35815698,-1.333155,-13.232091,-72.14238,-8.109617
0.48913047,0.2878309,-1.2170639,-13.818619,-73.767204,-8.283617
0.6038639,0.22285268,-1.096414,-14.936359,-75.08879,-7.785996
0.7137896,0.1615814,-0.9720673,-16.322216,-75.84011,-6.9529567
0.8061854,0.083551176,-0.85598475,-16.725834,-76.045044,-6.955021
0.8883591,0.007978802,-0.74043393,-16.170767,-75.74004,-7.66267
0.9601677,-0.053999864,-0.6231158,-15.1679535,-75.09763,-8.574939
1.031654,-0.1001305,-0.497838,-14.328202,-74.166595,-9.103959
1.0970211,-0.12897938,-0.37440607,-13.977995,-72.9294,-9.149394
1.1577747,-0.15542342,-0.25591332,-13.842687,-71.4376,-9.063839
1.2172139,-0.19046389,-0.14292017,-13.702076,-69.5316,-8.906649
1.2680777,-0.22602761,-0.038715973,-13.474467,-67.262535,-8.702959
1.3058633,-0.25704342,0.05313945,-13.215897,-64.74087,-8.499948
1.3341027,-0.28381094,0.13300496,-13.056847,-61.89838,-8.238563
1.3551872,-0.30855426,0.20200753,-13.017016,-58.86509,-7.96634
1.37427,-0.33205464,0.26629102,-13.166886,-55.675507,-7.6854897
1.3997722,-0.35915413,0.3275325,-13.220717,-52.20701,-7.683728
1.3561232,-0.34795466,0.31731907,-12.808456,-50.579037,-7.4441266
1.3138399,-0.3371056,0.30742523,-12.409095,-49.00201,-7.2120223
1.2728792,-0.3265959,0.29784086,-12.022225,-47.474308,-6.9871783
1.2331995,-0.31641483,0.2885562,-11.647454,-45.99438,-6.7693653
1.1947602,-0.30655208,0.2795618,-11.284398,-44.56072,-6.5583615
1.1575222,-0.29699755,0.27084848,-10.93269,-43.171864,-6.3539524
1.1214478,-0.28774157,0.26240742,-10.59197,-41.826405,-6.1559305
1.0865004,-0.2787747,0.25423008,-10.261894,-40.522972,-5.964094
1.0526444,-0.27008793,0.2463081,-9.942127,-39.260254,-5.7782493
1.0198455,-0.26167238,0.2386335,-9.632345,-38.03696,-5.5982075
0.98807055,-0.25351956,0.23119849,-9.332234,-36.85186,-5.423786
0.95728743,-0.24562122,0.22399557,-9.041491,-35.703747,-5.2548094
0.927465,-0.23796937,0.21701741,-8.759821,-34.59147,-5.0911064
0.89857316,-0.23055628,0.21025701,-8.486939,-33.513893,-4.932511
0.8705827,-0.22337447,0.20370753,-8.222572,-32.46994,-4.778864
0.8434653,-0.21641669,0.19736235,-7.9664516,-31.45855,-4.630009
0.8171938,-0.20967592,0.19121507,-7.718319,-30.478704,-4.485798
0.79174155,-0.20314538,0.1852595,-7.4779253,-29.529417,-4.3460836
0.767083,-0.19681847,0.17948964,-7.245027,-28.609732,-4.210726
0.7431932,-0.19068883,0.17389968,-7.0193906,-27.718721,-4.0795884
0.72004825,-0.18475029,0.168484,-6.800789,-26.855488,-3.9525397
0.6976248,-0.17899686,0.16323714,-6.589001,-26.019165,-3.829451
0.6759003,-0.17342277,0.15815382,-6.383815,-25.20891,-3.7101994
0.6548528,-0.16802241,0.15322892,-6.185024,-24.423908,-3.5946643
0.63446134,-0.16279036,0.14845753,-5.9924283,-23.66337,-3.48273
0.6147053,-0.15772134,0.14383481,-5.8058343,-22.926533,-3.3742836
0.59556484,-0.15281028,0.13935614,-5.6250544,-22.212656,-3.2692165
0.5770208,-0.14805225,0.13501702,-5.449908,-21.521023,-3.1674232
0.5590545,-0.14344244,0.13081309,-5.2802176,-20.850939,-3.0688014
0.541648,-0.13897626,0.12674013,-5.1158147,-20.201729,-2.973252
0.5247837,-0.13464922,0.12279406,-4.956533,-19.572746,-2.8806794
0.5084447,-0.13045695,0.11897091,-4.8022127,-18.963356,-2.7909906
0.49261472,-0.12639529,0.11526685,-4.6527,-18.372948,-2.7040954
0.4772778,-0.12246014,0.11167817,-4.5078444,-17.80093,-2.619907
0.4624186,-0.11864755,0.108201265,-4.3675003,-17.246729,-2.5383406
0.44802216,-0.11495371,0.10483265,-4.2315273,-16.709787,-2.4593148
0.4340741,-0.11137492,0.101568945,-4.0997896,-16.189571,-2.3827503
0.42056045,-0.10790758,0.09840689,-3.9721544,-15.6855545,-2.3085701
0.40746766,-0.10454822,0.0953433,-3.8484938,-15.197235,-2.2367
0.39478257,-0.101293474,0.09237512,-3.7286847,-14.724122,-2.1670682
0.3824925,-0.09814009,0.08949937,-3.612606,-14.265742,-2.0996048
0.37058517,-0.0950849,0.08671317,-3.5001423,-13.821636,-2.0342422
0.3590486,-0.09212484,0.08401374,-3.3911805,-13.391359,-1.9709148
0.34787127,-0.08925696,0.08139835,-3.2856116,-12.974481,-1.9095594
0.33704194,-0.08647837,0.0788644,-3.1833298,-12.570582,-1.8501145
0.32654983,-0.083786294,0.076409355,-3.0842328,-12.17926,-1.7925204
0.3163844,-0.08117805,0.07403075,-2.9882212,-11.800122,-1.7367196
0.30653548,-0.078651,0.0717262,-2.895199,-11.43279,-1.6826562
0.29699323,-0.076202646,0.069493406,-2.8050733,-11.076893,-1.6302761
0.28774804,-0.073830515,0.06733012,-2.7177534,-10.732078,-1.5795268
0.2787907,-0.071532235,0.0652342,-2.6331522,-10.397998,-1.5303575
0.27011225,-0.06930551,0.06320353,-2.551185,-10.074319,-1.4827191
0.26170397,-0.06714811,0.061236072,-2.4717696,-9.760717,-1.4365637
0.25355744,-0.06505788,0.059329875,-2.3948264,-9.456879,-1.3918455
0.24566457,-0.06303272,0.05748302,-2.320279,-9.162499,-1.3485192
0.23801741,-0.061070606,0.055693664,-2.2480521,-8.877285,-1.3065419
0.23060831,-0.05916958,0.05396001,-2.1780741,-8.600949,-1.2658714
0.22342989,-0.057327732,0.05228033,-2.1102743,-8.333218,-1.226467
0.21647492,-0.055543225,0.05065294,-2.0445855,-8.073819,-1.1882894
0.20973648,-0.053814273,0.04907621,-1.9809414,-7.822497,-1.1513002
0.2032078,-0.05213914,0.047548566,-1.9192787,-7.5789986,-1.1154625
0.19688237,-0.05051616,0.04606848,-1.8595356,-7.34308,-1.0807406
0.19075385,-0.048943702,0.044634465,-1.8016522,-7.114506,-1.0470994
0.18481609,-0.047420193,0.043245096,-1.7455708,-6.893047,-1.0145055
0.1790632,-0.04594411,0.041898973,-1.6912352,-6.678482,-0.9829263
0.17348938,-0.044513978,0.040594757,-1.638591,-6.470597,-0.9523301
0.16808908,-0.043128364,0.039331138,-1.5875856,-6.2691827,-0.92268634
0.16285688,-0.041785885,0.03810686,-1.538168,-6.0740385,-0.8939654
0.15778755,-0.040485196,0.03692069,-1.4902886,-5.8849688,-0.8661385
0.15287602,-0.039224993,0.03577144,-1.4438998,-5.7017846,-0.83917785
