ax,ay,az,gx,gy,gz
-3.2845752,6.6164236,-4.363676,-34.235767,-55.764145,-47.829525
-3.0989554,6.6033573,-4.534882,-41.683056,-65.63313,-53.859917
-2.9015155,6.293972,-4.5291033,-43.656937,-74.34467,-58.525814
-2.659764,6.1928735,-4.425524,-47.91122,-80.36531,-65.550125
-2.4776955,6.224862,-4.517169,-53.16213,-87.2211,-74.462105
-2.2973619,6.1576962,-4.6564837,-59.212418,-95.46298,-84.6235
-1.9763167,5.903685,-4.661838,-65.07403,-102.797455,-92.25933
-1.5217441,5.5586467,-4.5426016,-69.41389,-106.61537,-97.025665
-1.1387401,5.1801505,-4.485422,-71.29219,-109.855644,-101.700905
-0.76245666,4.7201896,-4.4648013,-71.73337,-114.2896,-106.96558
-0.28381863,4.200442,-4.341137,-71.1568,-118.71583,-111.70494
0.29838884,3.6365314,-4.1101484,-70.768524,-121.56036,-114.175476
0.882851,3.0576873,-3.828592,-72.20963,-122.85382,-113.14474
1.4136283,2.4534483,-3.5300572,-75.00433,-122.05273,-109.049446
1.8316035,1.7644229,-3.241264,-75.95848,-120.53514,-105.54719
2.182514,1.0781475,-2.9507723,-74.05364,-118.49418,-102.97365
2.517429,0.42693532,-2.6399362,-69.973885,-116.03223,-100.48566
2.8834486,-0.1859475,-2.2823875,-64.61819,-112.540405,-97.07795
3.2793694,-0.7337825,-1.887754,-59.064114,-106.446915,-91.66631
3.0964255,-0.69284743,-1.7824433,-55.769146,-100.50864,-86.55259
2.9300394,-0.65561736,-1.6866639,-52.7724,-95.10781,-81.901695
2.7779868,-0.6215945,-1.5991354,-50.033806,-90.17225,-77.65145
2.6384284,-0.5903673,-1.5187993,-47.52025,-85.64225,-73.750465
2.509832,-0.5615929,-1.4447732,-45.204117,-81.468056,-70.155876
2.3909082,-0.5349829,-1.3763155,-43.062206,-77.60785,-66.83167
2.2805674,-0.51029336,-1.3127983,-41.07488,-74.02624,-63.74738
2.17788,-0.4873163,-1.2536868,-39.225395,-70.69305,-60.877018
2.0820494,-0.46587348,-1.1985222,-37.499405,-67.58242,-58.19832
1.9923881,-0.44581115,-1.1469091,-35.884537,-64.67206,-55.69207
1.908301,-0.42699605,-1.0985048,-34.370056,-61.942623,-53.341633
1.8292688,-0.40931204,-1.0530102,-32.946625,-59.377277,-51.132492
1.7548375,-0.39265752,-1.0101643,-31.606054,-56.96127,-49.051956
1.6846077,-0.37694308,-0.9697368,-30.34116,-54.68164,-47.088867
1.618227,-0.36208993,-0.93152505,-29.145588,-52.52695,-45.233364
1.555383,-0.3480281,-0.8953491,-28.013714,-50.487057,-43.47672
1.4957976,-0.33469546,-0.86104906,-26.940535,-48.552944,-41.81116
1.4392229,-0.32203647,-0.82848215,-25.92158,-46.716557,-40.229767
1.385437,-0.3100015,-0.7975205,-24.95285,-44.970688,-38.72632
1.3342402,-0.29854584,-0.7680493,-24.030754,-43.30886,-37.295246
1.2854527,-0.28762928,-0.739965,-23.152052,-41.725243,-35.931515
1.2389121,-0.27721548,-0.7131741,-22.313816,-40.21455,-34.630592
1.194471,-0.2672715,-0.6875918,-21.513397,-38.772015,-33.388355
1.1519958,-0.25776732,-0.66314113,-20.748383,-37.393284,-32.20107
1.1113644,-0.24867576,-0.63975185,-20.016579,-36.074406,-31.065323
1.0724655,-0.23997188,-0.61735994,-19.315979,-34.811768,-29.978008
1.0351975,-0.23163287,-0.59590673,-18.64475,-33.602062,-28.936275
0.99946666,-0.22363785,-0.5753384,-18.00121,-32.442257,-27.937511
0.96518713,-0.21596755,-0.5556056,-17.383806,-31.329557,-26.979317
0.93227965,-0.20860428,-0.5366625,-16.791117,-30.261395,-26.059473
0.9006712,-0.20153165,-0.51846725,-16.221823,-29.235397,-25.17594
0.870294,-0.19473453,-0.50098073,-15.674704,-28.249367,-24.326822
0.8410854,-0.1881989,-0.48416695,-15.148633,-27.301268,-23.510372
0.8129871,-0.18191169,-0.4679923,-14.64256,-26.38921,-22.724957
0.78594494,-0.17586082,-0.45242563,-14.155509,-25.511433,-21.969063
0.75990844,-0.17003497,-0.43743783,-13.68657,-24.6663,-21.24128
0.7348304,-0.16442358,-0.42300177,-13.234895,-23.852276,-20.540287
0.7106667,-0.15901679,-0.40909207,-12.799687,-23.067934,-19.864855
0.68737614,-0.15380535,-0.39568496,-12.380205,-22.311934,-19.213827
0.6649199,-0.1487806,-0.3827581,-11.97575,-21.583014,-18.58612
0.6432616,-0.1439344,-0.3702906,-11.585666,-20.879993,-17.980719
0.62236696,-0.13925909,-0.35826272,-11.209337,-20.201763,-17.396664
0.60220385,-0.13474743,-0.3466559,-10.846182,-19.547276,-16.833055
0.5827417,-0.13039264,-0.3354526,-10.495653,-18.915543,-16.289042
0.56395185,-0.12618828,-0.3246363,-10.157232,-18.305634,-15.763819
0.54580706,-0.122128256,-0.31419137,-9.830431,-17.716661,-15.256629
0.52828175,-0.11820683,-0.30410296,-9.514785,-17.147797,-14.766752
0.51135135,-0.11441854,-0.29435706,-9.209854,-16.598244,-14.293508
0.49499282,-0.1107582,-0.28494036,-8.915224,-16.067253,-13.836247
0.47918415,-0.107220896,-0.27584016,-8.630497,-15.554111,-13.394357
0.46390447,-0.10380196,-0.26704448,-8.355298,-15.058139,-12.967253
0.44913384,-0.100496925,-0.25854185,-8.089267,-14.578691,-12.5543785
0.43485337,-0.097301565,-0.25032136,-7.8320637,-14.115152,-12.155204
0.42104495,-0.09421183,-0.2423726,-7.5833626,-13.666937,-11.769225
0.40769133,-0.091223866,-0.23468566,-7.342853,-13.233484,-11.39596
0.39477608,-0.08833398,-0.22725105,-7.110239,-12.8142605,-11.034946
0.38228342,-0.08553866,-0.22005972,-6.8852363,-12.408755,-10.685747
0.37019834,-0.08283454,-0.213103,-6.667574,-12.016479,-10.3479395
0.3585064,-0.08021839,-0.20637259,-6.456993,-11.636964,-10.021122
0.34719384,-0.077687114,-0.19986056,-6.2532444,-11.269762,-9.704908
0.3362474,-0.07523777,-0.19355929,-6.05609,-10.914445,-9.398929
0.32565442,-0.07286751,-0.18746148,-5.865301,-10.570601,-9.102829
0.3154027,-0.07057362,-0.18156011,-5.68066,-10.237835,-8.816269
0.30548057,-0.068353474,-0.1758485,-5.501954,-9.915768,-8.538921
0.29587683,-0.06620457,-0.17032015,-5.328983,-9.604034,-8.2704735
0.28658068,-0.06412449,-0.16496886,-5.161552,-9.302285,-8.010624
0.27758178,-0.062110916,-0.15978868,-4.999474,-9.010184,-7.759083
0.26887012,-0.06016162,-0.15477386,-4.8425703,-8.727408,-7.5155706
0.26043615,-0.058274455,-0.14991887,-4.690667,-8.453645,-7.2798204
0.25227058,-0.056447353,-0.1452184,-4.5435987,-8.188594,-7.0515733
0.24436454,-0.054678325,-0.14066733,-4.4012046,-7.9319677,-6.8305807
0.23670949,-0.052965447,-0.13626073,-4.263331,-7.683488,-6.6166034
0.22929715,-0.05130688,-0.13199386,-4.1298285,-7.442886,-6.40941
0.22211954,-0.049700845,-0.12786211,-4.000554,-7.209904,-6.208779
0.21516903,-0.048145615,-0.12386107,-3.8753695,-6.9842935,-6.014495
0.20843819,-0.04663954,-0.11998649,-3.7541416,-6.7658134,-5.8263516
0.20191987,-0.04518102,-0.11623426,-3.6367416,-6.5542316,-5.6441493
0.19560722,-0.043768518,-0.1126004,-3.5230453,-6.3493257,-5.4676948
0.18949354,-0.042400543,-0.10908109,-3.412933,-6.1508784,-5.296803
0.18357244,-0.041075654,-0.10567264,-3.3062894,-5.958682,-5.1312943
0.17783771,-0.039792467,-0.10237147,-3.2030022,-5.7725353,-4.9709945
0.17228337,-0.038549643,-0.09917414,-3.102964,-5.5922437,-4.8157372
0.16690363,-0.037345886,-0.096077316,-3.0060704,-5.4176197,-4.6653605
0.16169289,-0.036179945,-0.09307777,-2.9122207,-5.2484813,-4.5197077
0.15664576,-0.035050612,-0.09017242,-2.8213177,-5.0846534,-4.378628
0.151757,-0.03395672,-0.08735823,-2.7332673,-4.9259667,-4.241976
0.14702159,-0.032897137,-0.08463231,-2.6479788,-4.7722573,-4.1096096
0.14243464,-0.031870775,-0.08199185,-2.5653641,-4.623367,-3.981393
0.13799143,-0.030876575,-0.07943414,-2.4853382,-4.479142,-3.8571947
0.1336874,-0.029913517,-0.07695655,-2.407819,-4.3394356,-3.7368865
0.12951814,-0.028980615,-0.07455653,-2.3327274,-4.204103,-3.6203456
0.12547939,-0.028076913,-0.072231635,-2.259986,-4.0730066,-3.5074525
0.121566996,-0.027201489,-0.06997949,-2.1895208,-3.9460123,-3.3980918
0.11777699,-0.026353449,-0.06779779,-2.1212597,-3.8229902,-3.292152
0.1141055,-0.025531925,-0.06568431,-2.055133,-3.7038152,-3.189525
0.11054879,-0.024736086,-0.06363691,-1.9910738,-3.588366,-3.0901062
0.107103236,-0.023965118,-0.06165349,-1.9290166,-3.4765248,-2.9937947
0.103765346,-0.02321824,-0.059732046,-1.8688984,-3.3681781,-2.9004924
0.10053172,-0.022494694,-0.057870626,-1.8106582,-3.2632163,-2.8101048
0.09739909,-0.021793745,-0.056067344,-1.754237,-3.1615324,-2.7225404
0.09436428,-0.021114685,-0.054320365,-1.6995776,-3.0630236,-2.6377099
0.091424204,-0.020456823,-0.05262793,-1.6466244,-2.9675903,-2.555528
0.08857591,-0.019819496,-0.050988317,-1.5953243,-2.8751357,-2.475911
0.085816495,-0.019202057,-0.049399875,-1.5456251,-2.7855663,-2.398779
0.08314319,-0.018603886,-0.047861,-1.4974767,-2.698792,-2.3240535
0.080553286,-0.018024378,-0.046370134,-1.4508303,-2.6147249,-2.2516594
0.078044176,-0.017462945,-0.044925775,-1.4056392,-2.5332801,-2.1815236
0.07561332,-0.016919024,-0.043526463,-1.3618575,-2.4543757,-2.1135752
0.07325827,-0.016392065,-0.042170793,-1.3194412,-2.3779318,-2.0477462
0.07097667,-0.015881538,-0.040857393,-1.2783476,-2.3038719,-1.9839696
0.06876619,-0.01538693,-0.039584946,-1.2385352,-2.232121,-1.9221816
0.066624634,-0.014907741,-0.03835217,-1.199964,-2.162607,-1.8623198
0.06454984,-0.01444349,-0.03715782,-1.1625952,-2.09526,-1.8043242
0.06253971,-0.013993709,-0.0360007,-1.1263912,-2.030012,-1.7481363
0.060592234,-0.013557947,-0.034879643,-1.0913155,-1.9667977,-1.6936996
0.05870545,-0.013135766,-0.033793524,-1.057333,-1.9055535,-1.6409594
0.05687746,-0.012726741,-0.032741252,-1.0244094,-1.8462178,-1.5898627
0.055106435,-0.01233046,-0.031721767,-0.9925118,-1.7887311,-1.5403582
0.05339059,-0.011946528,-0.03073405,-0.96160805,-1.7330354,-1.4923962
0.051728204,-0.011574557,-0.029777106,-0.93166715,-1.6790751,-1.4459286
0.050117612,-0.011214175,-0.028849974,-0.90265906,-1.626796,-1.4009085
0.048557192,-0.010865021,-0.027951727,-0.8745546,-1.5761454,-1.357291
0.04704538,-0.010526742,-0.02708146,-0.8473257,-1.5270727,-1.3150322
0.045580663,-0.010199001,-0.0262383,-0.8209449,-1.4795285,-1.2740898
0.04416157,-0.009881468,-0.025421405,-0.79538584,-1.4334654,-1.2344227
0.042786673,-0.009573826,-0.024629954,-0.77062285,-1.388837,-1.195991
0.041454602,-0.009275765,-0.023863152,-0.74663115,-1.3455985,-1.1587565
0.040164016,-0.008986987,-0.023120234,-0.7233867,-1.3037066,-1.1226815
0.038913626,-0.008707203,-0.02240045,-0.7008661,-1.2631195,-1.08773
0.037702173,-0.008436132,-0.021703085,-0.67904687,-1.2237962,-1.053867
0.03652845,-0.008173503,-0.021027435,-0.6579071,-1.1856977,-1.0210586
0.035391275,-0.007919052,-0.020372825,-0.63742566,-1.1487855,-0.98927176
0.03428951,-0.007672524,-0.0197386,-0.617582,-1.1130227,-0.9584748
0.033222053,-0.0074336734,-0.019124124,-0.5983563,-1.0783736,-0.92863685
0.032187838,-0.0072022597,-0.018528782,-0.5797292,-1.0448033,-0.89972794
0.031185823,-0.006978052,-0.017951977,-0.5616821,-1.0122783,-0.87171924
0.030215008,-0.0067608254,-0.017393133,-0.54419696,-0.9807661,-0.8445826
0.029274423,-0.0065503623,-0.016851688,-0.5272562,-0.95023507,-0.81829095
0.028363122,-0.006346452,-0.016327102,-0.5108429,-0.92065465,-0.7928179
0.027480192,-0.0061488906,-0.015818847,-0.49494067,-0.8919952,-0.76813793
0.026624754,-0.00595748,-0.015326419,-0.47953355,-0.864228,-0.74422634
0.02579595,-0.005772029,-0.014849321,-0.46460608,-0.8373254,-0.72105926
0.024992948,-0.005592352,-0.014387077,-0.4501434,-0.81126034,-0.6986134
0.024214948,-0.0054182685,-0.013939224,-0.43613094,-0.78600675,-0.6768664
0.023461169,-0.005249605,-0.0135053145,-0.42255476,-0.7615394,-0.6557964
0.022730855,-0.005086192,-0.013084914,-0.40940124,-0.73783374,-0.6353824
0.02202328,-0.0049278666,-0.0126776,-0.3966572,-0.7148661,-0.6156039
0.02133773,-0.0047744703,-0.012282968,-0.38430992,-0.6926135,-0.5964412
0.020673525,-0.0046258494,-0.01190062,-0.37234703,-0.67105365,-0.577875
0.020029996,-0.0044818553,-0.011530176,-0.36075655,-0.65016496,-0.5598868
0.0194065,-0.0043423437,-0.011171264,-0.34952688,-0.6299266,-0.54245865
0.018802414,-0.004207175,-0.010823525,-0.3386468,-0.61031824,-0.525573
0.018217135,-0.0040762145,-0.01048661,-0.32810545,-0.59132034,-0.50921303
0.017650075,-0.003949331,-0.010160184,-0.31789222,-0.57291377,-0.4933623
0.017100668,-0.003826397,-0.009843921,-0.30799696,-0.55508024,-0.47800502
0.016568363,-0.0037072902,-0.009537502,-0.2984097,-0.53780186,-0.46312582
0.016052628,-0.003591891,-0.009240623,-0.2891209,-0.52106136,-0.44870982
0.015552948,-0.003480084,-0.008952984,-0.28012127,-0.504842,-0.43474254
0.0150688235,-0.0033717575,-0.008674299,-0.2714018,-0.4891275,-0.42121008
0.014599768,-0.0032668032,-0.00840429,-0.26295373,-0.47390217,-0.40809888
0.014145316,-0.0031651158,-0.008142686,-0.25476867,-0.45915082,-0.3953958
