ax,ay,az,gx,gy,gz
-5.968236,6.611878,-5.9946,14.92559,-17.644707,-3.4954863
-6.316421,7.6134696,-6.0476785,-13.299166,-34.8291,-12.270348
-6.090715,7.64725,-5.891693,-26.378607,-46.769405,-20.37653
-5.781593,7.436165,-5.738029,-32.80074,-57.359196,-26.011871
-5.4178376,7.2086363,-5.5774145,-37.504612,-66.26149,-30.092224
-5.010594,7.0395656,-5.362375,-42.873333,-72.44692,-34.404854
-4.5796156,6.9137425,-5.186481,-47.65208,-77.029335,-39.61699
-4.244639,6.783334,-5.1541247,-50.208237,-82.06811,-45.66804
-3.9443917,6.670084,-5.156809,-52.193977,-87.63585,-52.171616
-3.626923,6.5550637,-5.179851,-54.6677,-93.009026,-59.435226
-3.2895536,6.387255,-5.225197,-57.766613,-98.78826,-66.82606
-2.8276389,6.0954328,-5.2536964,-61.339935,-104.65897,-73.299774
-2.2644987,5.6899962,-5.2038574,-64.9803,-110.07678,-78.43766
-1.5815222,5.20465,-5.055674,-68.58348,-114.22128,-82.386826
-0.84491384,4.585669,-4.84644,-70.79846,-116.62723,-85.64531
-0.082876354,3.8067224,-4.5568056,-70.9252,-118.25713,-87.49002
0.7919351,2.928805,-4.0765862,-71.65072,-117.96401,-86.97997
1.592095,2.028323,-3.5221438,-71.68064,-114.76229,-84.00648
2.2316914,1.1395293,-2.9820867,-69.71522,-109.30905,-79.627045
2.1071937,1.0759593,-2.815727,-65.826065,-103.211105,-75.184944
1.9939638,1.0181427,-2.6644244,-62.28891,-97.66507,-71.14489
1.8904883,0.9653068,-2.5261555,-59.05646,-92.596794,-67.452866
1.7955154,0.91681254,-2.3992486,-56.089634,-87.94499,-64.064224
1.7080022,0.8721272,-2.2823095,-53.35583,-83.65856,-60.941746
1.6270719,0.83080316,-2.1741667,-50.827667,-79.694565,-58.05414
1.5519823,0.7924614,-2.0738285,-48.481964,-76.01665,-55.37493
1.482101,0.75677913,-1.98045,-46.298958,-72.593834,-52.881557
1.4168857,0.72347945,-1.8933065,-44.26172,-69.399574,-50.55467
1.355869,0.6923236,-1.8117733,-42.355637,-66.41096,-48.377586
1.2986457,0.66310465,-1.7353089,-40.56805,-63.608135,-46.33585
1.2448624,0.63564223,-1.6634412,-38.887928,-60.97381,-44.416855
1.19421,0.6097785,-1.5957572,-37.305614,-58.49284,-42.609573
1.146417,0.5853748,-1.5318941,-35.81262,-56.151917,-40.90431
1.1012433,0.5623085,-1.4715308,-34.401447,-53.939293,-39.292503
1.0584763,0.54047114,-1.4143836,-33.06546,-51.84455,-37.766575
1.017927,0.5197662,-1.3601999,-31.798754,-49.858433,-36.31977
0.9794266,0.5001074,-1.308754,-30.596048,-47.972668,-34.94607
0.94282395,0.48141766,-1.2598438,-29.45263,-46.179855,-33.640083
0.9079833,0.46362755,-1.2132882,-28.36425,-44.473347,-32.39696
0.8747822,0.44667467,-1.1689234,-27.32709,-42.847145,-31.212343
0.84311014,0.43050253,-1.1266017,-26.337694,-41.295837,-30.082281
0.81286687,0.41505995,-1.0861894,-25.392935,-39.814514,-29.003199
0.7839614,0.40030044,-1.0475645,-24.489964,-38.398712,-27.971846
0.75631076,0.38618168,-1.0106165,-23.626192,-37.044373,-26.985268
0.7298392,0.37266496,-0.975244,-22.799253,-35.747787,-26.040758
0.7044773,0.3597149,-0.94135433,-22.00698,-34.505554,-25.135843
0.68016165,0.34729898,-0.9088626,-21.247389,-33.31456,-24.268257
0.6568335,0.33538738,-0.87769055,-20.51865,-32.171944,-23.435907
0.63443923,0.32395256,-0.8477663,-19.819078,-31.075062,-22.636875
0.61292887,0.3129691,-0.81902313,-19.147123,-30.021477,-21.869383
0.5922564,0.3024135,-0.7913997,-18.501343,-29.008934,-21.131788
0.57237923,0.29226395,-0.76483893,-17.880404,-28.035341,-20.422567
0.5532577,0.28250027,-0.73928785,-17.28307,-27.09876,-19.740307
0.5348548,0.27310354,-0.7146971,-16.708189,-26.197382,-19.08369
0.51713634,0.26405627,-0.6910209,-16.154686,-25.329525,-18.451492
0.50007015,0.25534204,-0.6682162,-15.621559,-24.493616,-17.842567
0.4836262,0.24694555,-0.6462431,-15.10787,-23.688185,-17.255846
0.46777636,0.23885243,-0.62506384,-14.612742,-22.911854,-16.690323
0.45249432,0.23104924,-0.6046433,-14.135351,-22.163336,-16.145058
0.43775532,0.22352332,-0.58494836,-13.674923,-21.441414,-15.619167
0.42353603,0.21626277,-0.5659479,-13.23073,-20.744947,-15.111821
0.4098145,0.20925638,-0.5476126,-12.802087,-20.072863,-14.622235
0.39657006,0.2024936,-0.52991474,-12.388347,-19.424143,-14.149672
0.38378307,0.19596441,-0.51282823,-11.988898,-18.797834,-13.693431
0.37143514,0.1896594,-0.49632835,-11.603164,-18.193027,-13.252854
0.3595087,0.18356961,-0.4803917,-11.2305975,-17.608866,-12.827317
0.34798715,0.17768657,-0.4649961,-10.870679,-17.044537,-12.416227
0.3368548,0.17200224,-0.4501205,-10.522918,-16.499268,-12.019023
0.3260966,0.16650897,-0.43574494,-10.186846,-15.972328,-11.635169
0.3156984,0.16119952,-0.4218504,-9.862019,-15.463021,-11.26416
0.30564663,0.15606697,-0.40841877,-9.548015,-14.970682,-10.905512
0.29592842,0.15110472,-0.39543286,-9.24443,-14.494679,-10.558764
0.28653142,0.14630651,-0.3828762,-8.95088,-14.034412,-10.223479
0.27744398,0.14166634,-0.37073314,-8.666999,-13.589306,-9.899238
0.26865482,0.1371785,-0.35898867,-8.392437,-13.15881,-9.585639
0.26015326,0.13283749,-0.3476285,-8.12686,-12.742401,-9.282303
0.25192907,0.12863812,-0.336639,-7.869946,-12.339577,-8.988863
0.24397244,0.124575354,-0.32600695,-7.6213903,-11.949858,-8.704968
0.23627394,0.12064441,-0.31571987,-7.3808994,-11.5727825,-8.430285
0.22882462,0.1168407,-0.30576575,-7.148192,-11.207912,-8.164493
0.22161582,0.1131598,-0.29613304,-6.9229984,-10.854823,-7.907282
0.21463928,0.10959749,-0.28681067,-6.70506,-10.513109,-7.6583576
0.20788704,0.1061497,-0.277788,-6.494128,-10.182382,-7.4174366
0.20135146,0.10281256,-0.2690549,-6.289965,-9.862267,-7.1842465
0.1950252,0.09958229,-0.26060146,-6.092341,-9.552404,-6.9585247
0.18890122,0.09645531,-0.2524183,-5.9010353,-9.25245,-6.7400203
0.18297273,0.09342815,-0.2444964,-5.7158365,-8.96207,-6.528491
0.17723319,0.09049747,-0.23682697,-5.536541,-8.680945,-6.323704
0.17167632,0.08766007,-0.22940163,-5.3629513,-8.408769,-6.125434
0.16629608,0.084912844,-0.22221231,-5.1948795,-8.145242,-5.933466
0.16108662,0.08225284,-0.2152512,-5.0321426,-7.890081,-5.747592
0.15604234,0.07967716,-0.2085108,-4.8745656,-7.64301,-5.567611
0.15115781,0.07718306,-0.20198387,-4.7219787,-7.403764,-5.3933306
0.14642781,0.07476786,-0.19566344,-4.5742197,-7.1720867,-5.2245636
0.14184731,0.072429,-0.18954276,-4.4311304,-6.947732,-5.0611305
0.13741143,0.07016399,-0.18361534,-4.2925596,-6.7304616,-4.9028583
0.13311552,0.06797044,-0.17787494,-4.1583605,-6.5200458,-4.749579
0.128955,0.06584603,-0.1723155,-4.0283914,-6.3162627,-4.601132
0.12492556,0.06378854,-0.16693115,-3.9025166,-6.118899,-4.4573603
0.12102294,0.061795816,-0.1617163,-3.7806036,-5.927747,-4.3181143
0.11724307,0.05986577,-0.15666547,-3.6625252,-5.7426076,-4.183248
0.11358202,0.057996392,-0.15177341,-3.5481586,-5.563288,-4.0526214
0.110035986,0.05618574,-0.14703503,-3.437385,-5.389602,-3.9260983
0.10660128,0.05443194,-0.14244543,-3.3300893,-5.2213693,-3.8035479
0.10327437,0.05273318,-0.13799986,-3.2261608,-5.058416,-3.684843
0.100051805,0.051087696,-0.13369372,-3.125492,-4.9005737,-3.5698617
0.09693027,0.049493805,-0.12952259,-3.0279791,-4.7476797,-3.458485
0.09390656,0.047949858,-0.12548217,-2.9335222,-4.599577,-3.3505986
0.090977564,0.046454277,-0.121568315,-2.842024,-4.456114,-3.2460914
0.08814028,0.045005523,-0.11777701,-2.753391,-4.3171425,-3.1448567
0.085391805,0.043602116,-0.114104375,-2.667532,-4.1825213,-3.0467908
0.08272933,0.042242624,-0.110546656,-2.5843596,-4.0521126,-2.9517934
0.080150135,0.040925656,-0.107100226,-2.503789,-3.9257827,-2.8597674
0.0776516,0.03964987,-0.10376156,-2.4257379,-3.8034031,-2.7706192
0.075231165,0.03841397,-0.10052727,-2.3501265,-3.6848497,-2.684258
0.072886385,0.037216693,-0.09739407,-2.2768786,-3.5700014,-2.6005957
0.07061487,0.036056828,-0.094358765,-2.2059193,-3.4587417,-2.5195477
0.06841431,0.034933195,-0.09141828,-2.1371765,-3.3509574,-2.4410315
0.06628247,0.033844657,-0.088569626,-2.0705807,-3.2465394,-2.3649673
0.06421721,0.032790106,-0.08580992,-2.0060644,-3.145382,-2.2912784
0.06221642,0.03176848,-0.08313638,-1.9435623,-3.0473826,-2.21989
0.06027808,0.030778738,-0.08054629,-1.8830111,-2.9524422,-2.15073
0.058400236,0.029819887,-0.07803702,-1.8243495,-2.8604646,-2.083728
0.056580987,0.028890954,-0.07560606,-1.7675184,-2.771357,-2.018817
0.054818492,0.027991004,-0.073250934,-1.7124604,-2.6850295,-1.9559311
0.05311098,0.027119126,-0.07096928,-1.6591198,-2.601395,-1.8950067
0.051456723,0.026274443,-0.06875879,-1.607443,-2.5203688,-1.8359827
0.049854055,0.0254561,-0.066617236,-1.5573777,-2.4418697,-1.7787993
0.048301365,0.024663277,-0.06454246,-1.5088736,-2.3658183,-1.723399
0.046797086,0.023895174,-0.06253237,-1.4618818,-2.292138,-1.6697261
0.045339704,0.023151016,-0.06058495,-1.416355,-2.2207549,-1.6177266
0.04392775,0.022430057,-0.05869824,-1.3722475,-2.151597,-1.5673479
0.04255981,0.021731569,-0.056870334,-1.3295146,-2.0845947,-1.5185397
0.041234504,0.02105485,-0.0550994,-1.2881137,-2.0196807,-1.4712526
0.0399505,0.020399222,-0.05338366,-1.2480031,-1.9567899,-1.4254391
0.03870651,0.019764025,-0.051721383,-1.2091424,-1.8958588,-1.3810533
0.037501283,0.019148622,-0.050110903,-1.1714927,-1.8368263,-1.3380507
0.03633361,0.018552393,-0.048550606,-1.135016,-1.7796333,-1.2963879
0.035202313,0.01797474,-0.047038916,-1.0996758,-1.7242221,-1.2560232
0.034106266,0.017415084,-0.04557433,-1.0654366,-1.6705372,-1.2169161
0.03304436,0.016872862,-0.044155363,-1.0322641,-1.6185248,-1.1790272
0.032015536,0.016347531,-0.042780604,-1.0001249,-1.5681325,-1.1423186
0.031018762,0.015838565,-0.041448664,-0.96898687,-1.5193101,-1.1067535
0.030053033,0.015345452,-0.040158216,-0.93881875,-1.4720083,-1.0722961
0.029117383,0.014867698,-0.03890796,-0.90959024,-1.4261799,-1.038912
0.028210875,0.014404824,-0.03769664,-0.8812721,-1.3817788,-1.0065677
0.0273326,0.013956365,-0.03652305,-0.8538359,-1.3387606,-0.97523075
0.026481679,0.013521874,-0.03538601,-0.8272541,-1.2970821,-0.94486976
0.025657255,0.013100914,-0.03428438,-0.8015002,-1.2567016,-0.91545427
0.024858506,0.012693062,-0.033217058,-0.7765483,-1.2175786,-0.8869548
0.024084631,0.0122979125,-0.03218297,-0.75237346,-1.1796739,-0.8593428
0.023334853,0.011915067,-0.031181082,-0.72895133,-1.1429496,-0.83259064
0.022608424,0.011544143,-0.030210394,-0.7062586,-1.1073687,-0.80667156
0.021904614,0.011184769,-0.029269932,-0.68427247,-1.0728959,-0.7815595
0.02122272,0.0108365845,-0.028358754,-0.6629709,-1.0394964,-0.7572294
0.020562056,0.010499242,-0.027475946,-0.6423326,-1.007137,-0.7336569
0.019921964,0.0101724025,-0.026620625,-0.622337,-0.97578496,-0.7108183
0.0193018,0.00985574,-0.025791936,-0.60296386,-0.9454092,-0.6886908
0.018700946,0.009548936,-0.024989048,-0.58419394,-0.9159791,-0.66725224
0.0181188,0.009251685,-0.024211157,-0.5660084,-0.88746536,-0.64648116
0.017554779,0.008963688,-0.023457484,-0.5483891,-0.8598393,-0.6263568
0.017008316,0.0086846575,-0.022727277,-0.5313183,-0.83307344,-0.60685897
0.016478866,0.008414314,-0.022019804,-0.514779,-0.8071408,-0.5879682
0.015965901,0.008152388,-0.021334356,-0.4987546,-0.7820156,-0.5696655
0.015468906,0.007898616,-0.020670248,-0.48322907,-0.75767255,-0.5519326
0.014987382,0.0076527437,-0.020026816,-0.4681869,-0.7340874,-0.5347518
0.01452085,0.0074145263,-0.019403413,-0.45361298,-0.7112365,-0.5181058
0.014068841,0.007183725,-0.018799419,-0.43949282,-0.6890969,-0.5019781
0.013630904,0.006960109,-0.018214228,-0.4258122,-0.6676466,-0.48635244
0.0132066,0.0067434544,-0.017647253,-0.41255748,-0.646864,-0.47121322
0.012795505,0.006533544,-0.01709793,-0.3997154,-0.6267285,-0.4565453
0.012397207,0.0063301683,-0.016565707,-0.3872731,-0.6072197,-0.442334
0.012011309,0.0061331238,-0.016050052,-0.37521812,-0.5883182,-0.42856508
0.011637424,0.0059422133,-0.01555045,-0.3635384,-0.57000524,-0.41522482
0.011275178,0.005757246,-0.0150664,-0.3522223,-0.55226225,-0.40229982
0.010924208,0.0055780364,-0.014597419,-0.34125844,-0.5350716,-0.38977718
0.0105841635,0.0054044058,-0.014143036,-0.33063588,-0.51841617,-0.37764436
0.010254704,0.0052361796,-0.013702798,-0.320344,-0.5022791,-0.36588922
0.009935501,0.0050731907,-0.013276264,-0.3103725,-0.48664445,-0.3545
0.009626235,0.004915275,-0.012863008,-0.3007114,-0.47149643,-0.34346533
