ax,ay,az,gx,gy,gz
3.8763988,-0.09090992,5.8900537,-1.3872854,-101.3191,28.40935
4.8153253,-0.40113282,6.8138976,6.049547,-96.72401,26.098795
5.806047,-0.55136204,7.605687,5.534567,-82.19253,25.71203
6.740466,-0.53242326,8.393555,3.791153,-61.921837,26.604591
7.443185,-0.60021365,8.944921,7.0173035,-35.409416,25.124666
7.8355308,-0.7320737,9.141867,10.704369,-10.731988,23.683802
8.0031595,-0.8215532,9.098496,14.359847,11.271558,23.509274
7.9992437,-0.8368149,8.886562,16.80444,30.656172,24.528011
7.9133234,-0.84436816,8.529774,18.59319,47.884537,26.251265
7.801335,-0.8363848,8.069851,20.18724,64.43264,28.171906
7.636486,-0.7436333,7.500606,20.666933,80.21578,29.535038
7.440274,-0.64579487,6.859316,20.532282,95.500496,30.429478
7.174099,-0.54071313,6.1072493,21.151705,109.075195,30.549047
6.8158436,-0.42542255,5.2647614,22.473387,119.91602,29.900639
6.404339,-0.3087459,4.4176397,23.339798,127.48993,28.973429
5.97971,-0.16994804,3.58337,23.644402,132.71312,28.313175
5.563905,-0.009471365,2.7993853,23.266447,135.99475,27.595709
5.157584,0.16472311,2.0478582,22.147535,137.68631,26.536295
4.750161,0.32858926,1.3121965,20.776066,137.79317,25.165188
4.339677,0.48726836,0.59968317,19.739609,136.04097,23.2097
3.9025607,0.65700245,-0.09874576,18.882236,132.78453,20.775257
3.478554,0.8280464,-0.7546528,18.117716,127.77202,17.837864
3.0819037,1.0042259,-1.3694226,16.953032,121.322464,14.663533
2.7056854,1.1626195,-1.9475545,15.481182,113.37443,11.271456
2.3532176,1.2900505,-2.4799242,13.382578,103.42719,7.7990613
2.0319564,1.3837792,-2.9657042,11.246722,92.609215,4.29843
1.7437396,1.4543917,-3.4070284,9.165581,80.95582,0.70254403
1.4991888,1.5024245,-3.7984679,7.3012843,68.721596,-3.0184526
1.3101732,1.5442643,-4.137705,5.5175657,55.91088,-6.8810062
1.1839753,1.5719813,-4.409597,3.3424208,42.108883,-11.0985155
1.1537849,1.5374006,-4.567653,1.0402311,28.193768,-15.244458
1.2078694,1.440585,-4.6193423,-1.2719766,14.909887,-19.221066
1.3489475,1.269193,-4.538847,-2.9822206,3.0231934,-22.623901
1.5720172,1.0664505,-4.315667,-4.035961,-7.105723,-25.229355
1.8423092,0.8455385,-3.9729986,-4.6377134,-15.275178,-26.553503
2.1680782,0.61811495,-3.4922957,-4.76403,-22.261106,-27.425514
2.5692947,0.41791686,-2.8865597,-4.8608537,-27.875982,-28.16114
3.0558982,0.22882013,-2.1579812,-5.3110366,-31.41443,-28.481857
3.5777967,0.037887815,-1.3560531,-5.983146,-32.463894,-28.045109
4.0742574,-0.12690988,-0.5454983,-6.8177905,-30.08727,-26.758503
4.4678035,-0.25070027,0.16813315,-7.1454954,-25.46666,-25.263771
4.748322,-0.34383225,0.7350702,-6.90012,-19.038042,-23.888985
4.912135,-0.41755393,1.1306007,-6.277106,-11.522098,-22.716112
4.9783683,-0.47707087,1.3690429,-5.5369167,-3.5230076,-21.55109
4.9809804,-0.5224996,1.4834244,-4.834696,4.575053,-20.271244
4.9407406,-0.5505602,1.4792744,-4.0134273,12.344226,-19.023853
4.892255,-0.56855816,1.4133395,-3.1944525,19.797146,-17.74366
4.849374,-0.57563865,1.2906787,-2.6306148,27.07089,-16.316574
4.7918777,-0.581788,1.0999998,-2.2599878,34.003544,-14.761407
4.709562,-0.59159356,0.84659743,-1.8936499,40.20934,-13.253151
4.5989847,-0.5915061,0.5475511,-1.626002,45.70199,-11.813934
4.4696717,-0.5894754,0.22050665,-1.4976952,50.454838,-10.378869
4.31317,-0.58929247,-0.1286486,-1.4191318,54.464237,-8.990204
4.1308517,-0.58306265,-0.48583505,-1.4734453,57.691544,-7.7085524
3.9298048,-0.5700745,-0.84494424,-1.4044256,59.761574,-6.6322827
3.70758,-0.5427469,-1.1955858,-1.1505979,60.824825,-5.7688584
3.4766214,-0.4937591,-1.527162,-0.9000074,60.801647,-5.173741
3.242865,-0.43366158,-1.8335829,-0.7285068,59.581135,-4.7601557
3.0135949,-0.36836627,-2.108053,-0.54717445,57.271755,-4.630551
2.9154334,-0.35636753,-2.039388,-0.5293514,55.40625,-4.4797206
2.8207335,-0.34479192,-1.9731439,-0.5121569,53.60653,-4.334209
2.7293487,-0.3336215,-1.9092189,-0.49556425,51.869812,-4.1937914
2.6411412,-0.32283944,-1.8475164,-0.4795485,50.19347,-4.0582557
2.5559804,-0.31242985,-1.7879453,-0.46408603,48.57504,-3.9274015
2.4737437,-0.30237764,-1.7304194,-0.44915438,47.012173,-3.8010404
2.394314,-0.29266858,-1.6748573,-0.43473244,45.502655,-3.6789923
2.317581,-0.28328913,-1.6211814,-0.42080012,44.044384,-3.561088
2.2434397,-0.2742265,-1.5693185,-0.4073384,42.635372,-3.447166
2.1717906,-0.26546848,-1.519199,-0.3943292,41.27372,-3.3370733
2.102539,-0.25700352,-1.4707564,-0.38175526,39.957626,-3.2306645
2.0355947,-0.24882059,-1.4239279,-0.36960024,38.685387,-3.127801
1.9708717,-0.24090917,-1.3786533,-0.35784858,37.45536,-3.0283506
1.9082882,-0.2332593,-1.3348752,-0.34648538,36.265995,-2.9321876
1.8477662,-0.22586139,-1.2925391,-0.33549646,35.115807,-2.8391922
1.7892307,-0.21870632,-1.2515928,-0.32486826,34.003372,-2.7492492
1.7326107,-0.21178539,-1.2119862,-0.31458786,32.927338,-2.6622496
1.6778378,-0.20509024,-1.1736718,-0.30464283,31.88641,-2.5780883
1.6248469,-0.1986129,-1.136604,-0.29502133,30.879345,-2.4966648
1.5735754,-0.19234572,-1.1007386,-0.285712,29.904955,-2.4178832
1.5239631,-0.18628138,-1.0660342,-0.27670398,28.962103,-2.3416514
1.4759529,-0.18041284,-1.0324503,-0.2679868,28.049692,-2.267881
1.4294893,-0.17473339,-0.99994844,-0.25955048,27.166677,-2.1964872
1.3845196,-0.16923653,-0.9684915,-0.2513854,26.312054,-2.127389
1.3409929,-0.16391605,-0.9380439,-0.24348232,25.484852,-2.0605078
1.2988603,-0.15876597,-0.90857154,-0.23583236,24.684145,-1.9957688
1.2580749,-0.15378056,-0.88004154,-0.228427,23.909039,-1.9330997
1.2185913,-0.1489543,-0.85242224,-0.22125801,23.158674,-1.8724312
1.1803662,-0.14428186,-0.82568324,-0.21431753,22.432226,-1.8136963
1.1433576,-0.13975814,-0.7997952,-0.20759796,21.7289,-1.7568307
1.1075255,-0.1353782,-0.7747301,-0.20109195,21.047928,-1.7017726
1.0728307,-0.13113728,-0.75046057,-0.19479245,20.388573,-1.6484622
1.039236,-0.12703083,-0.72696054,-0.1886927,19.750122,-1.5968419
1.0067052,-0.12305444,-0.7042048,-0.18278614,19.131891,-1.5468566
0.9752035,-0.11920384,-0.68216896,-0.17706643,18.53322,-1.4984528
0.94469756,-0.115474954,-0.6608296,-0.17152749,17.95347,-1.4515786
0.9151549,-0.1118638,-0.640164,-0.16616346,17.392027,-1.4061847
0.88654417,-0.10836658,-0.62015045,-0.16096866,16.848297,-1.3622229
0.8588354,-0.104979604,-0.6007678,-0.15593761,16.321707,-1.3196468
0.83199936,-0.10169931,-0.5819956,-0.15106504,15.811703,-1.2784119
0.8060081,-0.09852226,-0.5638143,-0.14634582,15.317752,-1.2384748
0.7808343,-0.095445156,-0.54620486,-0.14177506,14.839337,-1.1997939
0.75645185,-0.09246477,-0.529149,-0.13734797,14.375962,-1.162329
0.7328354,-0.08957801,-0.512629,-0.13305996,13.927144,-1.126041
0.7099604,-0.0867819,-0.49662757,-0.12890658,13.492417,-1.0908924
0.6878033,-0.08407352,-0.48112836,-0.12488354,13.071333,-1.0568469
0.6663412,-0.081450105,-0.46611527,-0.120986685,12.663457,-1.023869
0.64555186,-0.07890893,-0.45157287,-0.117212005,12.268368,-0.99192524
0.6254141,-0.07644738,-0.43748617,-0.11355561,11.885659,-0.9609824
0.6059071,-0.07406295,-0.42384073,-0.110013746,11.514939,-0.9310088
0.58701086,-0.071753174,-0.41062257,-0.10658279,11.155827,-0.9019738
0.5687061,-0.0695157,-0.39781815,-0.10325922,10.807955,-0.87384754
0.55097413,-0.067348234,-0.38541436,-0.100039646,10.470968,-0.8466014
0.5337968,-0.065248564,-0.37339857,-0.09692079,10.144523,-0.82020754
0.51715666,-0.063214555,-0.36175853,-0.09389945,9.828285,-0.79463905
0.50103664,-0.061244134,-0.35048237,-0.090972565,9.521934,-0.7698698
0.4854205,-0.059335295,-0.33955866,-0.088137165,9.225157,-0.74587476
0.47029227,-0.0574861,-0.32897624,-0.08539035,8.937653,-0.7226294
0.45563665,-0.05569467,-0.31872442,-0.08272935,8.65913,-0.70011026
0.4414387,-0.053959187,-0.30879277,-0.080151446,8.389306,-0.67829436
0.42768413,-0.0522779,-0.29917124,-0.07765404,8.127908,-0.6571597
0.41435894,-0.0506491,-0.2898501,-0.07523461,7.8746696,-0.63668483
0.40144968,-0.049071137,-0.28081986,-0.07289069,7.6293364,-0.61684906
0.3889433,-0.047542423,-0.27207148,-0.070619926,7.3916593,-0.59763235
0.37682718,-0.046061408,-0.26359606,-0.068420015,7.1613984,-0.57901525
0.36508903,-0.044626597,-0.25538507,-0.06628874,6.9383216,-0.56097895
0.35371706,-0.043236546,-0.24743019,-0.064223945,6.7222033,-0.5435053
0.3426998,-0.04188985,-0.23972344,-0.06222355,6.5128255,-0.5265767
0.3320261,-0.040585153,-0.23225704,-0.06028554,6.309978,-0.51017594
0.32168522,-0.03932114,-0.22502346,-0.058407962,6.1134553,-0.49428666
0.3116668,-0.038096536,-0.21801542,-0.056588925,5.92306,-0.47889277
0.30196068,-0.036910113,-0.21122585,-0.054826602,5.7386007,-0.46397883
0.29255712,-0.03576067,-0.20464793,-0.053119212,5.559891,-0.44952977
0.2834467,-0.03464706,-0.19827506,-0.051465042,5.3867526,-0.4355311
0.2746202,-0.033568155,-0.1921008,-0.04986243,5.21901,-0.42196873
0.2660688,-0.032522876,-0.18611896,-0.04830976,5.0564947,-0.40882903
0.25778386,-0.031510167,-0.18032354,-0.046805475,4.899044,-0.3960988
0.2497571,-0.030529017,-0.1747087,-0.045348067,4.7464995,-0.38376522
0.24198043,-0.029578438,-0.1692688,-0.043936066,4.598708,-0.37181595
0.23444605,-0.028657475,-0.16399841,-0.04256806,4.4555216,-0.360239
0.22714642,-0.027765203,-0.1588922,-0.041242674,4.316796,-0.3490227
0.22007418,-0.026900731,-0.15394506,-0.039958578,4.1823916,-0.3381558
0.21322224,-0.026063185,-0.14915204,-0.038714483,4.0521746,-0.32762745
0.20658375,-0.025251731,-0.14450832,-0.03750914,3.9260135,-0.31742704
0.20015202,-0.02446555,-0.14000924,-0.03634134,3.803782,-0.30754438
0.19392064,-0.023703858,-0.13565029,-0.035209917,3.6853578,-0.29796952
0.18788333,-0.02296589,-0.13142711,-0.03411373,3.5706222,-0.28869286
0.18203406,-0.022250904,-0.12733546,-0.033051684,3.4594598,-0.27970514
0.17636696,-0.021558184,-0.12337123,-0.032022715,3.3517594,-0.27099732
0.17087632,-0.02088704,-0.11953046,-0.03102579,3.247413,-0.26256067
0.16555668,-0.020236796,-0.1158093,-0.030059911,3.1463163,-0.25438678
0.16040272,-0.019606799,-0.112204015,-0.02912411,3.0483675,-0.2464674
0.15540923,-0.018996421,-0.108711,-0.028217448,2.953469,-0.23879464
0.15057123,-0.01840505,-0.10532675,-0.02733902,2.8615255,-0.23136081
0.14588389,-0.017832093,-0.10204788,-0.026487945,2.772445,-0.22415845
0.14134249,-0.017276976,-0.09887111,-0.02566337,2.6861382,-0.21718034
0.13694249,-0.016739143,-0.095793255,-0.024864469,2.6025188,-0.21041952
0.1326795,-0.016218057,-0.092811234,-0.024090443,2.521503,-0.20386921
0.12854925,-0.015713196,-0.089922056,-0.023340518,2.4430096,-0.19752283
0.12454758,-0.0152240535,-0.087122835,-0.02261394,2.36696,-0.19137406
0.120670505,-0.01475014,-0.084410764,-0.021909986,2.2932782,-0.18541673
0.11691414,-0.014290981,-0.08178313,-0.021227947,2.2218907,-0.17964487
0.11327472,-0.013846117,-0.079237305,-0.020567143,2.1527255,-0.17405272
0.10974862,-0.013415104,-0.076770745,-0.019926911,2.0857136,-0.16863465
0.10633229,-0.012997509,-0.07438097,-0.019306613,2.0207882,-0.16338529
0.103022315,-0.012592915,-0.0720656,-0.018705625,1.9578838,-0.15829933
0.09981538,-0.012200917,-0.069822304,-0.01812335,1.896938,-0.15337172
0.0967083,-0.011821123,-0.06764885,-0.017559199,1.8378893,-0.14859751
0.093697935,-0.011453152,-0.06554306,-0.017012611,1.7806791,-0.14397192
0.090781294,-0.011096636,-0.063502826,-0.01648304,1.7252498,-0.13949035
0.087955445,-0.0107512195,-0.061526105,-0.015969954,1.6715461,-0.13514827
0.085217565,-0.010416555,-0.059610922,-0.015472841,1.6195142,-0.13094138
0.08256492,-0.01009231,-0.05775536,-0.014991204,1.5691022,-0.12686545
0.07999486,-0.009778158,-0.055957556,-0.01452456,1.5202594,-0.1229164
0.07750479,-0.009473786,-0.05421572,-0.014072443,1.4729371,-0.11909029
0.07509225,-0.009178888,-0.052528113,-0.0136344,1.4270879,-0.11538328
0.0727548,-0.008893171,-0.050893035,-0.013209994,1.382666,-0.11179167
0.07049012,-0.008616348,-0.04930886,-0.012798798,1.3396269,-0.10831186
0.06829593,-0.008348143,-0.047773995,-0.012400404,1.2979276,-0.104940385
0.06617005,-0.008088286,-0.04628691,-0.0120144095,1.2575264,-0.10167385
0.06411035,-0.007836518,-0.044846117,-0.011640432,1.2183828,-0.098509006
