ax,ay,az,gx,gy,gz
-0.83091664,0.50909555,-0.12636478,11.818289,-62.922386,16.59106
-1.0096314,0.6219727,-0.05472093,2.8138785,-68.5083,13.600724
-1.0452988,0.5337572,0.1639722,-2.4152298,-71.75408,7.489423
-0.87263626,0.27652383,0.46705085,-4.020377,-73.4332,1.62177
-0.5011774,-0.15292141,1.023449,-4.1424365,-72.81736,-1.7089385
-0.048367642,-0.6058803,1.7093303,-2.315521,-70.382614,-3.0826805
0.4830584,-1.0329374,2.5540857,-0.12072962,-65.816536,-2.9475632
1.1229407,-1.4437463,3.4605017,2.3948119,-59.048996,-1.4420177
1.819759,-1.8280444,4.3120666,5.7967086,-49.157825,1.2041374
2.4874432,-2.188254,5.061216,10.385498,-37.764538,3.562325
3.0797932,-2.4590085,5.6670184,16.180178,-24.99081,5.433304
3.6063793,-2.582293,6.112515,21.884968,-10.7067175,7.6522384
4.0020504,-2.5590212,6.3256364,27.103,4.209102,10.082224
4.23222,-2.4484372,6.2947335,31.336594,18.93151,12.216607
4.3152714,-2.2939377,5.9982576,34.484673,32.3414,14.44671
4.3316436,-2.1286352,5.5614586,36.69777,44.3505,16.55076
4.308459,-1.9567972,5.029569,38.55176,55.01221,18.300287
4.266573,-1.7759706,4.437941,40.00455,64.411995,19.859695
4.193298,-1.5905737,3.790211,41.0949,72.56094,21.31537
4.05945,-1.3502144,3.0678225,41.822525,79.350914,22.022831
3.887098,-1.0896962,2.3313956,41.713577,84.51946,21.783989
3.6799302,-0.85385174,1.6025176,40.97737,88.05501,21.163486
3.4486418,-0.6241748,0.893846,40.037968,90.08579,20.373182
3.1958942,-0.3917745,0.20096737,38.30668,90.1305,19.448626
2.9186137,-0.14989471,-0.4742396,36.427956,88.83573,18.127983
2.6295469,0.09598852,-1.1201463,34.487667,86.254196,16.25198
2.3342342,0.33103067,-1.7354805,32.343895,82.266,13.994905
2.0457919,0.54809046,-2.3107836,29.897486,76.83331,11.501809
1.7707947,0.74023765,-2.835871,26.930449,69.542534,8.92216
1.5304505,0.91440445,-3.2986035,23.568274,61.20579,6.2865005
1.3382665,1.0475781,-3.7048173,19.85968,51.85104,3.5742168
1.1825793,1.146307,-4.0548325,15.982063,41.836395,0.81369746
1.048687,1.2109281,-4.3443084,12.196306,31.099794,-2.2282212
0.9553111,1.2354404,-4.5351706,8.586744,19.393147,-6.053422
0.997008,1.1447043,-4.5532227,5.3093376,7.757929,-9.850243
1.1740341,0.96025723,-4.4224267,2.5923653,-3.0541663,-13.181288
1.4400375,0.73210305,-4.1275473,0.47668216,-12.578926,-15.98849
1.7524619,0.5087297,-3.6633728,-1.2724046,-20.669336,-18.426962
2.1138504,0.270648,-3.046863,-2.6598473,-26.358433,-20.06238
2.4927137,0.021392196,-2.2793164,-3.6561596,-29.960875,-21.056187
2.851703,-0.21500869,-1.4577265,-4.047501,-31.371016,-21.63518
3.203752,-0.43644035,-0.6367915,-4.059966,-30.626656,-21.73486
3.5451717,-0.6363425,0.12247636,-3.7853734,-27.875042,-21.235426
3.8336425,-0.80866176,0.757151,-2.962995,-22.728485,-20.329277
4.02539,-0.93730205,1.1863621,-1.8915467,-16.357248,-19.263105
4.1387653,-1.0332707,1.461256,-0.69957125,-9.277468,-18.042267
4.18254,-1.0962186,1.6060417,0.6096388,-1.9756695,-16.751707
4.185814,-1.1303374,1.6505932,1.8845361,5.3289013,-15.434028
4.169216,-1.1394291,1.6142282,2.854503,12.572051,-13.913111
4.139,-1.1223606,1.4811453,3.5854676,19.550007,-12.284605
4.092996,-1.095805,1.2762471,4.2406044,26.021465,-10.635152
4.029833,-1.0591956,1.0255995,4.841877,31.80354,-9.045056
3.9559417,-1.0177308,0.74322206,5.359124,36.955975,-7.517445
3.8595483,-0.9787892,0.43200892,5.722914,41.149372,-6.0025806
3.7331152,-0.9186364,0.10301794,5.9175086,44.551933,-4.570354
3.5777078,-0.8591139,-0.2396031,5.867264,47.00945,-3.1948771
3.3997858,-0.80521435,-0.58403593,6.017532,48.53239,-1.9458085
3.2088583,-0.7292726,-0.910518,6.374411,49.110165,-0.95591056
3.020719,-0.62181365,-1.2051474,6.6287622,48.606426,-0.39628467
2.8363008,-0.4988574,-1.4512953,6.5957413,47.418808,-0.009603613
2.6491933,-0.39436653,-1.6646619,6.3418355,45.72191,0.34161445
2.4621236,-0.31786406,-1.8446735,5.907001,43.66522,0.83675855
2.2826567,-0.25533274,-1.9956747,5.546459,41.338787,1.3245449
2.209055,-0.24709983,-1.9313264,5.36762,40.005863,1.2818364
2.1379802,-0.23914957,-1.8691874,5.1949205,38.718704,1.2405943
2.0693316,-0.23147069,-1.8091694,5.028116,37.475483,1.2007599
2.0030136,-0.22405252,-1.7511891,4.8669753,36.274467,1.1622779
1.9389356,-0.21688491,-1.6951673,4.711277,35.114017,1.1250957
1.8770115,-0.20995823,-1.6410284,4.5608125,33.992577,1.0891634
1.8171595,-0.20326331,-1.5887011,4.4153824,32.90866,1.0544333
1.7593015,-0.19679146,-1.5381173,4.2747974,31.860855,1.0208604
1.7033635,-0.19053434,-1.4892119,4.1388774,30.84782,0.98840153
1.6492746,-0.18448408,-1.4419231,4.0074506,29.86827,0.95701563
1.5969671,-0.1786331,-1.396192,3.880353,28.920988,0.9266635
1.5463768,-0.17297417,-1.351962,3.7574272,28.004799,0.8973077
1.4974419,-0.16750042,-1.3091793,3.6385238,27.11859,0.8689125
1.4501034,-0.16220525,-1.2677923,3.5234995,26.261293,0.84144366
1.404305,-0.15708235,-1.2277519,3.4122174,25.431887,0.81486845
1.3599925,-0.15212566,-1.1890105,3.3045456,24.62939,0.78915554
1.3171142,-0.14732938,-1.151523,3.2003589,23.852865,0.7642748
1.2756205,-0.14268798,-1.1152458,3.0995362,23.101416,0.74019736
1.2354634,-0.13819611,-1.0801375,3.0019617,22.374174,0.7168957
1.1965976,-0.13384865,-1.046158,2.907524,21.670315,0.6943432
1.1589787,-0.12964071,-1.0132687,2.816117,20.98904,0.6725143
1.1225648,-0.12556753,-0.98143286,2.7276375,20.329588,0.65138465
1.0873152,-0.12162459,-0.9506149,2.641987,19.691217,0.63093054
1.0531908,-0.11780751,-0.9207807,2.5590708,19.073227,0.61112934
1.020154,-0.114112094,-0.89189744,2.4787972,18.474934,0.59195924
0.9881687,-0.11053429,-0.8639334,2.4010785,17.895681,0.5733993
0.95720005,-0.10707021,-0.83685815,2.32583,17.33484,0.5554293
0.9272144,-0.10371608,-0.8106424,2.25297,16.791801,0.5380297
0.89817953,-0.1004683,-0.7852579,2.1824203,16.265982,0.52118176
0.87006414,-0.09732339,-0.7606773,2.1141047,15.756814,0.50486743
0.8428383,-0.09427796,-0.7368743,2.0479507,15.263755,0.48906922
0.8164729,-0.09132879,-0.7138237,1.9838874,14.78628,0.47377032
0.79094005,-0.08847275,-0.69150084,1.921847,14.323881,0.4589545
0.7662127,-0.0857068,-0.66988236,1.861764,13.87607,0.44460613
0.74226487,-0.08302805,-0.6489453,1.8035748,13.442376,0.43071005
0.7190713,-0.080433674,-0.6286677,1.7472186,13.022343,0.41725165
0.6966079,-0.07792096,-0.6090284,1.6926361,12.61553,0.4042169
0.67485094,-0.075487286,-0.5900068,1.6397706,12.221514,0.39159212
0.65377796,-0.07313011,-0.57158315,1.5885669,11.839883,0.3793642
0.633367,-0.07084698,-0.5537383,1.5389718,11.470242,0.36752045
0.61359686,-0.06863554,-0.5364537,1.4909339,11.1122055,0.35604852
0.59444714,-0.0664935,-0.5197116,1.4444034,10.765405,0.34493664
0.57589805,-0.06441864,-0.50349456,1.3993323,10.429482,0.33417326
0.5579305,-0.06240883,-0.48778597,1.3556744,10.104092,0.32374734
0.54052603,-0.060462005,-0.4725696,1.3133844,9.788897,0.31364813
0.52366674,-0.058576163,-0.4578299,1.2724192,9.483576,0.30386528
0.50733536,-0.05674937,-0.44355172,1.2327368,9.187815,0.29438874
0.49151513,-0.054979756,-0.42972046,1.1942964,8.901312,0.28520882
0.4761899,-0.053265516,-0.416322,1.1570588,8.623774,0.27631617
0.4613441,-0.051604893,-0.40334263,1.120986,8.354916,0.26770166
0.4469625,-0.0499962,-0.39076912,1.0860413,8.094466,0.25935653
0.43303052,-0.0484378,-0.3785887,1.052189,7.842159,0.25127226
0.41953394,-0.046928108,-0.36678895,1.0193946,7.5977364,0.24344069
0.4064591,-0.04546558,-0.35535792,0.987625,7.3609514,0.23585382
0.39379266,-0.044048745,-0.34428394,0.9568478,7.1315637,0.22850394
0.38152185,-0.04267616,-0.33355585,0.9270318,6.9093394,0.22138362
0.36963418,-0.04134643,-0.32316273,0.89814687,6.6940546,0.21448563
0.35811764,-0.040058218,-0.31309408,0.8701637,6.485491,0.20780298
0.34696057,-0.038810216,-0.30333972,0.84305394,6.283437,0.20132893
0.3361517,-0.037601158,-0.29388976,0.8167902,6.0876884,0.19505693
0.32568008,-0.03642983,-0.28473467,0.7913461,5.8980484,0.18898062
0.31553516,-0.035295043,-0.2758652,0.7666957,5.7143245,0.18309389
0.30570674,-0.034195654,-0.2672724,0.74281424,5.536332,0.17739078
0.29618484,-0.033130556,-0.25894764,0.7196777,5.363891,0.17186557
0.2869599,-0.032098677,-0.25088248,0.6972627,5.196828,0.16651267
0.2780226,-0.031098971,-0.24306881,0.67554665,5.034974,0.16132668
0.26936397,-0.030130437,-0.23549877,0.65450764,4.8781667,0.15630238
0.26097527,-0.029192096,-0.22816473,0.6341246,4.726248,0.1514347
0.2528481,-0.028283007,-0.22105931,0.61437696,4.579065,0.14671879
0.24497421,-0.027402254,-0.21417537,0.5952448,4.4364696,0.14214987
0.23734576,-0.026548952,-0.20750599,0.576709,4.2983184,0.13772334
0.22995503,-0.025722243,-0.20104444,0.5587508,4.164473,0.13343476
0.22279462,-0.024921296,-0.19478427,0.5413523,4.034798,0.12927984
0.21585734,-0.024145307,-0.18871915,0.52449584,3.9091644,0.12525438
0.2091362,-0.023393497,-0.18284301,0.50816464,3.787445,0.121354334
0.20262448,-0.022665111,-0.17714997,0.4923423,3.6695182,0.11757581
0.19631562,-0.021959417,-0.17163427,0.47701287,3.5552652,0.113915004
0.19020331,-0.021275707,-0.16629042,0.462161,3.4445715,0.110368244
0.1842814,-0.020613294,-0.16111302,0.4477718,3.3373258,0.10693197
0.17854396,-0.019971518,-0.1560969,0.4338308,3.233421,0.10360273
0.17298521,-0.01934973,-0.15123703,0.42032403,3.1327527,0.100377195
0.16759962,-0.01874731,-0.14652853,0.40723798,3.03522,0.09725212
0.16238177,-0.018163651,-0.14196667,0.3945595,2.9407248,0.094224386
0.15732642,-0.017598173,-0.1375469,0.38227588,2.8491726,0.09129095
0.15242851,-0.017050304,-0.13326477,0.3703748,2.7604718,0.08844887
0.14768313,-0.016519496,-0.129116,0.35884437,2.6745334,0.08569529
0.14308552,-0.01600522,-0.12509643,0.347673,2.5912712,0.08302747
0.1386311,-0.015506959,-0.121202014,0.3368495,2.5106018,0.08044273
0.13431539,-0.015024212,-0.117428884,0.3263631,2.4324443,0.07793847
0.13013406,-0.014556498,-0.11377324,0.31620318,2.3567207,0.07551219
0.12608293,-0.014103348,-0.11023144,0.30635965,2.283355,0.07316146
0.122157946,-0.013664308,-0.10679991,0.2968226,2.2122736,0.07088393
0.11835517,-0.0132389385,-0.10347523,0.28758252,2.1434057,0.06867731
0.1146708,-0.012826812,-0.10025407,0.27863014,2.0766819,0.06653941
0.11110114,-0.012427519,-0.0971332,0.26995647,2.0120356,0.064468056
0.10764263,-0.012040658,-0.0941095,0.2615529,1.949402,0.062461205
0.10429179,-0.011665841,-0.09117994,0.25341094,1.8887186,0.060516834
0.10104528,-0.011302694,-0.08834159,0.24552248,1.8299245,0.058633
0.09789985,-0.010950852,-0.08559161,0.23787962,1.7729608,0.056807816
0.094852336,-0.010609966,-0.082927234,0.23047471,1.7177706,0.055039454
0.09189971,-0.010279691,-0.080345824,0.22330034,1.6642987,0.05332615
0.089039,-0.009959699,-0.07784477,0.21634932,1.6124914,0.05166618
0.08626735,-0.009649669,-0.07542158,0.2096147,1.562297,0.05005789
0.08358199,-0.00934929,-0.073073834,0.20308973,1.5136653,0.04849967
0.080980234,-0.009058263,-0.07079917,0.1967679,1.4665475,0.046989962
0.078459464,-0.008776296,-0.06859532,0.19064288,1.4208966,0.04552725
0.07601717,-0.008503107,-0.06646008,0.18470854,1.3766668,0.044110075
0.07365091,-0.008238423,-0.064391315,0.17895892,1.3338139,0.042737015
0.07135831,-0.007981977,-0.062386945,0.1733883,1.2922951,0.041406702
0.06913708,-0.0077335155,-0.060444973,0.1679911,1.2520688,0.0401178
0.066984996,-0.0074927886,-0.058563456,0.16276191,1.2130946,0.038869023
0.06489991,-0.007259555,-0.05674051,0.1576955,1.1753337,0.03765912
0.06287973,-0.0070335823,-0.054974314,0.15278682,1.1387484,0.03648688
0.060922433,-0.0068146437,-0.053263094,0.14803094,1.1033019,0.03535113
0.059026066,-0.0066025206,-0.051605146,0.1434231,1.0689588,0.034250736
0.057188734,-0.006397001,-0.049998805,0.1389587,1.0356848,0.0331846
0.055408593,-0.0061978786,-0.04844247,0.13463326,1.0034466,0.032151647
