ax,ay,az,gx,gy,gz
4.5327687,3.0191185,7.760979,6.103692,-148.98225,56.76324
5.610647,2.7798755,9.017432,5.143758,-130.92499,57.83899
6.8872666,3.0197048,10.2724695,5.1974816,-111.2778,54.374653
8.037308,3.2036276,11.357587,5.8527136,-83.8119,51.672062
8.763734,3.2200778,12.013322,10.960084,-52.522842,46.871944
8.977922,3.2217197,12.08807,17.630968,-20.902214,40.80195
8.878024,3.2625797,11.78819,19.600895,8.041048,35.88443
8.642147,3.285001,11.193768,18.518297,33.131702,32.817005
8.339819,3.2809536,10.447965,15.722698,54.926273,30.259779
7.995209,3.2089357,9.601016,12.398693,74.37578,27.935726
7.5984898,3.0975711,8.663972,10.291446,91.12151,25.153536
7.1569986,2.9757874,7.6726956,8.926311,105.10912,21.97685
6.67111,2.8270156,6.6160464,7.2663603,116.347725,18.869453
6.1749444,2.6553977,5.575081,5.6852956,125.43751,16.334805
5.658875,2.4951038,4.536141,4.407462,132.3665,14.174661
5.090177,2.3525357,3.4899695,3.9369996,136.37337,11.842193
4.471135,2.2303615,2.4846191,4.1601076,135.97621,8.962633
3.8350062,2.1417704,1.5652211,4.9148803,132.78886,5.7715554
3.2303693,2.0907292,0.7411371,5.643297,127.34499,2.5470865
2.662556,2.070717,0.0017380641,5.985641,120.12854,-0.60495496
2.1330228,2.0669172,-0.66251844,5.7853365,111.57112,-3.4749908
1.6436568,2.0736158,-1.2568905,5.225378,101.12196,-6.2118006
1.200733,2.0913186,-1.792575,4.601062,89.467896,-9.205142
0.80916977,2.1050477,-2.2759004,4.00497,76.64083,-12.611907
0.48672006,2.1016812,-2.7036319,3.15871,62.713726,-16.335035
0.2635046,2.061453,-3.0474677,1.9284521,48.231216,-19.758453
0.13182256,1.985652,-3.3026154,0.6818556,33.67596,-22.702576
0.08224027,1.8605701,-3.4600708,-0.48418713,18.827625,-25.482323
0.11332206,1.7101663,-3.5109694,-1.5383402,3.9995356,-28.101542
0.2798041,1.551767,-3.38765,-3.039572,-10.1694975,-30.073637
0.62334895,1.3701721,-3.0347266,-5.0193057,-22.08637,-30.749254
1.0757974,1.1685914,-2.5076106,-6.089091,-30.133152,-30.640482
1.614924,1.0065241,-1.8078247,-6.3266096,-35.048523,-30.347311
2.2385783,0.93309325,-0.97955376,-7.099461,-36.87099,-29.94037
2.9018607,0.8537494,-0.11214869,-8.357353,-35.206825,-29.19243
3.473553,0.73726094,0.65051496,-9.346596,-30.222166,-28.125544
3.8820515,0.6098276,1.2311443,-9.734101,-22.30367,-26.992516
4.093385,0.50496954,1.58856,-10.237081,-13.436545,-25.64391
4.217276,0.41628218,1.8209032,-10.580524,-3.9993668,-24.130148
4.268824,0.3564503,1.9457421,-10.820779,5.4980865,-22.573793
4.285268,0.31566644,1.9993359,-11.4234295,15.031068,-20.826155
4.293257,0.2925057,1.9921496,-11.779937,24.475517,-18.87932
4.2558036,0.30336905,1.8804861,-11.784277,33.28952,-17.361506
4.176064,0.2953849,1.7007309,-11.431069,41.436726,-16.34658
4.073124,0.2822111,1.4755443,-10.9882345,48.879753,-15.479622
3.9513562,0.2680953,1.2074299,-10.945763,55.63959,-14.612972
3.8037536,0.24182537,0.89552885,-11.564435,61.43173,-13.628267
3.6225665,0.20348637,0.53836733,-12.390346,66.41083,-12.528635
3.4032862,0.16603416,0.1421781,-12.72746,70.06067,-11.558355
3.1436696,0.1337898,-0.26936105,-12.612541,72.05993,-10.903681
2.8631709,0.10877124,-0.6664877,-12.2118435,72.41889,-10.645038
2.5786955,0.092904195,-1.031657,-11.603306,71.063805,-10.494679
2.3150897,0.078776166,-1.3539809,-10.756892,68.85289,-10.301096
2.0742981,0.038735326,-1.6452628,-9.493611,66.10992,-9.970628
2.0055814,0.037452117,-1.5907592,-9.179111,63.919853,-9.640324
1.9393945,0.036216147,-1.5382619,-8.876187,61.81041,-9.32218
1.8756208,0.03502524,-1.4876788,-8.584309,59.777878,-9.0156355
1.8141513,0.03387736,-1.4389234,-8.302977,57.818787,-8.720167
1.7548839,0.032770604,-1.3919144,-8.031722,55.929874,-8.435284
1.6977224,0.031703174,-1.3465759,-7.7701063,54.10808,-8.160523
1.6425765,0.030673383,-1.302836,-7.5177155,52.35053,-7.8954506
1.5893611,0.029679641,-1.2606273,-7.2741604,50.6545,-7.6396575
1.5379958,0.028720448,-1.2198861,-7.0390725,49.017437,-7.3927574
1.4884049,0.027794389,-1.1805522,-6.8121057,47.436924,-7.1543865
1.4405165,0.026900126,-1.1425688,-6.592931,45.910675,-6.924199
1.3942628,0.026036385,-1.1058819,-6.381238,44.436523,-6.7018695
1.3495795,0.025201973,-1.0704406,-6.176732,43.012424,-6.4870877
1.3064053,0.024395742,-1.0361964,-5.9791336,41.63642,-6.2795606
1.2646825,0.02361661,-1.0031033,-5.788177,40.306675,-6.0790095
1.2243557,0.02286355,-0.97111744,-5.60361,39.02142,-5.885169
1.1853725,0.02213558,-0.9401972,-5.4251924,37.778988,-5.6977863
1.1476829,0.021431766,-0.9103031,-5.252695,36.57778,-5.5166216
1.1112391,0.020751217,-0.8813971,-5.0859,35.416283,-5.341446
1.0759957,0.020093083,-0.85344326,-4.9245987,34.29304,-5.1720395
1.0419092,0.019456554,-0.8264071,-4.768592,33.20667,-5.0081944
1.0089381,0.018840855,-0.8002555,-4.6176906,32.15585,-4.849711
0.9770427,0.01824524,-0.7749571,-4.471712,31.13931,-4.6963973
0.9461849,0.017669003,-0.7504817,-4.3304825,30.155842,-4.548072
0.91632825,0.017111463,-0.7268005,-4.1938353,29.20428,-4.4045587
0.88743794,0.016571967,-0.7038857,-4.0616107,28.28352,-4.2656903
0.85948044,0.01604989,-0.6817108,-3.9336553,27.392487,-4.1313057
0.83242375,0.015544634,-0.66025025,-3.8098226,26.53016,-4.0012507
0.80623686,0.015055623,-0.63947976,-3.689971,25.69556,-3.8753772
0.7808903,0.0145823015,-0.6193757,-3.573965,24.887741,-3.7535424
0.7563555,0.014124141,-0.59991556,-3.461675,24.105793,-3.63561
0.7326052,0.013680629,-0.58107764,-3.352975,23.348848,-3.5214484
0.7096131,0.013251275,-0.562841,-3.2477448,22.616066,-3.4109309
0.68735373,0.012835606,-0.5451857,-3.1458688,21.90664,-3.303936
0.66580284,0.012433166,-0.52809227,-3.047235,21.219791,-3.2003462
0.6449369,0.012043517,-0.5115421,-2.9517362,20.554773,-3.100049
0.6247334,0.011666237,-0.49551734,-2.859269,19.910868,-3.002936
0.6051704,0.011300919,-0.48000064,-2.7697334,19.287376,-2.9089015
0.586227,0.010947171,-0.4649754,-2.6830337,18.68363,-2.8178453
0.5678829,0.010604614,-0.45042548,-2.5990767,18.098986,-2.7296698
0.5501186,0.010272885,-0.4363354,-2.5177734,17.53282,-2.6442811
0.53291523,0.00995163,-0.42269027,-2.439037,16.984531,-2.561589
0.5162546,0.009640509,-0.40947562,-2.362785,16.45354,-2.4815054
0.50011915,0.009339197,-0.39667752,-2.2889366,15.939288,-2.4039464
0.4844919,0.009047375,-0.38428256,-2.2174141,15.441234,-2.3288305
0.4693566,0.008764739,-0.37227774,-2.148143,14.958856,-2.2560787
0.45469734,0.008490993,-0.3606505,-2.0810509,14.491652,-2.1856153
0.4404989,0.008225852,-0.34938878,-2.0160677,14.039133,-2.117367
0.4267465,0.00796904,-0.33848086,-1.953126,13.60083,-2.0512626
0.4134259,0.0077202925,-0.3279154,-1.8921605,13.17629,-1.987234
0.4005233,0.00747935,-0.3176815,-1.8331082,12.765072,-1.9252145
0.38802543,0.0072459653,-0.3077686,-1.775908,12.366752,-1.8651403
0.37591934,0.007019897,-0.29816648,-1.7205012,11.980919,-1.8069495
0.36419266,0.0068009133,-0.28886527,-1.6668307,11.607178,-1.7505822
0.35283327,0.006588789,-0.2798554,-1.6148412,11.245143,-1.6959805
0.3418296,0.006383307,-0.27112764,-1.5644798,10.894445,-1.6430886
0.33117035,0.0061842566,-0.26267308,-1.5156946,10.554724,-1.5918522
0.32084462,0.0059914347,-0.25448307,-1.468436,10.225633,-1.542219
0.31084186,0.005804644,-0.24654922,-1.4226557,9.906836,-1.4941384
0.30115193,0.0056236945,-0.23886348,-1.3783069,9.598007,-1.4475613
0.29176491,0.0054484014,-0.23141803,-1.3353446,9.298834,-1.4024402
0.28267124,0.0052785873,-0.22420526,-1.2937249,9.00901,-1.3587294
0.27386177,0.0051140795,-0.21721785,-1.2534057,8.728243,-1.3163843
0.26532745,0.00495471,-0.21044873,-1.214346,8.456246,-1.275362
0.25705966,0.0048003183,-0.20389101,-1.1765063,8.192744,-1.235621
0.24905007,0.0046507474,-0.19753806,-1.139848,7.9374704,-1.1971208
0.24129052,0.0045058457,-0.19138345,-1.1043342,7.690166,-1.1598226
0.23377317,0.0043654675,-0.18542095,-1.069929,7.4505806,-1.1236886
0.22649042,0.0042294697,-0.17964453,-1.0365975,7.2184725,-1.0886823
0.21943492,0.0040977155,-0.17404833,-1.004306,6.9936066,-1.0547683
0.21259955,0.003970072,-0.16862674,-0.9730219,6.7757564,-1.0219123
0.2059774,0.0038464104,-0.16337427,-0.94271374,6.5647016,-0.9900813
0.19956177,0.0037266056,-0.15828563,-0.9133509,6.36023,-0.9592431
0.19334625,0.0036105372,-0.15335569,-0.8849037,6.1621346,-0.9293666
0.18732452,0.0034980879,-0.14857946,-0.8573437,5.9702168,-0.90042174
0.18149056,0.0033891448,-0.14395216,-0.8306429,5.7842827,-0.8723793
0.17583847,0.003283598,-0.13946912,-0.80477446,5.604145,-0.84521115
0.17036258,0.0031813413,-0.13512582,-0.7797125,5.4296227,-0.8188899
0.16505738,0.0030822721,-0.1309179,-0.7554317,5.2605405,-0.79338914
0.1599175,0.0029862907,-0.12684114,-0.73190767,5.0967283,-0.7686831
0.15493783,0.0028933005,-0.12289143,-0.70911676,4.9380207,-0.74474704
0.15011333,0.002803208,-0.1190648,-0.6870361,4.7842593,-0.7215569
0.14543916,0.002715923,-0.115357414,-0.66564345,4.635289,-0.69908935
0.14091064,0.0026313574,-0.11176553,-0.64491737,4.4909606,-0.67732185
0.1365232,0.0025494266,-0.10828557,-0.62483704,4.3511286,-0.6562326
0.13227245,0.0024700486,-0.104914024,-0.60538226,4.215653,-0.6358003
0.12815413,0.0023931433,-0.10164751,-0.5865336,4.0843983,-0.6160046
0.1241641,0.0023186335,-0.09848275,-0.5682721,3.9572318,-0.5968255
0.120298356,0.0022464448,-0.095416576,-0.5505794,3.8340268,-0.57824385
0.11655302,0.0021765046,-0.0924459,-0.53343785,3.7146592,-0.560241
0.112924345,0.002108743,-0.08956776,-0.5168302,3.5990098,-0.5427988
0.109408684,0.0020430917,-0.08677926,-0.50073975,3.4869623,-0.52589995
0.10600252,0.0019794852,-0.084077604,-0.4851505,3.3784044,-0.5095274
0.10270243,0.0019178595,-0.08146009,-0.47004673,3.2732275,-0.49366468
0.09950512,0.0018581531,-0.07892409,-0.4554133,3.171326,-0.478296
0.096407376,0.001800306,-0.07646706,-0.44123563,3.072598,-0.46340594
0.0934061,0.0017442603,-0.07408655,-0.4274994,2.9769442,-0.44897956
0.09049828,0.0016899599,-0.07178017,-0.41419098,2.8842692,-0.4350024
0.08768101,0.0016373503,-0.069545604,-0.4012969,2.7944798,-0.42146048
0.08495146,0.0015863789,-0.067380615,-0.38880438,2.7074866,-0.40834025
0.08230691,0.0015369946,-0.065283045,-0.37670082,2.6232018,-0.3956285
0.07974469,0.001489148,-0.06325079,-0.3649741,2.5415416,-0.3833126
0.07726225,0.0014427911,-0.0612818,-0.35361254,2.462424,-0.37138015
0.074857116,0.0013978776,-0.059374124,-0.34260473,2.3857696,-0.35981923
0.07252685,0.0013543625,-0.05752584,-0.33193964,2.311502,-0.34861827
0.070269145,0.0013122022,-0.055735104,-0.3216066,2.2395468,-0.33776605
0.06808173,0.0012713545,-0.054000117,-0.3115953,2.1698315,-0.3272517
0.06596242,0.0012317785,-0.05231915,-0.30189565,2.102287,-0.31706467
0.06390908,0.0011934347,-0.050690517,-0.292498,2.0368452,-0.30719483
0.061919678,0.0011562846,-0.04911259,-0.2833929,1.973441,-0.29763225
0.059992205,0.0011202912,-0.04758378,-0.2745713,1.9120106,-0.2883674
0.05812474,0.0010854182,-0.046102572,-0.26602432,1.8524926,-0.27939096
0.056315415,0.0010516309,-0.044667475,-0.25774342,1.7948276,-0.270694
0.054562412,0.0010188954,-0.043277055,-0.2497203,1.7389576,-0.26226774
0.052863985,0.0009871791,-0.04192992,-0.24194697,1.6848271,-0.25410384
0.05121843,0.0009564501,-0.040624723,-0.23441562,1.6323817,-0.24619406
0.049624104,0.0009266778,-0.039360154,-0.22711875,1.581569,-0.23853055
0.04807941,0.0008978322,-0.038134955,-0.22004901,1.532338,-0.23110558
0.0465828,0.0008698846,-0.0369479,-0.21319936,1.4846396,-0.22391176
0.045132782,0.00084280706,-0.03579779,-0.20656294,1.4384261,-0.2169419
0.0437279,0.0008165724,-0.03468349,-0.2001331,1.3936511,-0.21018898
0.042366754,0.00079115445,-0.033603873,-0.19390343,1.3502702,-0.2036463
0.04104798,0.0007665277,-0.032557864,-0.18786769,1.3082395,-0.19730727
0.039770257,0.0007426676,-0.031544417,-0.18201983,1.2675172,-0.19116558
0.03853231,0.0007195502,-0.03056252,-0.176354,1.2280625,-0.18521509
0.037332896,0.00069715246,-0.029611187,-0.17086455,1.189836,-0.17944981
