ax,ay,az,gx,gy,gz
-3.6145785,3.0100274,-2.3972945,70.91246,54.376858,5.5491414
-4.1631927,3.981054,-2.7687986,74.81451,41.46753,-11.373604
-3.8554764,4.5456076,-2.8777704,73.24117,36.350994,-21.919283
-3.733935,5.3856387,-3.0271592,64.90396,31.142714,-23.93447
-3.9809775,6.5077996,-3.0218005,54.048878,25.11837,-26.4978
-4.187678,7.51517,-2.9160855,43.013535,19.062536,-32.41542
-4.2422457,8.341251,-2.7526505,30.80243,14.155211,-40.132908
-4.114413,8.951452,-2.604032,18.203135,9.55381,-47.231274
-3.7632625,9.35838,-2.4629347,4.4639664,5.357559,-52.5023
-3.1639311,9.582253,-2.2934287,-9.054152,3.1703413,-56.74151
-2.5947719,9.592303,-2.221007,-21.110155,2.2483766,-60.848186
-2.0925186,9.425485,-2.2497816,-31.596016,2.4016967,-64.98163
-1.668557,9.132518,-2.3260374,-41.207405,3.6232166,-69.34295
-1.3080146,8.738946,-2.4186747,-50.764996,4.4142447,-72.7286
-0.9621736,8.231784,-2.5349205,-59.8662,4.1237416,-73.98601
-0.65262157,7.625696,-2.66016,-67.65755,3.6681786,-74.144485
-0.3735224,6.946155,-2.751135,-73.60087,4.3430223,-75.111595
-0.09947215,6.2048945,-2.780185,-77.48536,6.3196306,-77.27532
0.17476165,5.442048,-2.7201753,-79.66017,8.547572,-79.32764
0.48265943,4.6520557,-2.5718856,-81.45743,9.895782,-79.46824
0.80691403,3.8235147,-2.4205742,-82.737854,10.734972,-77.59879
1.1283526,2.9521284,-2.283024,-83.185814,11.726728,-74.43973
1.4625629,2.0547352,-2.1786804,-82.43176,13.750044,-70.62649
1.7928944,1.1697781,-2.0995424,-79.98182,17.55999,-65.90796
2.0904648,0.3806239,-2.048343,-76.68079,22.190973,-60.11282
2.3418233,-0.2607999,-2.0140836,-72.815216,27.698997,-53.53597
2.5227053,-0.7249936,-1.9802645,-68.2916,33.47904,-46.74471
2.6229105,-1.0200703,-1.9470315,-63.135437,38.7872,-39.912727
2.6377285,-1.1722982,-1.9250245,-58.058876,43.540714,-32.834587
2.5350993,-1.212675,-1.9600952,-53.21548,47.578827,-25.761135
2.3615253,-1.1914012,-2.0455716,-48.759342,50.96467,-18.915783
2.1235132,-1.1411746,-2.1957724,-44.517895,53.3786,-12.377013
1.8382255,-1.0681299,-2.390362,-40.19587,54.647434,-6.3465786
1.5203029,-0.9474294,-2.5952108,-35.74997,54.550404,-1.9718534
1.1802891,-0.77350885,-2.8075533,-31.254137,53.308945,0.94198245
0.84526485,-0.5697232,-3.0246682,-26.77867,50.916004,2.926089
0.52788746,-0.325023,-3.2342165,-22.508537,47.496635,4.2651486
0.23060134,-0.04821139,-3.4366872,-18.734034,43.639088,5.0272603
-0.05873017,0.22961316,-3.6583831,-15.438922,38.988373,4.9565215
-0.3496571,0.4826257,-3.9112942,-12.249806,33.36473,4.1950207
-0.6161069,0.7045799,-4.176128,-9.247315,26.473103,3.0708344
-0.8465028,0.88904387,-4.439991,-6.334324,18.786722,1.7696542
-1.0333523,1.0505555,-4.680625,-3.476362,10.574348,-0.11205753
-1.1677202,1.1874909,-4.8903913,-0.82214355,1.6313417,-2.357724
-1.2527822,1.2794212,-5.0625825,1.56937,-7.955741,-4.293985
-1.3026906,1.3247552,-5.199095,3.771528,-18.201378,-5.8712487
-1.2678057,1.3272488,-5.246758,6.2178288,-28.500511,-7.9311876
-1.0731721,1.3034033,-5.1749463,9.219993,-37.757515,-10.742712
-0.7021171,1.3278011,-4.9662223,11.837726,-45.316326,-13.329327
-0.13272057,1.3595085,-4.59001,14.004472,-51.053738,-15.006776
0.4906852,1.3911276,-4.147272,15.650381,-54.89198,-15.793405
1.1150119,1.4016281,-3.6880033,16.808954,-57.00936,-15.777516
1.6943252,1.3778213,-3.2460265,17.752207,-57.604664,-14.84467
2.1979115,1.3377124,-2.8326037,18.475266,-56.413372,-12.956159
2.6009786,1.2937285,-2.4539015,18.979326,-53.87121,-10.703142
2.5151427,1.2510335,-2.3729193,18.352982,-52.093384,-10.349924
2.4324365,1.2098955,-2.29489,17.749475,-50.380383,-10.009583
2.3527186,1.1702437,-2.2196798,17.167774,-48.729275,-9.681541
2.2758565,1.1320124,-2.1471639,16.60691,-47.13731,-9.36525
2.2017255,1.0951396,-2.0772247,16.065977,-45.601917,-9.060198
2.1302083,1.059567,-2.0097518,15.544118,-44.120663,-8.765902
2.061195,1.0252396,-1.9446406,15.040527,-42.69126,-8.481908
1.9945807,0.9921057,-1.8817934,14.554444,-41.311558,-8.207788
1.9302677,0.9601164,-1.821117,14.085153,-39.97951,-7.943137
1.8681628,0.9292253,-1.762524,13.631973,-38.6932,-7.6875725
1.8081777,0.89938873,-1.705931,13.1942625,-37.450798,-7.4407315
1.7502292,0.8705651,-1.6512592,12.771413,-36.250572,-7.2022705
1.6942381,0.8427151,-1.5984342,12.362845,-35.09089,-6.971864
1.6401289,0.81580114,-1.5473847,11.968011,-33.970184,-6.749203
1.5878303,0.78978777,-1.4980434,11.586389,-32.886982,-6.533992
1.5372741,0.7646411,-1.4503461,11.217481,-31.839869,-6.325951
1.4883956,0.7403289,-1.4042314,10.860814,-30.827501,-6.1248136
1.4411328,0.7168203,-1.3596412,10.515938,-29.848597,-5.930325
1.3954266,0.6940861,-1.3165196,10.182421,-28.901937,-5.7422423
1.3512208,0.6720981,-1.2748135,9.859851,-27.986353,-5.5603337
1.3084617,0.6508297,-1.2344723,9.547837,-27.100727,-5.3843775
1.2670975,0.63025504,-1.195447,9.246003,-26.243996,-5.214162
1.2270788,0.6103498,-1.1576914,8.953987,-25.415134,-5.049484
1.1883587,0.5910904,-1.1211607,8.671447,-24.613167,-4.8901486
1.1508917,0.5724543,-1.0858123,8.39805,-23.837154,-4.7359705
1.1146345,0.55441993,-1.0516055,8.133482,-23.086199,-4.5867705
1.0795454,0.53696656,-1.0185004,7.877437,-22.359438,-4.442377
1.0455844,0.52007437,-0.9864599,7.629624,-21.656042,-4.3026266
1.0127132,0.5037242,-0.9554475,7.389763,-20.975216,-4.16736
0.98089486,0.48789772,-0.92542833,7.157584,-20.316196,-4.0364256
0.9500938,0.47257724,-0.896369,6.932829,-19.678247,-3.909678
0.920276,0.45774585,-0.86823726,6.7152486,-19.060663,-3.7869763
0.8914085,0.44338715,-0.84100217,6.504603,-18.462765,-3.6681855
0.8634598,0.42948544,-0.81463385,6.3006616,-17.883894,-3.5531754
0.83639944,0.4160256,-0.7891037,6.103202,-17.323421,-3.4418206
0.81019807,0.40299302,-0.7643839,5.9120107,-16.78074,-3.3340008
0.7848274,0.39037365,-0.7404479,5.7268815,-16.255268,-3.2295995
0.7602603,0.37815395,-0.71726996,5.547615,-15.746435,-3.1285048
0.73647034,0.36632082,-0.6948253,5.37402,-15.253701,-3.0306082
0.7134324,0.3548617,-0.67309,5.205912,-14.77654,-2.9358058
0.6911218,0.34376442,-0.652041,5.043112,-14.3144455,-2.8439968
0.66951513,0.33301723,-0.6316561,4.885448,-13.86693,-2.7550843
0.64858955,0.32260886,-0.6119138,4.732754,-13.433522,-2.6689746
0.6283231,0.3125283,-0.5927934,4.58487,-13.013765,-2.5855772
0.60869455,0.30276504,-0.5742748,4.441641,-12.607221,-2.5048048
0.5896834,0.29330888,-0.5563386,4.3029165,-12.213464,-2.4265733
0.57126987,0.28414997,-0.5389663,4.168553,-11.832084,-2.3508008
0.5534348,0.2752788,-0.5221398,4.0384107,-11.462686,-2.2774086
0.5361597,0.26668617,-0.50584155,3.9123542,-11.104886,-2.2063208
0.5194267,0.25836316,-0.49005476,3.7902539,-10.758314,-2.1374638
0.5032186,0.25030124,-0.47476313,3.671983,-10.422613,-2.0707667
0.48751855,0.24249204,-0.45995092,3.5574203,-10.097436,-2.0061605
0.47231054,0.23492756,-0.44560286,3.4464476,-9.782449,-1.9435788
0.45757893,0.22760005,-0.43170428,3.3389509,-9.477329,-1.8829576
0.4433086,0.22050197,-0.41824088,3.2348204,-9.181763,-1.8242345
0.4294849,0.21362606,-0.40519887,3.133949,-8.895449,-1.7673494
0.41609377,0.20696531,-0.39256498,3.036234,-8.618093,-1.7122443
0.40312153,0.2005129,-0.38032627,2.9415755,-8.349413,-1.658863
0.3905549,0.19426227,-0.36847025,2.849877,-8.089134,-1.6071508
0.37838116,0.18820703,-0.3569849,2.7610452,-7.836993,-1.5570552
0.3665879,0.18234105,-0.34585848,2.67499,-7.592732,-1.5085255
0.35516313,0.17665836,-0.33507976,2.5916233,-7.356103,-1.461512
0.34409523,0.17115319,-0.3246377,2.510861,-7.126866,-1.4159671
0.333373,0.16581994,-0.3145218,2.432621,-6.9047885,-1.3718446
0.3229856,0.16065323,-0.30472177,2.356824,-6.6896453,-1.3291
0.31292245,0.15564783,-0.29522768,2.2833934,-6.481219,-1.2876898
0.30317342,0.15079865,-0.28602993,2.2122548,-6.279298,-1.2475721
0.29372865,0.14610082,-0.27711922,2.1433363,-6.0836787,-1.2087064
0.2845786,0.14154957,-0.26848656,2.0765684,-5.894163,-1.1710535
0.27571398,0.13714032,-0.26012322,2.0118835,-5.710561,-1.1345752
0.2671259,0.1328686,-0.25202078,1.9492162,-5.5326853,-1.0992349
0.2588057,0.12873012,-0.24417105,1.8885038,-5.3603578,-1.064997
0.25074497,0.1247207,-0.23656611,1.8296846,-5.1934047,-1.0318266
0.24293558,0.12083631,-0.22919834,1.7726996,-5.031657,-0.99969065
0.23536968,0.11707303,-0.22206026,1.7174913,-4.8749533,-0.96855664
0.22803965,0.11342707,-0.21514472,1.6640041,-4.7231345,-0.9383933
0.22093813,0.10989477,-0.20844477,1.6121843,-4.5760484,-0.9091702
0.21405797,0.10647257,-0.20195365,1.5619798,-4.433547,-0.880858
0.20739223,0.10315703,-0.19566485,1.51334,-4.2954874,-0.85342824
0.20093423,0.099944815,-0.18957204,1.466216,-4.16173,-0.8268533
0.19467749,0.09683271,-0.18366909,1.4205605,-4.0321407,-0.80110645
0.1886157,0.09381757,-0.17795007,1.3763278,-3.9065895,-0.77616197
0.18274279,0.090896375,-0.17240925,1.3334731,-3.7849505,-0.75199467
0.17705286,0.088066205,-0.16704108,1.2919537,-3.6671011,-0.72858036
0.17154019,0.0853242,-0.16184013,1.2517278,-3.5529232,-0.7058955
0.16619927,0.08266762,-0.15680121,1.2127551,-3.4423025,-0.6839173
0.1610247,0.08009379,-0.15191926,1.1749964,-3.3351276,-0.6626238
0.15601134,0.07760014,-0.14718938,1.1384139,-3.2312913,-0.6419936
0.15115413,0.07518416,-0.14260684,1.1029708,-3.1306891,-0.62200594
0.14644821,0.07284343,-0.13816702,1.0686318,-3.0332205,-0.60264087
0.14188886,0.0705756,-0.13386548,1.0353621,-2.9387877,-0.58387893
0.1374715,0.06837841,-0.12969792,1.0031288,-2.847296,-0.5657013
0.13319172,0.066249646,-0.12566014,0.9718992,-2.7586536,-0.5480898
0.12904522,0.06418717,-0.12174811,0.9416422,-2.6727717,-0.5310268
0.12502785,0.06218893,-0.11795791,0.91232747,-2.5895643,-0.51449513
0.12113558,0.060252912,-0.11428574,0.8839256,-2.508948,-0.49847826
0.11736451,0.058377184,-0.11072792,0.8564082,-2.4308422,-0.48296016
0.11371088,0.05655986,-0.10728088,0.8297476,-2.3551683,-0.4679253
0.11017101,0.05479913,-0.10394118,0.8039172,-2.281851,-0.4533586
0.10674136,0.05309322,-0.100705475,0.77889115,-2.2108164,-0.43924543
0.10341851,0.05144043,-0.09757051,0.7546443,-2.1419938,-0.42557174
0.10019911,0.049839098,-0.09453316,0.73115236,-2.075314,-0.41232377
0.09707995,0.04828763,-0.09159038,0.70839185,-2.0107102,-0.3994883
0.09405791,0.04678446,-0.088739224,0.68634003,-1.948118,-0.38705245
0.09112995,0.045328096,-0.08597684,0.66497475,-1.8874745,-0.37500378
0.08829316,0.04391707,-0.08330046,0.6442747,-1.8287191,-0.36333025
0.08554468,0.04254998,-0.0807074,0.62421906,-1.771793,-0.35202017
0.08288178,0.04122545,-0.07819507,0.6047879,-1.7166392,-0.3410622
0.08030178,0.039942153,-0.07576096,0.58596164,-1.6632024,-0.33044538
0.0778021,0.03869881,-0.07340263,0.5677215,-1.6114293,-0.32015908
0.075380236,0.03749418,-0.07111772,0.5500492,-1.561268,-0.310193
0.07303377,0.036327045,-0.068903945,0.53292704,-1.5126683,-0.30053723
0.07076036,0.03519625,-0.06675909,0.51633793,-1.4655815,-0.291182
0.06855772,0.03410065,-0.06468099,0.5002653,-1.4199606,-0.28211805
0.06642365,0.033039168,-0.0626676,0.48469302,-1.3757601,-0.27333626
0.064356014,0.032010723,-0.060716886,0.46960548,-1.3329353,-0.26482785
0.062352747,0.031014295,-0.058826894,0.45498765,-1.2914438,-0.25658432
0.06041184,0.030048888,-0.05699574,0.44082487,-1.2512441,-0.2485974
0.058531355,0.029113533,-0.05522159,0.42710295,-1.2122955,-0.24085912
0.05670941,0.028207295,-0.053502668,0.41380823,-1.1745596,-0.23336172
0.054944176,0.027329268,-0.051837254,0.40092736,-1.1379983,-0.22609772
0.053233895,0.026478574,-0.050223686,0.38844743,-1.1025752,-0.21905984
0.051576857,0.02565436,-0.048660345,0.37635604,-1.0682547,-0.21224105
0.049971398,0.024855806,-0.047145672,0.364641,-1.0350026,-0.20563452
0.048415918,0.024082107,-0.045678146,0.35329068,-1.0027857,-0.19923364
