ax,ay,az,gx,gy,gz
-4.4673133,10.405549,0.38273075,-22.361113,-44.66677,-94.272675
-3.962109,10.965137,0.94127834,-42.969208,-50.86619,-104.20193
-3.158037,11.064951,1.2094162,-59.6361,-53.52126,-100.9425
-2.6449113,11.041217,1.3162951,-74.62173,-52.895226,-93.35432
-2.5243735,10.8529415,1.2379057,-88.64426,-50.41877,-90.710724
-2.710819,10.564668,1.0092143,-98.1152,-51.680668,-94.60756
-2.6872947,10.235586,0.7940937,-107.28383,-54.531548,-99.10225
-2.4163225,9.818806,0.5332,-115.584816,-58.048737,-101.84286
-1.9343191,9.321795,0.23277724,-122.729805,-61.02635,-102.820076
-1.3482254,8.709982,-0.11946845,-128.95493,-62.171337,-102.841156
-0.58511925,7.934119,-0.48413107,-133.69846,-62.190613,-102.07283
0.25721058,7.0889463,-0.7990096,-137.07166,-61.549496,-99.47326
1.0805027,6.2015085,-1.0233946,-139.20602,-60.103977,-95.66277
1.8852476,5.2829523,-1.1599228,-140.26103,-57.406303,-91.25323
2.6964555,4.4000454,-1.2213622,-140.59308,-52.687813,-84.93583
3.4261563,3.4913573,-1.2660933,-140.25223,-46.819336,-77.52654
4.004548,2.573534,-1.344992,-139.14278,-40.41194,-68.898926
4.4217,1.6429183,-1.4759052,-136.88895,-33.698704,-59.346745
4.689883,0.7506634,-1.684484,-133.28436,-26.441517,-49.692326
4.8054233,-0.08243015,-1.9575866,-127.289215,-18.561787,-40.63808
4.7632184,-0.78896695,-2.2558374,-119.86885,-10.79829,-32.183594
4.639958,-1.3385308,-2.525178,-111.25692,-3.4850512,-24.229338
4.4744287,-1.6869493,-2.7339046,-102.39293,3.3683069,-16.643557
4.272917,-1.88157,-2.9033778,-93.701584,9.888616,-9.379924
4.020322,-1.9670221,-3.0537536,-84.611305,15.525132,-2.6539977
3.6987326,-1.8936884,-3.1495728,-75.7602,20.21689,3.0062745
3.3729734,-1.7224642,-3.2038047,-67.525764,24.107735,7.867211
3.0390444,-1.4961423,-3.2373867,-60.021126,27.268797,12.239754
2.6806648,-1.236547,-3.2653186,-53.362366,29.690159,15.957557
2.297929,-0.9460745,-3.289488,-47.648197,31.134127,18.769346
1.8922313,-0.6076287,-3.291373,-42.823517,31.674793,20.823097
1.4703981,-0.26670995,-3.2933517,-38.72179,31.265102,22.076847
1.0285541,0.0643694,-3.304023,-35.313236,29.92837,22.563665
0.5662412,0.3735208,-3.3348756,-32.44503,27.587425,22.066593
0.11201569,0.6448419,-3.4003177,-30.06385,23.97271,20.45825
-0.31409723,0.82949793,-3.545229,-27.626133,19.764502,18.19444
-0.7325979,0.958302,-3.7390976,-24.870655,14.97708,15.31323
-1.1555089,1.0505236,-3.9679198,-21.594084,9.374117,11.636538
-1.5637158,1.1321347,-4.203243,-17.70387,2.9109008,6.697861
-1.9187796,1.2172548,-4.411549,-13.220074,-4.437713,-0.25807175
-2.1370714,1.2944722,-4.5627966,-8.419021,-11.956153,-8.044964
-2.2329164,1.3448541,-4.6669016,-3.3091178,-19.198906,-15.745474
-2.2362263,1.3780367,-4.711426,2.147733,-26.258015,-22.799335
-2.1418347,1.4328809,-4.6811137,7.5420723,-33.802887,-28.71174
-1.9072642,1.4983019,-4.5904574,12.426555,-41.79938,-33.17356
-1.4244399,1.5642815,-4.4459167,17.002333,-49.265522,-36.93932
-0.70504314,1.6346498,-4.2508354,20.999615,-55.30925,-39.57643
0.15878378,1.6703315,-4.015592,24.380299,-59.085297,-40.595028
1.0136396,1.6699792,-3.750454,27.251102,-60.49192,-40.23063
1.7896585,1.6956118,-3.428922,29.313274,-59.908154,-38.280994
2.4760542,1.7473625,-3.04585,30.539623,-57.745586,-35.12483
3.046267,1.8011498,-2.669661,30.727346,-53.884052,-31.17854
3.4909074,1.8240956,-2.3477275,30.073957,-48.405575,-26.644133
3.3747904,1.7634213,-2.2696357,29.073616,-46.795475,-25.757877
3.2629917,1.7050033,-2.194448,28.110476,-45.24525,-24.90458
3.1553082,1.6487358,-2.1220284,27.18279,-43.752094,-24.082695
3.0515513,1.5945199,-2.052249,26.28893,-42.31338,-23.290775
2.9515433,1.5422629,-1.9849908,25.427368,-40.92665,-22.52747
2.8551178,1.4918779,-1.9201422,24.596668,-39.589596,-21.791508
2.7621186,1.4432833,-1.8575977,23.795486,-38.300053,-21.081697
2.6723986,1.3964021,-1.7972587,23.022554,-37.055977,-20.396915
2.5858195,1.3511622,-1.7390319,22.27668,-35.855457,-19.736107
2.5022504,1.307495,-1.6828296,21.556738,-34.696674,-19.09827
2.4215682,1.2653363,-1.6285686,20.861664,-33.57792,-18.482468
2.343656,1.224625,-1.5761706,20.190456,-32.49757,-17.887808
2.2684033,1.1853034,-1.5255612,19.542158,-31.454103,-17.313448
2.1957057,1.1473168,-1.47667,18.91587,-30.446062,-16.758585
2.1254632,1.1106132,-1.4294301,18.310738,-29.472069,-16.222466
2.057582,1.0751435,-1.3837782,17.725945,-28.530815,-15.704366
1.9919721,1.0408604,-1.3396538,17.160719,-27.621058,-15.203603
1.9285482,1.0077198,-1.2969996,16.614326,-26.74161,-14.719523
1.8672287,0.9756786,-1.2557607,16.086063,-25.891342,-14.251508
1.8079364,0.9446967,-1.215885,15.575263,-25.069183,-13.798962
1.750597,0.9147353,-1.1773227,15.081287,-24.274105,-13.361322
1.6951398,0.8857574,-1.1400263,14.603527,-23.505125,-12.938049
1.6414973,0.8577277,-1.1039503,14.1414,-22.761309,-12.5286255
1.5896049,0.8306125,-1.0690513,13.69435,-22.041758,-12.13256
1.5394006,0.80437934,-1.0352875,13.261843,-21.345615,-11.749378
1.4908252,0.77899736,-1.0026193,12.8433695,-20.67206,-11.37863
1.4438219,0.75443685,-0.9710084,12.438439,-20.020304,-11.019881
1.3983364,0.7306694,-0.9404182,12.046584,-19.389593,-10.672715
1.3543162,0.70766765,-0.91081345,11.667353,-18.779202,-10.336735
1.3117114,0.68540543,-0.8821606,11.300315,-18.188435,-10.011556
1.2704736,0.6638576,-0.8544271,10.945054,-17.616625,-9.696811
1.2305567,0.6429999,-0.8275819,10.6011715,-17.06313,-9.392147
1.191916,0.62280905,-0.80159503,10.268285,-16.52733,-9.097224
1.1545088,0.6032627,-0.7764377,9.946024,-16.008635,-8.811716
1.1182939,0.58433944,-0.75208217,9.634034,-15.506472,-8.535308
1.0832316,0.5660184,-0.72850186,9.331975,-15.02029,-8.267697
1.0492836,0.5482797,-0.70567095,9.0395155,-14.549562,-8.008592
1.0164133,0.5311041,-0.68356484,8.75634,-14.093778,-7.7577114
0.9845853,0.514473,-0.6621596,8.482142,-13.652443,-7.514786
0.9537652,0.49836868,-0.6414323,8.21663,-13.225086,-7.2795534
0.92392015,0.4827738,-0.6213607,7.9595165,-12.81125,-7.051763
0.8950184,0.46767184,-0.6019235,7.71053,-12.410492,-6.8311725
0.86702925,0.45304677,-0.5831001,7.469405,-12.022389,-6.617547
0.83992314,0.43888307,-0.56487054,7.2358875,-11.646531,-6.410661
0.8136715,0.42516583,-0.5472156,7.0097313,-11.282521,-6.210297
0.78824675,0.4118807,-0.53011674,6.790698,-10.929976,-6.016244
0.7636222,0.39901373,-0.5135561,6.57856,-10.588529,-5.828299
0.7397723,0.38655147,-0.49751642,6.3730936,-10.257821,-5.646266
0.71667206,0.37448096,-0.4819809,6.1740866,-9.937509,-5.469955
0.6942975,0.36278963,-0.46693343,5.9813313,-9.627259,-5.2991824
0.6726255,0.3514654,-0.45235842,5.794628,-9.326751,-5.133772
0.65163356,0.34049654,-0.4382408,5.613784,-9.035672,-4.9735527
0.63130003,0.3298717,-0.42456597,5.438612,-8.753724,-4.8183584
0.61160403,0.31958,-0.41131985,5.268932,-8.480616,-4.6680293
0.5925252,0.30961078,-0.39848885,5.104569,-8.216064,-4.522412
0.574044,0.29995385,-0.38605976,4.9453545,-7.959801,-4.3813553
0.5561415,0.29059932,-0.37401986,4.791126,-7.7115617,-4.244715
0.53879935,0.28153756,-0.3623568,4.641724,-7.4710927,-4.1123524
0.52199984,0.27275935,-0.3510587,4.4969974,-7.2381477,-3.9841313
0.50572586,0.26425573,-0.340114,4.3567977,-7.012489,-3.859921
0.48996073,0.256018,-0.32951155,4.220982,-6.793887,-3.7395947
0.47468847,0.24803784,-0.31924054,4.0894127,-6.582119,-3.6230302
0.45989352,0.24030708,-0.30929056,3.961955,-6.3769693,-3.5101087
0.44556084,0.23281786,-0.29965144,3.83848,-6.17823,-3.4007154
0.4316759,0.22556259,-0.29031345,3.718862,-5.9856987,-3.2947395
0.41822463,0.21853392,-0.2812671,3.60298,-5.7991805,-3.1920733
0.40519336,0.21172473,-0.27250323,3.4907165,-5.6184864,-3.092613
0.39256892,0.2051281,-0.26401296,3.3819575,-5.443434,-2.9962578
0.38033852,0.19873738,-0.2557877,3.2765934,-5.2738447,-2.90291
0.3684898,0.19254611,-0.24781914,3.1745176,-5.1095486,-2.8124754
0.35701084,0.18654802,-0.24009922,3.0756269,-4.950379,-2.7248628
0.34589,0.18073706,-0.23262015,2.9798212,-4.796175,-2.6399837
0.33511603,0.17510737,-0.22537439,2.8870044,-4.6467814,-2.5577521
0.32467812,0.16965328,-0.21835461,2.7970824,-4.502047,-2.4780855
0.31456572,0.16436929,-0.21155375,2.7099648,-4.361827,-2.4009032
0.30476865,0.15925004,-0.20496497,2.6255636,-4.225979,-2.3261278
0.29527706,0.15429042,-0.19858162,2.543794,-4.0943666,-2.2536836
0.28608134,0.14948541,-0.19239727,2.4645736,-3.9668574,-2.1834981
0.27717233,0.1448302,-0.1864057,2.3878229,-3.843323,-2.1155005
0.26854098,0.14032008,-0.1806009,2.3134644,-3.7236392,-2.0496223
0.26017866,0.13595054,-0.17497702,2.2414234,-3.6076858,-1.9857973
0.25207692,0.13171716,-0.1695284,2.1716275,-3.4953458,-1.9239615
0.24422769,0.12761572,-0.16424957,2.1040068,-3.3865068,-1.8640527
0.23662303,0.12364207,-0.15913524,2.0384932,-3.281059,-1.8060105
0.22925532,0.11979224,-0.15418026,1.9750208,-3.178897,-1.749777
0.22211716,0.11606235,-0.14937966,1.9135259,-3.079918,-1.6952953
0.21520138,0.11244867,-0.14472862,1.8539469,-2.9840226,-1.6425111
0.20850106,0.10894756,-0.14022247,1.796224,-2.8911145,-1.5913713
0.20200945,0.10555552,-0.13585669,1.7402992,-2.8011007,-1.5418246
0.19572006,0.102269135,-0.1316269,1.6861165,-2.7138908,-1.4938211
0.18962656,0.09908512,-0.12752888,1.6336215,-2.6293974,-1.447313
0.18372287,0.09600028,-0.123558484,1.5827615,-2.5475357,-1.4022534
0.17800304,0.09301151,-0.11971176,1.5334855,-2.4682236,-1.3585972
0.17246138,0.09011583,-0.11598483,1.4857444,-2.3913815,-1.3163006
0.16709228,0.08731034,-0.11237397,1.43949,-2.3169327,-1.2753214
0.16189039,0.0845922,-0.108875565,1.394676,-2.2448025,-1.2356184
0.1568505,0.08195872,-0.10548611,1.3512577,-2.1749184,-1.1971517
0.15196756,0.079407245,-0.1022022,1.3091913,-2.1072104,-1.1598829
0.14723666,0.076935224,-0.09902055,1.268435,-2.0416112,-1.1237746
0.1426531,0.07454018,-0.095937975,1.2289478,-1.9780544,-1.0887908
0.13821223,0.072219715,-0.09295138,1.1906902,-1.9164767,-1.0548962
0.13390966,0.0699715,-0.09005778,1.1536237,-1.8568164,-1.0220572
0.12974106,0.06779329,-0.087254286,1.1177114,-1.7990137,-0.9902405
0.12570225,0.065682895,-0.08453808,1.0829172,-1.7430108,-0.95941454
0.12178918,0.06363821,-0.081906445,1.0492065,-1.6887516,-0.9295483
0.11799795,0.06165719,-0.079356745,1.0165453,-1.6361816,-0.900612
0.11432476,0.05973785,-0.07688642,0.98490095,-1.5852485,-0.87257665
0.110765934,0.057878263,-0.07449302,0.9542419,-1.5359012,-0.8454141
0.10731791,0.05607657,-0.07217413,0.9245373,-1.4880902,-0.8190972
0.103977226,0.054330975,-0.06992743,0.89575756,-1.4417677,-0.7935997
0.10074055,0.052639723,-0.067750685,0.8678738,-1.3968873,-0.768896
0.09760464,0.051001124,-0.0656417,0.8408581,-1.3534042,-0.7449613
0.09456636,0.049413536,-0.06359838,0.8146835,-1.3112748,-0.72177184
0.091622666,0.047875375,-0.061618663,0.78932375,-1.2704569,-0.6993043
0.08877061,0.0463851,-0.059700582,0.76475346,-1.2309098,-0.67753613
0.08600734,0.044941213,-0.057842214,0.7409481,-1.1925939,-0.6564457
0.0833301,0.04354228,-0.056041695,0.7178838,-1.1554707,-0.6360118
0.080736205,0.042186897,-0.05429723,0.6955375,-1.1195033,-0.61621404
0.07822305,0.040873706,-0.05260707,0.6738869,-1.0846554,-0.59703255
0.07578814,0.039601397,-0.050969526,0.65291023,-1.0508925,-0.57844824
0.073429026,0.038368694,-0.04938296,0.6325866,-1.0181805,-0.56044245
0.071143344,0.037174363,-0.04784578,0.6128956,-0.9864869,-0.5429971
0.06892882,0.036017213,-0.04635645,0.59381765,-0.95577985,-0.5260949
0.066783234,0.034896083,-0.04491349,0.57533354,-0.9260287,-0.50971884
0.06470443,0.033809856,-0.04351544,0.5574248,-0.89720374,-0.49385256
0.06269035,0.03275744,-0.042160913,0.5400736,-0.86927605,-0.47848016
0.06073896,0.031737782,-0.040848553,0.52326244,-0.8422177,-0.4635863
