ax,ay,az,gx,gy,gz
-5.1027737,3.767307,-3.6973062,64.476036,-18.25562,-51.825016
-4.474898,4.8358765,-3.433674,59.57937,-20.462797,-57.75464
-3.7927277,5.829328,-3.1280644,50.246864,-18.406235,-61.832787
-3.260093,6.7803254,-2.7921727,40.052864,-14.303691,-65.02929
-2.8510554,7.8717685,-2.359245,27.754494,-10.493935,-69.35935
-2.6206844,8.90678,-1.9117198,10.505235,-9.777539,-73.628105
-2.5232468,9.608602,-1.565789,-8.042349,-10.742869,-76.74397
-2.3913925,10.01028,-1.3575875,-25.654474,-12.384206,-78.04499
-2.1661606,10.223856,-1.2410488,-42.264915,-12.782843,-77.00416
-2.0736456,10.236707,-1.2535739,-57.05388,-12.145964,-75.290375
-2.1930711,10.0736885,-1.4106892,-68.61779,-12.276926,-76.9553
-2.359082,9.754949,-1.6535819,-77.66096,-13.248998,-79.96917
-2.4304237,9.350433,-1.9418136,-85.45843,-15.117758,-82.60054
-2.4361725,8.903491,-2.2385912,-92.170525,-17.74473,-84.784676
-2.3478622,8.434395,-2.4967983,-98.01237,-20.705881,-86.859665
-2.155872,7.9114213,-2.7020571,-102.463715,-23.934689,-89.158066
-1.8669654,7.286705,-2.803148,-106.56265,-26.56527,-91.51846
-1.5104461,6.552933,-2.8667755,-110.117455,-28.445288,-93.375534
-1.090892,5.71208,-2.92429,-112.580696,-30.359428,-93.790794
-0.58664584,4.7895937,-2.9712458,-113.84555,-32.635933,-91.840904
-0.0022980392,3.7906842,-2.995682,-113.09372,-34.030785,-87.50929
0.6747323,2.7211041,-2.9842298,-110.68355,-33.15482,-82.92373
1.3156214,1.6843543,-2.9708552,-106.368,-30.382288,-78.23968
1.8690813,0.7364926,-2.9349897,-100.472664,-26.816074,-72.906136
2.3573124,-0.06909006,-2.8632522,-93.28263,-22.740181,-66.909515
2.7741263,-0.6996818,-2.764664,-84.825676,-17.434565,-60.610504
3.1029987,-1.0717553,-2.6541824,-76.2985,-11.427875,-54.20974
3.3524013,-1.2886512,-2.5776112,-67.98886,-4.796361,-47.479008
3.5051746,-1.3751385,-2.5434783,-60.166912,2.3097572,-40.3931
3.56687,-1.3453788,-2.5465813,-53.13261,9.767506,-32.918224
3.5366838,-1.205422,-2.5794406,-47.115204,17.231901,-24.982744
3.3587227,-0.9427975,-2.6292667,-41.79331,23.732801,-17.774927
3.0896747,-0.6635814,-2.7072964,-36.759617,28.865261,-11.677462
2.7774875,-0.38288182,-2.7987814,-32.271168,32.658188,-6.508232
2.4627872,-0.10039938,-2.8976643,-28.443762,35.386234,-1.8040415
2.126633,0.17620775,-3.0136006,-25.160872,36.965057,2.116094
1.7278478,0.45967847,-3.1542768,-22.230854,37.736935,5.110978
1.2693051,0.73399734,-3.3192992,-19.525087,37.47855,6.895282
0.74725115,0.97955376,-3.5090816,-16.780397,35.65602,7.11411
0.22826435,1.2037547,-3.700281,-14.441638,32.446278,6.0617075
-0.23981188,1.3828005,-3.9057014,-12.261419,27.715927,4.100892
-0.61911905,1.4962678,-4.134641,-9.958411,22.248787,2.0971754
-0.97162026,1.5825977,-4.370487,-7.56845,15.91657,0.12565637
-1.3176013,1.6347768,-4.6141534,-4.9636426,8.662339,-2.3328922
-1.6407789,1.6561003,-4.8727,-2.1409,0.36087647,-5.4193482
-1.9001945,1.6354553,-5.1448717,1.0555665,-9.497181,-8.643675
-1.9627652,1.5385532,-5.409924,4.9207134,-19.367842,-11.406343
-1.879018,1.4151993,-5.6015143,9.62114,-28.0819,-14.031694
-1.6811677,1.3194896,-5.676948,14.815959,-35.523205,-16.768358
-1.343812,1.3271693,-5.5771008,20.029222,-42.15343,-19.668098
-0.80768937,1.4526628,-5.2842436,24.520643,-47.71019,-22.205805
0.002011727,1.7164361,-4.749898,27.614313,-51.58036,-23.73022
0.9110538,1.9956052,-4.119308,28.84295,-52.93611,-23.273905
1.7588848,2.2365735,-3.468646,28.18199,-51.60979,-20.818756
2.4425108,2.4110377,-2.8693123,26.06553,-48.12076,-17.005175
2.9256673,2.5048594,-2.368605,22.802336,-42.7822,-12.310754
2.8294616,2.4224913,-2.2907174,22.052519,-41.375378,-11.905935
2.736732,2.3430994,-2.215644,21.329796,-40.01939,-11.515744
2.6473243,2.2665515,-2.14326,20.632961,-38.711975,-11.13953
2.5610936,2.1927235,-2.073448,19.960888,-37.45102,-10.776684
2.4779034,2.1214988,-2.0060976,19.312513,-36.234524,-10.426633
2.3976254,2.0527675,-1.941105,18.686834,-35.060616,-10.088836
2.3201385,1.9864258,-1.878372,18.08291,-33.927517,-9.762783
2.2453282,1.9223757,-1.817806,17.499847,-32.833565,-9.447992
2.1730864,1.8605247,-1.7593194,16.936802,-31.777166,-9.144011
2.1033106,1.8007848,-1.7028292,16.392977,-30.75683,-8.850405
2.0359037,1.7430732,-1.648257,15.867614,-29.771135,-8.566767
1.9707736,1.687311,-1.5955279,15.359997,-28.818733,-8.292709
1.9078326,1.6334231,-1.5445713,14.869442,-27.898346,-8.0278635
1.8469979,1.5813383,-1.4953197,14.395302,-27.008755,-7.77188
1.7881898,1.5309889,-1.4477091,13.936959,-26.148802,-7.524425
1.7313333,1.4823102,-1.4016783,13.493825,-25.317385,-7.2851815
1.6763561,1.4352405,-1.3571692,13.065339,-24.51345,-7.0538464
1.6231898,1.3897214,-1.314126,12.650967,-23.735996,-6.8301306
1.5717688,1.3456963,-1.2724957,12.250196,-22.984064,-6.613759
1.5220304,1.3031119,-1.2322278,11.86254,-22.256737,-6.404467
1.4739145,1.2619168,-1.1932735,11.487532,-21.553137,-6.2020035
1.4273641,1.2220619,-1.1555865,11.124722,-20.872427,-6.0061264
1.382324,1.1835,-1.1191223,10.7736845,-20.213802,-5.8166046
1.3387417,1.1461862,-1.0838382,10.434008,-19.576494,-5.633217
1.2965665,1.1100773,-1.0496935,10.105299,-18.959764,-5.4557505
1.2557501,1.0751317,-1.0166487,9.787181,-18.362906,-5.2840014
1.216246,1.0413095,-0.9846664,9.47929,-17.785234,-5.1177745
1.1780095,1.0085727,-0.9537103,9.181279,-17.2261,-4.956881
1.1409976,0.9768844,-0.92374575,8.892813,-16.684874,-4.801141
1.1051692,0.94620925,-0.8947392,8.61357,-16.160954,-4.6503806
1.0704845,0.9165133,-0.8666586,8.343241,-15.653756,-4.5044327
1.0369053,0.8877639,-0.83947307,8.081528,-15.1627245,-4.3631363
1.0043948,0.8599295,-0.81315273,7.8281446,-14.687322,-4.226337
0.97291756,0.83297974,-0.78766894,7.5828147,-14.227029,-4.093886
0.94243956,0.8068855,-0.7629941,7.345272,-13.781347,-3.9656394
0.91292787,0.7816186,-0.73910165,7.1152616,-13.349796,-3.8414588
0.88435084,0.7571519,-0.7159658,6.892535,-12.931913,-3.7212112
0.85667795,0.73345923,-0.693562,6.6768556,-12.52725,-3.6047678
0.82987964,0.71051544,-0.6718662,6.4679923,-12.135377,-3.4920046
0.8039275,0.6882961,-0.6508555,6.2657247,-11.7558775,-3.3828022
0.77879417,0.66677773,-0.63050765,6.069838,-11.388351,-3.277045
0.75445306,0.64593774,-0.6108013,5.880126,-11.032411,-3.1746213
0.7308787,0.6257541,-0.5917156,5.69639,-10.687681,-3.0754242
0.7080464,0.6062058,-0.5732306,5.5184374,-10.353803,-2.9793491
0.6859322,0.5872724,-0.5553271,5.3460817,-10.030426,-2.8862963
0.6645132,0.56893414,-0.5379864,5.1791444,-9.717215,-2.7961683
0.64376706,0.551172,-0.5211904,5.0174513,-9.413842,-2.7088718
0.6236723,0.53396755,-0.50492185,4.8608346,-9.119995,-2.6243162
0.6042081,0.517303,-0.48916376,4.709133,-8.83537,-2.542414
0.5853545,0.5011611,-0.47389993,4.56219,-8.559672,-2.463081
0.56709194,0.4855253,-0.45911464,4.419853,-8.292618,-2.3862348
0.54940164,0.47037947,-0.4447927,4.281977,-8.033932,-2.311797
0.5322655,0.4557081,-0.43091935,4.14842,-7.7833486,-2.2396905
0.51566595,0.44149607,-0.41748044,4.019045,-7.540612,-2.1698422
0.49958593,0.42772892,-0.40446216,3.893719,-7.305474,-2.10218
0.4840091,0.41439256,-0.39185122,3.7723148,-7.0776925,-2.0366352
0.4689195,0.40147334,-0.37963477,3.654708,-6.8570366,-1.9731404
0.45430174,0.3889581,-0.36780033,3.5407789,-6.6432805,-1.9116312
0.440141,0.37683412,-0.35633585,3.4304116,-6.436207,-1.8520449
0.4264228,0.3650891,-0.3452297,3.3234935,-6.2356052,-1.794321
0.41313326,0.353711,-0.3344705,3.219916,-6.041271,-1.7384006
0.40025884,0.34268838,-0.32404748,3.1195743,-5.8530083,-1.6842271
0.38778654,0.33201,-0.31394994,3.0223665,-5.6706247,-1.6317456
0.37570366,0.32166505,-0.30416772,2.928194,-5.493936,-1.5809027
0.36399803,0.31164306,-0.2946909,2.8369615,-5.322764,-1.5316472
0.35265777,0.30193388,-0.28550988,2.7485766,-5.1569343,-1.483929
0.34167138,0.29252774,-0.27661538,2.66295,-4.99628,-1.4377002
0.33102784,0.28341508,-0.2679984,2.5799954,-4.840639,-1.3929137
0.32071635,0.2745867,-0.2596503,2.4996288,-4.6898537,-1.3495246
0.31072652,0.26603374,-0.25156257,2.4217691,-4.5437717,-1.3074889
0.30104828,0.25774756,-0.2437271,2.3463378,-4.402246,-1.2667644
0.29167184,0.24971977,-0.236136,2.273259,-4.265134,-1.2273098
0.2825878,0.24194232,-0.22878161,2.2024589,-4.1322975,-1.1890856
0.273787,0.23440735,-0.22165652,2.1338663,-4.003603,-1.1520532
0.26526055,0.2271073,-0.21475357,2.0674121,-3.8789203,-1.1161753
0.2569999,0.22003481,-0.2080658,2.0030296,-3.7581244,-1.0814158
0.24899675,0.21318278,-0.20158647,1.9406539,-3.6410937,-1.0477397
0.24124303,0.2065443,-0.1953091,1.8802222,-3.5277107,-1.0151132
0.23373096,0.2001127,-0.18922736,1.8216739,-3.4178612,-0.9835036
0.22645298,0.19388154,-0.18333514,1.7649502,-3.3114347,-0.95287895
0.21940178,0.18784453,-0.17762654,1.7099938,-3.2083247,-0.9232086
0.21257028,0.18199563,-0.17209579,1.6567498,-3.1084273,-0.89446276
0.20595163,0.17632896,-0.16673736,1.6051649,-3.0116425,-0.8666125
0.19953918,0.17083883,-0.16154587,1.5551869,-2.917873,-0.8396299
0.1933265,0.16551974,-0.15651612,1.506766,-2.8270245,-0.8134879
0.18730734,0.16036634,-0.15164305,1.4598533,-2.739006,-0.78816026
0.18147568,0.15537347,-0.14692177,1.414402,-2.6537294,-0.7636215
0.17582569,0.15053612,-0.14234754,1.3703665,-2.571109,-0.7398472
0.17035165,0.14584944,-0.1379158,1.3277024,-2.491062,-0.7168133
0.16504812,0.14130872,-0.1336221,1.2863673,-2.413508,-0.69449687
0.15990975,0.13690944,-0.12946211,1.2463194,-2.3383696,-0.6728754
0.15493143,0.13264716,-0.12543167,1.2075188,-2.265571,-0.65192735
0.15010813,0.12851761,-0.121526755,1.1699266,-2.1950397,-0.6316317
0.14543504,0.12451666,-0.11774345,1.133505,-2.126705,-0.61196804
0.14090747,0.12064031,-0.11407795,1.0982176,-2.060498,-0.5929167
0.13652089,0.11688466,-0.1105266,1.0640291,-1.9963528,-0.5744587
0.1322709,0.113245964,-0.10708583,1.0309051,-1.9342049,-0.5565754
0.12815325,0.109720565,-0.1037522,0.9988126,-1.8739923,-0.539249
0.124163814,0.10630494,-0.10052238,0.9677194,-1.8156545,-0.52246207
0.120298594,0.10299567,-0.09739311,0.9375943,-1.7591332,-0.5061978
0.116553724,0.09978944,-0.09436128,0.90840715,-1.7043718,-0.49043998
0.112925455,0.09668303,-0.091423854,0.8801288,-1.6513153,-0.4751728
0.109410144,0.09367334,-0.08857788,0.85273093,-1.5999109,-0.4603809
0.10600429,0.09075736,-0.08582052,0.826186,-1.5501068,-0.4460496
0.10270447,0.08793217,-0.083149,0.8004676,-1.5018533,-0.43216446
0.09950739,0.08519493,-0.08056066,0.7755499,-1.4551022,-0.41871163
0.09640984,0.08254291,-0.0780529,0.7514079,-1.4098066,-0.40567765
0.093408726,0.07997346,-0.075623214,0.72801757,-1.3659211,-0.39304942
0.09050105,0.077484,-0.07326917,0.7053554,-1.3234019,-0.38081434
0.08768389,0.07507204,-0.07098842,0.6833988,-1.2822065,-0.3689602
0.08495443,0.07273517,-0.068778664,0.6621257,-1.2422935,-0.35747507
0.08230995,0.070471056,-0.0666377,0.6415149,-1.203623,-0.34634748
0.07974779,0.06827742,-0.06456339,0.62154573,-1.1661565,-0.33556634
0.0772654,0.06615207,-0.06255366,0.6021982,-1.1298563,-0.3251208
0.07486028,0.06409289,-0.06060649,0.58345294,-1.0946862,-0.31500044
0.07253004,0.062097814,-0.058719937,0.5652913,-1.0606109,-0.30519512
0.070272334,0.060164843,-0.056892112,0.547695,-1.0275964,-0.29569507
0.06808491,0.058292046,-0.055121187,0.53064644,-0.9956095,-0.28649074
0.065965585,0.056477547,-0.05340539,0.5141286,-0.9646185,-0.27757293
0.06391223,0.054719534,-0.05174301,0.49812505,-0.9345922,-0.26893273
0.061922796,0.053016245,-0.05013237,0.4826196,-0.9055006,-0.26056153
0.05999529,0.051365983,-0.048571873,0.46759683,-0.87731457,-0.25245088
0.058127787,0.04976709,-0.047059953,0.45304173,-0.850006,-0.24459271
0.056318417,0.048217963,-0.0455951,0.4389397,-0.8235475,-0.23697916
