ax,ay,az,gx,gy,gz
-1.7100155,7.130065,-6.9600635,23.970219,41.44856,8.378258
-2.4390025,7.134322,-7.2687836,27.962431,24.927752,-18.151545
-2.9140556,7.208546,-7.8841615,20.10936,8.903327,-34.948887
-3.1084192,7.0088944,-8.431757,9.329167,-5.3342757,-43.47165
-3.275851,6.6022635,-8.999064,-0.7126512,-21.129505,-45.877293
-3.415549,6.1875024,-9.376371,-6.311729,-36.531235,-45.719204
-3.4594307,5.875286,-9.675902,-7.414479,-51.893505,-46.72911
-3.4131317,5.5398483,-9.944714,-6.8279366,-67.43125,-49.278603
-3.273597,5.1683,-10.075834,-5.8887434,-82.78267,-51.74627
-3.0269077,4.784116,-10.078907,-5.5873346,-97.7156,-53.494644
-2.6972814,4.444956,-9.944879,-6.569119,-110.73015,-53.497757
-2.3997703,4.1473866,-9.741482,-9.73136,-123.17565,-52.90091
-2.1122317,3.765042,-9.341092,-12.190356,-133.68518,-52.96096
-1.7779894,3.347708,-8.788923,-13.969484,-141.8995,-53.218838
-1.383724,2.8999465,-8.143908,-15.691651,-148.381,-53.08969
-0.9432144,2.3759325,-7.367621,-16.801926,-152.97835,-51.857304
-0.4320682,1.7992516,-6.4650407,-15.865564,-154.63774,-49.23537
0.14424238,1.3008221,-5.3895288,-13.507223,-154.25418,-46.22636
0.774537,0.94147754,-4.2262845,-10.443197,-151.3001,-43.116035
1.4387543,0.67724705,-3.0425954,-7.3137426,-145.65508,-40.513268
2.1179228,0.47836098,-1.9146146,-3.8443642,-137.20515,-38.19196
2.7532184,0.3536918,-0.92578596,-1.1489478,-125.84385,-35.994648
3.275021,0.26815337,-0.13310435,1.3862687,-113.03981,-33.793926
3.6781964,0.20376052,0.47371227,3.3297095,-98.80504,-31.382278
3.9746153,0.13719867,0.9305933,4.9418845,-83.51538,-28.938011
4.20483,0.06704125,1.2665854,6.595404,-66.13212,-26.59972
4.359371,0.0073784385,1.4170396,10.121236,-46.35989,-23.43428
4.34149,0.059063964,1.2087772,14.628247,-29.081554,-20.394268
4.2165403,0.18532455,0.9022149,18.24582,-15.591292,-18.459396
4.067663,0.34935865,0.5820024,20.381445,-4.8278546,-17.456226
3.9255414,0.51939344,0.2838149,20.861881,4.0625553,-17.157948
3.8090265,0.7447543,0.009211763,19.77215,11.690353,-17.952364
3.6634703,1.0121822,-0.37703618,17.422451,17.25101,-19.25398
3.4768724,1.2666478,-0.77982527,13.210116,20.602108,-20.876295
3.292216,1.4917502,-1.1295816,9.027874,22.911863,-22.668177
3.0980957,1.7172855,-1.4659517,4.8310003,24.29751,-24.575237
2.9052737,1.9051762,-1.7795386,0.9385502,24.890583,-26.863783
2.7160513,2.003494,-2.0756876,-2.0230126,25.105448,-29.15586
2.5193088,2.0442355,-2.3809357,-4.697673,24.552126,-31.220312
2.3094468,2.018119,-2.7073238,-7.4629326,22.725918,-32.959953
2.090531,1.9344796,-3.0232062,-10.187048,19.450214,-34.54435
1.8819938,1.7964307,-3.284663,-12.713803,15.140014,-36.302486
1.6884769,1.5154209,-3.4753473,-14.503718,10.54297,-37.68116
1.5085809,1.1337094,-3.5984993,-15.2687435,5.9302335,-38.046345
1.3284808,0.6996031,-3.6659987,-15.234207,1.371039,-36.966763
1.1431428,0.27087256,-3.6887598,-15.022955,-3.2133431,-34.687458
0.97369903,-0.11753115,-3.6600509,-13.581708,-7.8214192,-32.13347
0.8523293,-0.42845714,-3.5386348,-11.261161,-12.395124,-29.86115
0.8203376,-0.68466085,-3.3068736,-7.9222584,-16.44867,-27.371813
0.9022055,-0.848499,-2.9650187,-3.997089,-19.435804,-24.341297
1.0639884,-0.8901016,-2.5491605,-0.03133021,-20.941769,-20.918339
1.0282791,-0.86022824,-2.463606,-0.03027871,-20.238926,-20.216282
0.9939272,-0.83149046,-2.381304,-0.029267184,-19.5628,-19.540913
0.96086645,-0.8038328,-2.3020954,-0.02829368,-18.912088,-18.890928
0.92903525,-0.77720374,-2.2258325,-0.027356377,-18.285576,-18.265118
0.89837575,-0.75155497,-2.152377,-0.026453579,-17.682127,-17.662342
0.8688342,-0.72684133,-2.0815997,-0.025583697,-17.10068,-17.081547
0.84036005,-0.70302063,-2.0133796,-0.024745246,-16.540241,-16.521736
0.81290585,-0.6800533,-1.9476035,-0.02393683,-15.99988,-15.981978
0.78642726,-0.65790206,-1.8841646,-0.02315714,-15.478719,-15.4614
0.7608823,-0.6365319,-1.8229626,-0.022404945,-14.975935,-14.959179
0.73623157,-0.6159098,-1.7639031,-0.02167908,-14.490751,-14.474538
0.7124379,-0.5960047,-1.706897,-0.02097845,-14.022436,-14.006747
0.6894661,-0.57678723,-1.65186,-0.020302024,-13.570298,-13.555116
0.66728306,-0.5582295,-1.5987126,-0.01964882,-13.133684,-13.118989
0.6458572,-0.54030526,-1.5473794,-0.019017914,-12.711973,-12.69775
0.6251588,-0.5229896,-1.4977889,-0.018408429,-12.30458,-12.2908125
0.60515946,-0.5062587,-1.4498734,-0.01781953,-11.910947,-11.89762
0.58583236,-0.49009028,-1.4035686,-0.017250424,-11.530545,-11.517644
0.567152,-0.4744628,-1.3588133,-0.01670036,-11.162871,-11.150382
0.549094,-0.45935604,-1.3155489,-0.016168626,-10.807448,-10.795357
0.5316352,-0.44475052,-1.2737203,-0.015654534,-10.4638195,-10.452111
0.5147536,-0.43062782,-1.2332742,-0.015157437,-10.131549,-10.1202135
0.49842796,-0.41697028,-1.1941605,-0.014676712,-9.810223,-9.799247
0.48263827,-0.4037611,-1.1563307,-0.014211769,-9.499445,-9.488816
0.46736524,-0.39098412,-1.1197387,-0.013762039,-9.198835,-9.188543
0.45259047,-0.37862396,-1.0843406,-0.013326981,-8.908034,-8.898067
0.43829635,-0.36666593,-1.0500939,-0.012906077,-8.626693,-8.617041
0.42446604,-0.3550959,-1.0169585,-0.0124988295,-8.35448,-8.345132
0.41108334,-0.3439003,-0.9848955,-0.012104762,-8.091077,-8.082024
0.39813274,-0.33306623,-0.9538678,-0.011723419,-7.836179,-7.827411
0.38559937,-0.32258117,-0.9238397,-0.011354362,-7.5894933,-7.5810018
0.37346897,-0.31243324,-0.894777,-0.01099717,-7.3507385,-7.342514
0.3617278,-0.3026109,-0.8666469,-0.0106514385,-7.119645,-7.1116796
0.3503627,-0.2931032,-0.83941776,-0.010316782,-6.895953,-6.888238
0.33936095,-0.28389946,-0.8130592,-0.009992825,-6.679414,-6.6719403
0.32871044,-0.27498955,-0.7875421,-0.009679209,-6.469786,-6.462548
0.31839934,-0.2663636,-0.76283824,-0.009375589,-6.2668405,-6.2598286
0.30841646,-0.2580122,-0.7389207,-0.009081632,-6.0703535,-6.063562
0.29875085,-0.24992622,-0.7157633,-0.008797019,-5.8801117,-5.873533
0.28939205,-0.24209695,-0.693341,-0.0085214395,-5.695909,-5.689536
0.28033,-0.23451589,-0.67162967,-0.008254599,-5.5175467,-5.5113735
0.27155495,-0.22717492,-0.6506059,-0.007996208,-5.3448334,-5.3388534
0.2630575,-0.22006622,-0.63024724,-0.0077459924,-5.1775837,-5.171791
0.25482863,-0.21318218,-0.6105321,-0.007503685,-5.01562,-5.010009
0.24685958,-0.20651552,-0.5914394,-0.0072690286,-4.8587713,-4.853335
0.23914196,-0.20005918,-0.5729492,-0.0070417756,-4.7068706,-4.7016044
0.23166762,-0.19380637,-0.55504173,-0.006821686,-4.559758,-4.5546565
0.22442871,-0.1877505,-0.5376983,-0.006608529,-4.4172792,-4.4123373
0.21741766,-0.18188526,-0.5209009,-0.0064020813,-4.2792854,-4.2744975
0.21062712,-0.1762045,-0.50463176,-0.0062021273,-4.145632,-4.1409936
0.20405005,-0.17070231,-0.48887405,-0.006008459,-4.01618,-4.0116863
0.1976796,-0.16537298,-0.47361138,-0.0058208746,-3.8907945,-3.8864415
0.19150916,-0.16021097,-0.4588279,-0.0056391796,-3.769346,-3.7651286
0.18553236,-0.15521096,-0.4445084,-0.005463187,-3.6517086,-3.647623
0.17974302,-0.15036777,-0.430638,-0.005292714,-3.5377612,-3.533803
0.1741352,-0.14567642,-0.41720244,-0.005127586,-3.427386,-3.4235513
0.1687031,-0.14113209,-0.40418792,-0.0049676322,-3.3204696,-3.3167546
0.16344115,-0.13673009,-0.3915811,-0.004812689,-3.2169023,-3.213303
0.15834397,-0.13246594,-0.379369,-0.0046625976,-3.1165779,-3.113091
0.15340634,-0.12833527,-0.36753914,-0.004517204,-3.019394,-3.0160155
0.1486232,-0.12433383,-0.35607946,-0.0043763597,-2.9252505,-2.9219778
0.14398968,-0.12045757,-0.3449782,-0.004239921,-2.834052,-2.8308814
0.13950107,-0.11670251,-0.33422413,-0.004107749,-2.7457056,-2.7426336
0.13515276,-0.113064855,-0.32380623,-0.003979709,-2.660121,-2.6571445
0.13094036,-0.10954088,-0.31371394,-0.0038556706,-2.5772111,-2.5743275
0.12685958,-0.106127016,-0.303937,-0.0037355078,-2.4968917,-2.4940982
0.122906275,-0.1028198,-0.29446545,-0.0036190988,-2.4190814,-2.416375
0.11907644,-0.09961587,-0.2852897,-0.0035063254,-2.3437014,-2.3410792
0.11536619,-0.09651198,-0.2764005,-0.0033970734,-2.2706752,-2.2681346
0.11177177,-0.093505,-0.2677888,-0.0032912323,-2.1999285,-2.1974673
0.10828955,-0.09059187,-0.2594459,-0.0031886946,-2.1313903,-2.1290057
0.104916,-0.08776966,-0.25136337,-0.0030893572,-2.064991,-2.0626807
0.10164771,-0.08503551,-0.24353305,-0.0029931192,-2.0006635,-1.9984252
0.098481394,-0.08238666,-0.23594701,-0.0028998838,-1.9383432,-1.9361744
0.09541385,-0.07982044,-0.22859763,-0.0028095567,-1.8779666,-1.8758655
0.092441976,-0.07733426,-0.22147745,-0.002722047,-1.8194733,-1.8174376
0.08956279,-0.07492562,-0.21457934,-0.0026372664,-1.7628042,-1.7608318
0.08677338,-0.07259208,-0.20789632,-0.0025551294,-1.7079021,-1.7059913
0.08407094,-0.0703313,-0.20142168,-0.0024755534,-1.6547118,-1.6528605
0.08145276,-0.068141,-0.19514889,-0.0023984583,-1.6031798,-1.6013861
0.078916185,-0.066018976,-0.18907163,-0.0023237665,-1.5532542,-1.5515164
0.07645868,-0.0639631,-0.1831838,-0.0022514027,-1.5048847,-1.503201
0.07407777,-0.061971296,-0.17747949,-0.0021812944,-1.4580228,-1.4563916
0.071771055,-0.06004157,-0.17195295,-0.002113371,-1.4126215,-1.4110409
0.06953623,-0.058171976,-0.16659863,-0.0020475641,-1.3686348,-1.3671036
0.06737104,-0.056360643,-0.16141115,-0.001983808,-1.3260188,-1.3245353
0.065273315,-0.054605745,-0.1563853,-0.0019220383,-1.2847307,-1.2832932
0.063240945,-0.052905526,-0.15151605,-0.0018621931,-1.2447289,-1.2433363
0.06127189,-0.051258273,-0.14679849,-0.0018042125,-1.2059734,-1.2046242
0.05936418,-0.04966234,-0.14222789,-0.001748038,-1.1684253,-1.167118
0.0575159,-0.04811612,-0.13779968,-0.0016936135,-1.1320468,-1.1307802
0.05572519,-0.046618067,-0.1335094,-0.0016408843,-1.0968014,-1.0955743
0.05399026,-0.045166675,-0.12935276,-0.0015897974,-1.062654,-1.061465
0.052309364,-0.043760486,-0.12532559,-0.0015403018,-1.0295701,-1.0284182
0.050680824,-0.0423981,-0.12142384,-0.0014923478,-0.9975166,-0.99640054
0.049103003,-0.04107814,-0.11764361,-0.0014458874,-0.9664614,-0.9653801
0.047574323,-0.039799288,-0.11398111,-0.0014008738,-0.9363734,-0.93532574
0.046093248,-0.038560264,-0.11043268,-0.001357262,-0.9072224,-0.9062074
0.044658296,-0.037359826,-0.10699474,-0.0013150084,-0.8789792,-0.8779958
0.04326803,-0.03619677,-0.10366387,-0.0012740706,-0.85161555,-0.8506627
0.041921057,-0.03506993,-0.10043672,-0.0012344077,-0.82510394,-0.8241808
0.040616024,-0.03397818,-0.09731005,-0.0011959797,-0.7994179,-0.7985235
0.03935163,-0.032920424,-0.09428075,-0.0011587483,-0.77453166,-0.7736651
0.038126606,-0.031895604,-0.091345765,-0.0011226763,-0.75042033,-0.74958074
0.036939725,-0.030902695,-0.088502176,-0.0010877274,-0.7270598,-0.7262463
0.0357898,-0.0299407,-0.08574712,-0.0010538666,-0.7044265,-0.7036384
0.034675676,-0.029008659,-0.08307785,-0.0010210602,-0.68249804,-0.68173444
0.033596244,-0.028105635,-0.080491684,-0.0009892752,-0.66125226,-0.6605124
0.032550417,-0.027230728,-0.07798603,-0.00095847977,-0.640668,-0.63995117
0.03153715,-0.02638306,-0.0755584,-0.0009286431,-0.62072456,-0.62003005
0.030555433,-0.025561782,-0.07320634,-0.00089973543,-0.60140204,-0.60072917
0.029604277,-0.024766074,-0.070927516,-0.0008717277,-0.58268106,-0.58202916
0.028682735,-0.023995139,-0.06871963,-0.000844592,-0.564543,-0.5639113
0.027789881,-0.023248203,-0.06658049,-0.00081830105,-0.5469696,-0.5463576
0.026924826,-0.022524523,-0.06450795,-0.00079282856,-0.5299432,-0.52935034
0.0260867,-0.02182337,-0.062499918,-0.0007681491,-0.513447,-0.5128725
0.025274666,-0.021144047,-0.060554404,-0.000744238,-0.49746427,-0.49690768
0.024487913,-0.020485872,-0.058669455,-0.0007210712,-0.48197913,-0.48143986
0.023725651,-0.019848187,-0.056843188,-0.00069862563,-0.46697605,-0.46645355
0.02298712,-0.019230353,-0.055073775,-0.00067687884,-0.45244002,-0.4519338
0.022271577,-0.018631753,-0.05335944,-0.000655809,-0.4383565,-0.43786603
0.021578312,-0.018051786,-0.051698476,-0.0006353951,-0.4247114,-0.4242362
0.020906627,-0.017489873,-0.050089218,-0.0006156167,-0.4114911,-0.41103068
0.020255852,-0.016945453,-0.048530057,-0.0005964539,-0.3986823,-0.39823624
0.019625334,-0.016417982,-0.04701943,-0.0005778877,-0.38627225,-0.3858401
0.019014444,-0.01590693,-0.04555583,-0.00055989943,-0.37424853,-0.3738298
0.018422572,-0.015411786,-0.044137787,-0.0005424712,-0.3625991,-0.3621934
0.017849123,-0.014932056,-0.04276389,-0.0005255854,-0.3513123,-0.35091925
0.017293526,-0.014467259,-0.041432757,-0.0005092253,-0.34037685,-0.339996
