ax,ay,az,gx,gy,gz
-3.1754835,5.068228,-8.848262,4.3282213,54.210495,-0.2218202
-4.7356825,4.6621695,-10.555795,17.795454,8.28599,-17.332312
-5.05475,4.6556516,-11.596456,19.204634,-32.95321,-32.875847
-4.7194247,4.4236593,-11.987302,22.63154,-67.67961,-47.494324
-4.1564217,3.933219,-11.963565,23.055449,-92.53751,-57.37958
-3.6403542,3.2862828,-11.856565,23.542908,-109.25274,-60.388588
-3.4356327,2.6725152,-11.988507,18.8412,-128.70522,-53.929955
-3.0712485,2.1449058,-12.151306,10.974126,-149.89972,-47.160473
-2.4429882,1.7069077,-11.988143,3.2696092,-168.15952,-44.726753
-1.7149205,1.3102331,-11.430387,-1.0676938,-179.71118,-42.99946
-1.1309314,1.0545439,-10.752053,-4.2131515,-185.7152,-37.76462
-0.75978947,0.8808122,-10.086257,-10.938427,-190.4069,-29.49981
-0.45910215,0.7480717,-9.195989,-16.22665,-194.36714,-22.34962
-0.06398528,0.7094788,-8.048649,-20.864386,-196.61,-18.192858
0.51762164,0.644759,-6.632581,-24.938301,-196.24643,-16.479574
1.2823662,0.47578895,-5.0511904,-28.553555,-191.91296,-15.446552
2.1178052,0.17747748,-3.4737823,-31.759684,-181.95773,-13.544728
2.8813927,-0.24810831,-2.0496511,-33.465267,-169.22739,-11.408649
3.482231,-0.6917344,-0.87170506,-32.453865,-155.18674,-9.561944
3.961199,-1.0549179,0.09254442,-29.186079,-140.135,-8.211361
4.3377085,-1.3041984,0.8576998,-24.813614,-123.76929,-7.5110154
4.583911,-1.4627256,1.4118961,-20.47256,-106.14016,-7.133898
4.7077503,-1.5729095,1.6813736,-15.390539,-88.47867,-6.352363
4.667893,-1.6338388,1.6824764,-9.782502,-73.04033,-5.194919
4.540343,-1.6604757,1.5932316,-3.581174,-59.260704,-4.170833
4.3897853,-1.608581,1.4194654,2.4345543,-47.193832,-3.4318845
4.2628183,-1.5016603,1.2320867,8.272117,-35.58193,-3.1949117
4.131041,-1.2784979,0.9618234,13.45135,-24.825943,-3.3282852
3.9710567,-0.953301,0.62222916,16.651758,-15.624525,-4.3151684
3.797595,-0.6059054,0.28960806,18.643427,-7.615958,-5.907864
3.6236691,-0.23657112,-0.03154839,19.638237,-0.7030648,-8.145476
3.444081,0.1320953,-0.36358976,19.112362,4.769295,-11.253655
3.2323284,0.48723486,-0.73455775,17.93954,8.726087,-15.060836
3.024458,0.84682906,-1.1112013,15.770393,11.148027,-19.695929
2.8263419,1.148818,-1.4759334,12.910906,12.115954,-24.975338
2.6639748,1.3220204,-1.8008739,9.271428,12.007196,-30.065153
2.5485418,1.349857,-2.0844328,5.691185,11.721593,-33.48497
2.3948126,1.2825936,-2.422143,2.7071009,10.455536,-36.13633
2.199705,1.1938093,-2.7722356,-0.5100042,7.741537,-38.71645
1.9926072,1.0213722,-3.0969307,-4.222926,3.572913,-41.04794
1.8152862,0.7269343,-3.338063,-7.7294827,-1.1086557,-42.558296
1.673944,0.3395294,-3.4775274,-9.934997,-5.2396855,-41.852703
1.4898523,-0.04755908,-3.5732002,-11.956116,-9.682837,-39.49626
1.2933307,-0.38377237,-3.606312,-14.309284,-14.716709,-36.632893
1.1324898,-0.7235694,-3.5457497,-15.946862,-19.362883,-34.04759
1.0300996,-1.0802226,-3.4089131,-15.956876,-23.392208,-31.246136
0.99734056,-1.3792267,-3.2147639,-14.472832,-26.72444,-27.035011
1.0363255,-1.5122945,-2.9448137,-12.312211,-29.383331,-22.339705
1.1161635,-1.5305591,-2.6566203,-9.538864,-31.373955,-17.93847
1.0783205,-1.4786662,-2.5665488,-9.215453,-30.310236,-17.330276
1.0419517,-1.4287949,-2.4799862,-8.904641,-29.287952,-16.745773
1.0069818,-1.380842,-2.3967533,-8.605785,-28.304996,-16.183756
0.97334146,-1.3347119,-2.3166845,-8.318291,-27.359407,-15.643102
0.94096553,-1.2903157,-2.2396255,-8.041602,-26.44936,-15.12277
0.90979356,-1.2475706,-2.165432,-7.7752028,-25.573154,-14.621788
0.8797691,-1.2063991,-2.0939696,-7.51861,-24.729206,-14.139249
0.8508394,-1.1667287,-2.0251129,-7.2713733,-23.916027,-13.674303
0.82295495,-1.1284916,-1.9587443,-7.0330696,-23.13223,-13.226157
0.7960694,-1.0916244,-1.894753,-6.803303,-22.376513,-12.794065
0.77013916,-1.0560671,-1.8330356,-6.5817,-21.647646,-12.377327
0.74512327,-1.0217637,-1.7734944,-6.3679113,-20.94448,-11.975283
0.72098315,-0.988661,-1.7160375,-6.161607,-20.265932,-11.587314
0.69768226,-0.95670927,-1.6605784,-5.962475,-19.610973,-11.212832
0.6751863,-0.92586124,-1.6070348,-5.770221,-18.97864,-10.851287
0.65346265,-0.8960723,-1.5553297,-5.5845685,-18.368015,-10.502154
0.63248056,-0.8673003,-1.5053895,-5.4052534,-17.778234,-10.16494
0.6122108,-0.839505,-1.4571446,-5.2320256,-17.208477,-9.839173
0.5926257,-0.8126486,-1.4105295,-5.064649,-16.657965,-9.524411
0.57369894,-0.78669494,-1.3654811,-4.902899,-16.125957,-9.220228
0.55540544,-0.7616097,-1.3219403,-4.7465606,-15.611751,-8.926224
0.53772146,-0.7373602,-1.27985,-4.595431,-15.114676,-8.642015
0.5206243,-0.71391535,-1.2391564,-4.4493165,-14.634095,-8.367237
0.5040923,-0.69124556,-1.1998079,-4.308032,-14.169401,-8.1015415
0.4881048,-0.66932243,-1.1617556,-4.171401,-13.720014,-7.8445983
0.47264212,-0.648119,-1.1249523,-4.039255,-13.285377,-7.5960894
0.4576854,-0.6276093,-1.0893533,-3.9114335,-12.864963,-7.355712
0.44321665,-0.6077688,-1.0549157,-3.7877817,-12.458264,-7.1231766
0.4292186,-0.5885737,-1.0215985,-3.6681526,-12.064796,-6.898206
0.41567472,-0.57000136,-0.9893621,-3.552405,-11.684094,-6.6805353
0.40256917,-0.5520302,-0.9581692,-3.4404037,-11.315715,-6.4699087
0.38988683,-0.53463924,-0.92798346,-3.3320186,-10.959229,-6.2660837
0.37761304,-0.5178086,-0.8987702,-3.2271254,-10.614229,-6.0688252
0.36573386,-0.5015191,-0.87049615,-3.1256046,-10.28032,-5.8779087
0.3542359,-0.48575228,-0.8431294,-3.0273416,-9.957127,-5.693118
0.34310615,-0.47049046,-0.8166391,-2.9322257,-9.644283,-5.5142465
0.33233228,-0.4557166,-0.7909959,-2.8401508,-9.341444,-5.3410935
0.32190233,-0.44141436,-0.7661712,-2.7510154,-9.048271,-5.173468
0.31180483,-0.42756793,-0.74213773,-2.6647208,-8.764442,-5.0111856
0.3020287,-0.41416222,-0.7188692,-2.5811727,-8.489647,-4.854068
0.29256326,-0.4011826,-0.6963402,-2.5002801,-8.223586,-4.701944
0.2833983,-0.388615,-0.6745264,-2.4219553,-7.965971,-4.554649
0.27452394,-0.37644586,-0.6534042,-2.346114,-7.7165236,-4.412024
0.26593062,-0.36466214,-0.63295096,-2.2726746,-7.4749765,-4.2739162
0.2576092,-0.3532512,-0.61314476,-2.2015584,-7.2410707,-4.1401777
0.24955074,-0.3422009,-0.5939646,-2.13269,-7.0145583,-4.010666
0.24174675,-0.33149955,-0.57539004,-2.0659962,-6.795198,-3.885244
0.23418897,-0.32113582,-0.5574015,-2.0014067,-6.5827584,-3.7637787
0.22686943,-0.31109878,-0.53998,-1.9388529,-6.377015,-3.6461425
0.21978046,-0.3013779,-0.5231073,-1.8782697,-6.177753,-3.5322115
0.21291462,-0.29196295,-0.5067656,-1.8195933,-5.9847627,-3.421867
0.20626472,-0.2828442,-0.49093798,-1.7627625,-5.7978425,-3.314993
0.19982387,-0.27401206,-0.47560787,-1.7077183,-5.6167984,-3.2114785
0.19358535,-0.2654574,-0.46075937,-1.6544032,-5.4414415,-3.1112158
0.18754272,-0.2571713,-0.4463771,-1.6027622,-5.2715907,-3.0141013
0.18168971,-0.24914527,-0.43244612,-1.5527416,-5.10707,-2.9200344
0.17602028,-0.24137096,-0.41895214,-1.5042901,-4.947709,-2.828918
0.17052859,-0.23384039,-0.40588117,-1.4573574,-4.793345,-2.740658
0.16520901,-0.2265458,-0.39321983,-1.4118956,-4.643818,-2.655164
0.16005604,-0.21947971,-0.38095507,-1.3678578,-4.498975,-2.5723479
0.15506443,-0.21263488,-0.36907437,-1.3251989,-4.358667,-2.492125
0.15022907,-0.20600429,-0.35756552,-1.2838752,-4.2227507,-2.4144132
0.14554499,-0.19958118,-0.3464168,-1.2438446,-4.0910873,-2.339133
0.14100745,-0.19335899,-0.33561683,-1.2050662,-3.9635425,-2.2662077
0.13661179,-0.18733136,-0.32515457,-1.1675004,-3.8399858,-2.1955626
0.13235354,-0.18149216,-0.31501937,-1.131109,-3.720292,-2.127126
0.1282284,-0.17583548,-0.30520093,-1.0958549,-3.6043391,-2.0608284
0.12423213,-0.17035553,-0.29568928,-1.0617024,-3.4920092,-1.9966023
0.1203607,-0.16504677,-0.28647476,-1.0286167,-3.3831882,-1.9343824
0.116610184,-0.15990381,-0.27754804,-0.9965644,-3.277766,-1.8741059
0.11297678,-0.15492143,-0.26890007,-0.9655129,-3.1756356,-1.8157115
0.10945681,-0.15009461,-0.26052204,-0.93543077,-3.0766935,-1.7591401
0.10604671,-0.14541845,-0.25240555,-0.90628767,-2.98084,-1.7043345
0.10274303,-0.14088821,-0.24454235,-0.878054,-2.8879778,-1.6512393
0.09954244,-0.13649935,-0.2369245,-0.8507014,-2.7980132,-1.5998008
0.0964417,-0.1322474,-0.22954431,-0.8242021,-2.7108552,-1.5499672
0.09343769,-0.1281281,-0.22239436,-0.79852945,-2.6264162,-1.501688
0.09052737,-0.124137275,-0.21546741,-0.77365756,-2.5446107,-1.4549147
0.08770781,-0.12027091,-0.20875648,-0.7495613,-2.4653566,-1.4096001
0.084976174,-0.1165251,-0.20225482,-0.7262164,-2.3885736,-1.3656985
0.08232971,-0.112896085,-0.19595586,-0.7035994,-2.314185,-1.3231657
0.07976575,-0.10938021,-0.1898533,-0.6816875,-2.242115,-1.2819588
0.07728171,-0.10597393,-0.18394095,-0.6604586,-2.172292,-1.2420366
0.07487511,-0.10267383,-0.1782129,-0.63989145,-2.1046453,-1.2033587
0.07254351,-0.09947658,-0.17266338,-0.6199654,-2.039107,-1.1658863
0.07028457,-0.096378975,-0.1672868,-0.6006602,-1.9756111,-1.1295817
0.06809603,-0.093377896,-0.16207778,-0.5819567,-1.914094,-1.0944084
0.06597568,-0.09047034,-0.15703107,-0.563836,-1.8544937,-1.0603312
0.06392141,-0.08765337,-0.1521416,-0.54627985,-1.7967505,-1.0273157
0.06193113,-0.08492417,-0.14740448,-0.5292707,-1.7408063,-0.99532896
0.06000286,-0.082279995,-0.14281493,-0.5127915,-1.6866051,-0.96433866
0.05813466,-0.079718195,-0.13836837,-0.49682567,-1.6340925,-0.93431383
0.05632466,-0.0772362,-0.13406032,-0.48135716,-1.5832155,-0.9052243
0.05457104,-0.074831516,-0.12988646,-0.46637052,-1.5339234,-0.8770409
0.05287204,-0.072501734,-0.12584262,-0.45185068,-1.4861667,-0.8497354
0.05122596,-0.07024451,-0.12192473,-0.4377831,-1.4398975,-0.82328033
0.04963115,-0.068057604,-0.11812886,-0.42415366,-1.3950694,-0.79764926
0.04808601,-0.0659388,-0.114451215,-0.4109487,-1.3516374,-0.7728165
0.046588987,-0.06388598,-0.1108881,-0.39815497,-1.309558,-0.74875706
0.045138586,-0.061897095,-0.10743596,-0.38575968,-1.268789,-0.7254469
0.043733355,-0.059970148,-0.10409132,-0.37375042,-1.2292898,-0.7028626
0.042371884,-0.058103204,-0.10085083,-0.36211511,-1.1910205,-0.68098164
0.041052807,-0.056294397,-0.09771124,-0.35084212,-1.153943,-0.65978205
0.039774805,-0.054541916,-0.09466943,-0.33992016,-1.1180199,-0.6392426
0.0385366,-0.052844,-0.09172233,-0.3293383,-1.0832155,-0.6193427
0.037336946,-0.051198956,-0.088866994,-0.31908596,-1.0494947,-0.60006243
0.036174648,-0.049605135,-0.08610056,-0.3091528,-1.016824,-0.5813825
0.03504854,-0.048060935,-0.08342027,-0.29952893,-0.9851705,-0.56328416
0.033957493,-0.046564817,-0.08082343,-0.29020473,-0.95450246,-0.54574937
0.032900415,-0.04511528,-0.07830744,-0.28117082,-0.92478937,-0.5287605
0.031876247,-0.043710876,-0.07586979,-0.27241817,-0.89600134,-0.5123006
0.03088397,-0.042350195,-0.07350803,-0.26393804,-0.86810964,-0.49635312
0.029922584,-0.04103188,-0.0712198,-0.25572193,-0.84108627,-0.48090217
0.02899113,-0.039754603,-0.069002815,-0.24776159,-0.8149043,-0.46593225
0.028088672,-0.038517095,-0.06685485,-0.24004911,-0.7895374,-0.45142838
0.027214313,-0.037318114,-0.06477375,-0.23257671,-0.76496017,-0.43737605
0.026367173,-0.036156457,-0.06275745,-0.22533695,-0.7411481,-0.42376122
0.025546405,-0.035030965,-0.06080391,-0.21832259,-0.7180774,-0.41057023
0.02475119,-0.033940513,-0.05891119,-0.21152659,-0.6957249,-0.3977899
0.023980731,-0.032884005,-0.057077393,-0.20494215,-0.6740683,-0.38540742
0.023234257,-0.031860393,-0.055300683,-0.1985627,-0.6530858,-0.37341043
0.022511022,-0.030868642,-0.053579282,-0.19238184,-0.6327566,-0.3617869
0.0218103,-0.029907765,-0.05191147,-0.1863934,-0.6130602,-0.35052523
0.021131393,-0.0289768,-0.05029558,-0.18059137,-0.593977,-0.33961415
0.02047362,-0.028074818,-0.04872999,-0.17496997,-0.5754878,-0.3290427
0.019836323,-0.027200913,-0.047213137,-0.16952355,-0.55757415,-0.31880036
0.019218864,-0.026354212,-0.045743503,-0.16424668,-0.5402182,-0.30887687
0.018620627,-0.025533868,-0.04431962,-0.15913408,-0.5234025,-0.29926226
0.018041013,-0.024739062,-0.042940058,-0.15418063,-0.50711024,-0.28994697
0.017479442,-0.023968996,-0.041603442,-0.14938137,-0.49132517,-0.28092164
0.016935352,-0.023222903,-0.04030843,-0.1447315,-0.47603148,-0.27217728
