ax,ay,az,gx,gy,gz
-0.5963691,3.758216,-4.1545835,14.093764,58.4278,-12.262839
-0.9687904,3.9787173,-4.979546,11.130252,62.636528,-12.439685
-1.611312,4.061539,-6.05939,16.705107,58.50953,-13.331079
-2.3437002,4.207068,-7.180024,18.48777,44.87337,-17.164991
-2.941602,4.2804527,-8.050936,19.127289,24.952307,-21.7745
-3.3424845,4.291962,-8.733924,19.870953,5.752779,-26.797035
-3.5804844,4.1670814,-9.260313,20.266743,-13.527643,-31.248123
-3.648283,3.9549475,-9.57582,21.501188,-30.381466,-34.086266
-3.57866,3.7115526,-9.751674,22.748188,-45.520374,-35.277046
-3.415396,3.4708781,-9.839927,22.948956,-60.2824,-33.772514
-3.1860886,3.3091502,-9.857189,21.280918,-73.811005,-31.163183
-2.9445934,3.182406,-9.831672,18.863811,-86.655495,-28.357418
-2.6916208,3.0837686,-9.737102,15.051834,-99.09945,-25.766085
-2.4263413,3.0052598,-9.521259,9.8070965,-111.564384,-23.130716
-2.1195009,2.8723347,-9.096787,1.0578736,-122.59377,-19.648724
-1.7235608,2.5166118,-8.331681,-7.8121524,-130.78633,-15.716904
-1.2397326,1.986048,-7.3784227,-14.979824,-136.30933,-11.892413
-0.64403,1.3816513,-6.2367644,-20.139719,-138.67053,-8.256986
0.047092617,0.7255162,-4.9781933,-22.82697,-137.70987,-4.8917003
0.7684041,0.048130337,-3.6866186,-22.701006,-132.99327,-1.1457798
1.522659,-0.53710324,-2.4121552,-20.395563,-125.40411,2.1003861
2.235291,-0.95173454,-1.2681341,-16.214088,-114.71541,4.436602
2.8213434,-1.1810806,-0.37194648,-10.303479,-101.838745,6.062649
3.2500913,-1.2415141,0.2738056,-4.030097,-88.70916,7.1117916
3.565658,-1.1917375,0.7374106,1.2855283,-74.89272,8.032833
3.763289,-1.0985264,1.0143389,6.037264,-60.555172,8.873328
3.9032202,-1.0240728,1.2000605,10.563829,-44.59305,9.691276
4.0258436,-0.963435,1.3154746,15.365583,-26.667307,10.559333
4.1203756,-0.9106199,1.247887,22.00037,-7.9795003,11.132326
4.0975275,-0.7522436,0.85353553,28.328285,6.0664215,10.598092
3.9335854,-0.50092775,0.37744892,31.71767,15.759399,9.33514
3.7834594,-0.24902453,0.005003384,33.97845,22.871552,7.4552984
3.6628587,0.035003122,-0.32648793,34.27963,28.441486,4.858385
3.560768,0.31004485,-0.6285025,33.77302,33.441593,1.6149253
3.4395723,0.5648407,-0.96293145,32.76482,37.27934,-2.275851
3.24766,0.78757596,-1.3810399,30.829222,39.124676,-6.3857355
3.059847,0.95253533,-1.764973,28.728258,38.7299,-10.770416
2.9211671,1.0590988,-2.0820713,26.468542,37.610962,-15.053025
2.810559,1.1150798,-2.3775492,23.794342,36.1309,-18.811459
2.6763058,1.1371261,-2.6790502,20.134537,33.79874,-22.256886
2.4780686,1.0736167,-2.9982011,16.08861,30.471308,-25.450844
2.239488,0.9527092,-3.32028,12.148583,25.844576,-28.369352
1.9968452,0.799563,-3.6003757,8.44578,19.924932,-31.199982
1.7954565,0.567499,-3.7809117,5.364422,13.786505,-33.363083
1.6353114,0.23962778,-3.8731773,2.8502548,8.082875,-33.024235
1.4817059,-0.14750797,-3.8968704,0.58145964,2.4317114,-30.750402
1.338889,-0.50611126,-3.8778222,-0.6689314,-3.1801598,-27.37376
1.222383,-0.7721901,-3.8132453,-0.59992653,-8.520157,-24.153133
1.1570451,-0.986194,-3.6840534,0.24458882,-13.290569,-21.119682
1.1804378,-1.163508,-3.4420073,1.8607635,-16.713821,-16.81948
1.3013691,-1.2159369,-3.1125588,3.4633572,-18.968262,-11.715178
1.2576928,-1.1751279,-3.0080957,3.3471208,-18.331652,-11.321995
1.2156768,-1.1358702,-2.9076037,3.2353032,-17.719244,-10.943759
1.1752402,-1.0980881,-2.810889,3.1276882,-17.129854,-10.579741
1.1363072,-1.0617111,-2.717771,3.0240753,-16.562382,-10.229259
1.0988075,-1.0266731,-2.6280808,2.9242766,-16.0158,-9.891679
1.0626751,-0.99291265,-2.5416608,2.8281167,-15.489148,-9.566407
1.0278481,-0.9603721,-2.4583633,2.7354312,-14.981524,-9.252889
0.99426883,-0.92899716,-2.3780496,2.646066,-14.492085,-8.950602
0.9618827,-0.89873713,-2.30059,2.5598762,-14.020038,-8.659056
0.9306386,-0.8695441,-2.2258615,2.4767256,-13.564634,-8.3777895
0.9004882,-0.841373,-2.1537492,2.3964858,-13.125174,-8.10637
0.87138605,-0.8141814,-2.0841439,2.3190355,-12.700992,-7.8443866
0.84328914,-0.787929,-2.016943,2.2442608,-12.291463,-7.591453
0.8161569,-0.76257795,-1.9520493,2.1720533,-11.895993,-7.3472033
0.7899509,-0.73809224,-1.8893707,2.1023107,-11.514024,-7.1112914
0.76463455,-0.71443784,-1.8288201,2.034936,-11.145022,-6.8833885
0.7401733,-0.69158244,-1.7703148,1.9698367,-10.788485,-6.6631837
0.71653426,-0.6694953,-1.713776,1.9069257,-10.443931,-6.450381
0.6936862,-0.64814717,-1.659129,1.8461198,-10.110907,-6.244698
0.6715994,-0.6275103,-1.6063027,1.7873398,-9.788978,-6.0458684
0.6502455,-0.60755825,-1.5552293,1.7305102,-9.477731,-5.8536363
0.6295974,-0.5882657,-1.5058442,1.6755593,-9.176773,-5.6677585
0.6096295,-0.5696086,-1.4580858,1.6224182,-8.885728,-5.4880033
0.5903171,-0.551564,-1.411895,1.5710216,-8.604238,-5.314149
0.57163656,-0.5341098,-1.3672159,1.5213068,-8.331957,-5.145983
0.55356544,-0.517225,-1.3239942,1.4732139,-8.06856,-4.983304
0.53608227,-0.5008896,-1.2821786,1.4266856,-7.8137317,-4.825917
0.51916635,-0.48508415,-1.2417198,1.3816669,-7.567171,-4.6736364
0.5027979,-0.46979025,-1.2025704,1.3381052,-7.328591,-4.526284
0.48695794,-0.45499018,-1.1646852,1.2959502,-7.097714,-4.3836904
0.47162834,-0.4406669,-1.1280205,1.2551532,-6.8742757,-4.24569
0.45679158,-0.42680418,-1.0925345,1.2156678,-6.6580205,-4.112127
0.4424309,-0.41338626,-1.0581874,1.1774495,-6.4487047,-3.9828491
0.4285302,-0.40039808,-1.0249401,1.1404552,-6.2460933,-3.8577123
0.41507393,-0.3878252,-0.99275607,1.1046438,-6.04996,-3.7365763
0.40204722,-0.37565365,-0.9615993,1.0699756,-5.8600874,-3.6193073
0.38943568,-0.36387005,-0.93143564,1.0364124,-5.6762667,-3.505776
0.37722555,-0.3524615,-0.90223193,1.0039172,-5.4982963,-3.3958578
0.3654035,-0.34141552,-0.87395644,0.972455,-5.3259826,-3.2894335
0.35395673,-0.33072022,-0.84657854,0.9419915,-5.1591387,-3.1863873
0.3428729,-0.320364,-0.8200687,0.9124939,-4.997585,-3.0866084
0.33214006,-0.3103358,-0.7943984,0.88393044,-4.8411474,-2.9899895
0.32174683,-0.30062482,-0.76954025,0.8562707,-4.689659,-2.8964274
0.31168205,-0.29122075,-0.7454678,0.8294851,-4.542959,-2.8058224
0.30193508,-0.28211367,-0.7221554,0.80354536,-4.400891,-2.7180784
0.2924956,-0.27329388,-0.6995785,0.77842396,-4.263305,-2.6331024
0.28335372,-0.26475215,-0.6777133,0.7540944,-4.130056,-2.5508053
0.27449977,-0.25647944,-0.6565368,0.7305313,-4.001004,-2.4711003
0.2659245,-0.24846713,-0.63602686,0.7077098,-3.8760147,-2.3939042
0.257619,-0.24070685,-0.61616206,0.6856061,-3.7549565,-2.3191361
0.24957454,-0.23319049,-0.5969217,0.66419727,-3.6377037,-2.2467186
0.24178281,-0.22591028,-0.57828575,0.64346105,-3.5241344,-2.176576
0.23423572,-0.21885864,-0.56023496,0.62337583,-3.414131,-2.1086354
0.22692548,-0.2120283,-0.54275066,0.60392094,-3.3075795,-2.0428271
0.2198445,-0.20541218,-0.5258147,0.5850762,-3.20437,-1.9790831
0.21298555,-0.19900349,-0.5094097,0.56682235,-3.1043963,-1.9173373
0.20634152,-0.19279563,-0.49351883,0.54914045,-3.0075557,-1.8575265
0.19990562,-0.18678223,-0.4781257,0.53201246,-2.9137483,-1.7995893
0.19367123,-0.18095712,-0.46321458,0.5154208,-2.8228784,-1.7434661
0.187632,-0.17531434,-0.44877017,0.49934846,-2.7348526,-1.6890997
0.18178171,-0.16984813,-0.43477774,0.483779,-2.6495812,-1.6364343
0.17611444,-0.1645529,-0.42122298,0.4686966,-2.566977,-1.5854164
0.17062438,-0.15942325,-0.40809208,0.4540858,-2.4869561,-1.5359938
0.16530596,-0.15445396,-0.3953717,0.43993175,-2.4094367,-1.4881164
0.16015375,-0.14964,-0.38304886,0.4262201,-2.33434,-1.4417351
0.15516253,-0.14497642,-0.3711111,0.41293687,-2.26159,-1.3968033
0.15032722,-0.14045855,-0.3595462,0.40006858,-2.1911125,-1.3532748
0.14564294,-0.13608177,-0.34834254,0.3876022,-2.122836,-1.311106
0.1411049,-0.13184166,-0.33748868,0.3755251,-2.0566914,-1.2702538
0.13670856,-0.12773393,-0.32697368,0.363825,-1.992612,-1.230677
0.13244943,-0.123754404,-0.3167869,0.35249013,-1.9305327,-1.1923356
0.12832323,-0.11989908,-0.30691803,0.34150898,-1.8703907,-1.1551907
0.12432578,-0.11616405,-0.29735708,0.33087048,-1.8121253,-1.1192049
0.120453045,-0.11254555,-0.28809443,0.32056388,-1.7556778,-1.0843418
0.11670111,-0.109039925,-0.2791207,0.31057882,-1.700991,-1.0505661
0.113066204,-0.105643645,-0.2704269,0.30090517,-1.64801,-1.017844
0.10954466,-0.102353275,-0.26200423,0.2915332,-1.5966812,-0.9861423
0.10613292,-0.099165514,-0.25384417,0.28245348,-1.5469531,-0.95542914
0.10282755,-0.09607714,-0.24593854,0.27365685,-1.4987754,-0.9256736
0.09962524,-0.09308504,-0.23827937,0.26513445,-1.4520996,-0.89684576
0.09652274,-0.09018623,-0.23085897,0.25687775,-1.4068788,-0.8689165
0.09351696,-0.087377764,-0.22366986,0.24887839,-1.3630676,-0.84185785
0.09060486,-0.084656835,-0.21670482,0.24112836,-1.320622,-0.81564254
0.08778351,-0.0820207,-0.20995682,0.23361985,-1.279499,-0.79024416
0.085050076,-0.079466715,-0.20341913,0.22634533,-1.2396576,-0.76563734
0.08240182,-0.07699232,-0.19708516,0.21929748,-1.2010577,-0.7417972
0.079836085,-0.07459501,-0.19094853,0.21246924,-1.1636604,-0.71869993
0.07735028,-0.0722724,-0.1850031,0.20585373,-1.1274284,-0.6963223
0.074941926,-0.07002215,-0.1792429,0.19944432,-1.0923251,-0.6746418
0.0726086,-0.067842,-0.17366214,0.1932346,-1.0583154,-0.65363675
0.07034796,-0.06572976,-0.16825524,0.18721831,-1.0253651,-0.633286
0.06815773,-0.06368332,-0.16301675,0.18138942,-0.9934412,-0.61356914
0.06603573,-0.061700623,-0.15794143,0.1757421,-0.9625117,-0.5944665
0.06397982,-0.05977968,-0.1530242,0.17027067,-0.9325456,-0.5759588
0.061987948,-0.057918567,-0.14826012,0.16496965,-0.9035128,-0.55802757
0.060058106,-0.05611542,-0.1436444,0.15983374,-0.87538415,-0.5406548
0.05818837,-0.054368425,-0.13917245,0.15485777,-0.8481316,-0.523823
0.05637686,-0.052675836,-0.13483976,0.15003677,-0.8217277,-0.5075155
0.054621764,-0.05103596,-0.130642,0.14536591,-0.7961461,-0.49171576
0.05292132,-0.04944715,-0.12657495,0.14084049,-0.7713611,-0.47640803
0.051273834,-0.047907814,-0.12263456,0.136456,-0.7473479,-0.46157703
0.049677644,-0.04641641,-0.11881686,0.13220802,-0.72408247,-0.4472078
0.048131157,-0.044971447,-0.11511804,0.12809233,-0.7015415,-0.43328604
0.046632823,-0.043571476,-0.111534394,0.12410479,-0.67970234,-0.41979775
0.045181144,-0.042215098,-0.10806233,0.12024141,-0.6585432,-0.40672946
0.043774664,-0.04090095,-0.104698375,0.11649832,-0.63804287,-0.39406806
0.042411976,-0.03962772,-0.101439156,0.11287177,-0.6181809,-0.38180086
0.041091718,-0.03839413,-0.09828141,0.10935814,-0.5989373,-0.36991563
0.03981256,-0.03719895,-0.09522198,0.1059539,-0.58029276,-0.35840043
0.03857323,-0.03604098,-0.092257805,0.10265565,-0.5622288,-0.34724373
0.03737249,-0.03491906,-0.08938592,0.09946009,-0.5447272,-0.3364344
0.036209125,-0.033832073,-0.08660344,0.096364014,-0.52777046,-0.3259616
0.035081983,-0.032778922,-0.08390759,0.09336432,-0.51134163,-0.31581482
0.033989932,-0.03175856,-0.08129566,0.09045803,-0.49542433,-0.30598396
0.032931875,-0.030769968,-0.07876506,0.08764221,-0.48000252,-0.29645917
0.03190676,-0.02981215,-0.07631323,0.08491405,-0.46506083,-0.28723088
0.03091356,-0.028884148,-0.07393773,0.08227082,-0.4505843,-0.27828988
0.029951276,-0.027985038,-0.071636185,0.07970988,-0.43655843,-0.2696272
0.029018952,-0.027113918,-0.069406286,0.077228665,-0.42296922,-0.26123425
0.02811565,-0.026269916,-0.06724581,0.07482469,-0.40980303,-0.25310254
0.027240468,-0.02545219,-0.065152586,0.07249556,-0.39704672,-0.245224
0.02639253,-0.024659917,-0.06312453,0.070238926,-0.3846875,-0.2375907
0.02557099,-0.023892308,-0.0611596,0.068052545,-0.37271303,-0.23019503
0.024775025,-0.023148596,-0.059255842,0.065934226,-0.36111134,-0.22302958
0.024003835,-0.022428034,-0.057411347,0.06388185,-0.3498708,-0.21608719
0.023256654,-0.021729903,-0.05562427,0.06189336,-0.33898017,-0.20936093
0.022532731,-0.021053504,-0.053892825,0.059966773,-0.32842854,-0.20284404
0.021831345,-0.020398162,-0.052215274,0.058100156,-0.3182054,-0.19653001
0.02115179,-0.01976322,-0.05058995,0.056291647,-0.30830047,-0.19041254
