ax,ay,az,gx,gy,gz
-4.2327657,7.56916,-11.85829,-12.928299,-138.88399,-46.275875
-4.1128078,7.749665,-12.019673,-44.690395,-156.72624,-58.019413
-3.7085893,7.0885754,-11.889867,-67.88227,-174.52162,-63.846287
-3.0269005,5.969419,-11.637258,-83.553566,-190.05574,-64.8465
-2.1889536,4.8652015,-11.2832365,-96.65667,-203.61736,-61.38483
-1.292999,3.9215448,-10.862025,-108.95296,-214.70728,-55.791798
-0.48016748,3.0551126,-10.420138,-118.57835,-223.84763,-50.250584
0.30363038,2.1197689,-9.775205,-117.9971,-227.10342,-43.22253
1.064566,1.3790249,-8.839804,-113.205635,-224.8262,-36.675163
1.6532184,0.8636591,-7.815515,-109.78119,-220.65071,-30.321377
2.0484986,0.38901302,-6.62145,-108.50787,-215.00804,-24.060238
2.319752,-0.13548857,-5.321274,-107.483604,-208.34203,-18.206627
2.5718951,-0.66591054,-3.9939368,-104.65545,-199.81128,-14.432663
2.888561,-1.2119232,-2.6613207,-100.38181,-190.58884,-13.010055
3.2614377,-1.7328095,-1.3943725,-94.24754,-180.61456,-12.534768
3.6773846,-2.2167675,-0.24114747,-86.35821,-169.36464,-11.961596
4.094646,-2.6140404,0.74323237,-77.38638,-157.1409,-11.06137
4.467447,-2.8630023,1.5507146,-67.371124,-143.50562,-10.2163
4.7446475,-2.9226525,2.1471198,-57.796608,-129.39206,-9.502394
4.910018,-2.9043183,2.5844777,-49.032547,-114.89744,-8.713497
4.977884,-2.857283,2.8706439,-40.635315,-100.4192,-8.002559
4.9952226,-2.7767801,3.0256193,-33.29722,-86.1588,-7.4954166
4.962055,-2.6961606,3.052214,-25.74038,-72.0706,-6.6834626
4.887188,-2.600915,2.9734397,-17.372942,-58.107227,-5.262965
4.8081913,-2.470189,2.88993,-7.7232914,-43.172695,-3.0383322
4.6883307,-2.221708,2.6856725,0.9314016,-29.400484,-1.2812877
4.503074,-1.8865842,2.3693266,6.8009405,-17.386007,-1.215355
4.2811255,-1.5542564,2.005461,10.250864,-7.6509056,-2.7168586
4.0561543,-1.2138684,1.6167895,12.437827,0.24838759,-4.61848
3.8534832,-0.8431521,1.221387,12.935549,6.469104,-6.842369
3.682378,-0.4697489,0.8273495,12.10408,11.431145,-9.680766
3.5382013,-0.13675958,0.44205028,10.6057825,15.5232,-13.230615
3.4065652,0.15750276,0.037119173,8.7255,17.974817,-17.720789
3.2725291,0.40470538,-0.40161276,6.3157516,18.880335,-22.876413
3.1160805,0.5709314,-0.8455914,3.5555902,18.066532,-28.143688
2.939702,0.64969754,-1.2689228,0.2932013,16.001879,-32.978848
2.7720468,0.61608493,-1.6435184,-2.995952,13.570625,-36.784805
2.597296,0.49185884,-1.9952023,-5.42043,10.675282,-39.089325
2.365882,0.3143762,-2.3272963,-7.455298,7.111878,-40.38749
2.087438,0.10952114,-2.6159353,-9.41225,2.6694374,-40.769768
1.7921652,-0.13872367,-2.82546,-11.36749,-2.6821718,-40.22401
1.5320225,-0.45404008,-2.9324825,-13.094377,-8.19081,-38.463676
1.3300058,-0.8151496,-2.9481828,-13.509916,-13.1736145,-35.1686
1.2047956,-1.1945131,-2.853299,-11.870937,-16.887428,-31.037071
1.1192604,-1.5372592,-2.7318354,-9.131172,-20.08825,-26.468607
1.0850227,-1.8248752,-2.5715396,-5.2951937,-22.927967,-21.277193
1.1022455,-1.9784064,-2.3754358,-0.568295,-25.61683,-16.045015
1.0644407,-1.9105514,-2.2939637,-0.54880375,-24.738228,-15.494706
1.0281494,-1.8454124,-2.2157524,-0.5300926,-23.894794,-14.966424
0.9932904,-1.7828445,-2.1406283,-0.51212007,-23.084652,-14.458994
0.9597894,-1.722714,-2.0684307,-0.49484766,-22.30607,-13.971332
0.9275772,-1.6648966,-1.9990104,-0.4782397,-21.557438,-13.502429
0.89658946,-1.6092771,-1.9322292,-0.46226305,-20.837265,-13.051351
0.86676645,-1.5557483,-1.8679581,-0.44688693,-20.144161,-12.617228
0.8380525,-1.50421,-1.806077,-0.43208262,-19.476833,-12.199248
0.8103956,-1.454569,-1.7464739,-0.41782328,-18.83407,-11.796657
0.78374714,-1.4067379,-1.6890441,-0.40408388,-18.214745,-11.408743
0.7580615,-1.3606352,-1.6336893,-0.3908409,-17.617794,-11.034846
0.733296,-1.3161838,-1.5803175,-0.37807232,-17.04223,-10.674343
0.7094105,-1.273312,-1.5288421,-0.36575744,-16.487116,-10.32665
0.6863672,-1.231952,-1.4791818,-0.3538768,-15.951577,-9.991217
0.6641306,-1.1920397,-1.43126,-0.34241205,-15.434786,-9.667526
0.6426671,-1.1535151,-1.3850042,-0.33134592,-14.935961,-9.355089
0.621945,-1.1163213,-1.3403463,-0.32066205,-14.454368,-9.053445
0.6019344,-1.0804045,-1.2972217,-0.31034496,-13.989308,-8.7621565
0.5826068,-1.0457137,-1.255569,-0.30038008,-13.540125,-8.480811
0.56393546,-1.0122007,-1.2153305,-0.29075348,-13.106191,-8.209019
0.5458947,-0.9798196,-1.1764512,-0.28145206,-12.6869135,-7.9464054
0.5284604,-0.9485269,-1.1388787,-0.2724633,-12.28173,-7.69262
0.51160944,-0.9182814,-1.1025634,-0.2637753,-11.890103,-7.447326
0.4953199,-0.8890435,-1.067458,-0.25537673,-11.511525,-7.210205
0.4795709,-0.8607758,-1.0335175,-0.24725688,-11.14551,-6.9809523
0.4643425,-0.83344257,-1.000699,-0.23940544,-10.791593,-6.7592773
0.4496157,-0.8070096,-0.9689614,-0.2318126,-10.449333,-6.544904
0.43537232,-0.7814443,-0.9382657,-0.224469,-10.118308,-6.3375683
0.421595,-0.7567156,-0.90857434,-0.2173657,-9.798116,-6.137017
0.40826717,-0.7327936,-0.8798517,-0.21049415,-9.488369,-5.943008
0.39537293,-0.7096499,-0.8520635,-0.20384614,-9.188699,-5.7553105
0.38289702,-0.6872571,-0.82517684,-0.19741383,-8.898752,-5.5737033
0.37082493,-0.66558903,-0.79916036,-0.19118969,-8.618189,-5.3979735
0.3591426,-0.6446206,-0.77398396,-0.18516654,-8.346685,-5.227918
0.34783667,-0.6243277,-0.74961865,-0.17933743,-8.083929,-5.0633416
0.33689424,-0.6046873,-0.7260367,-0.17369573,-7.82962,-4.904056
0.32630292,-0.585677,-0.7032115,-0.16823506,-7.5834713,-4.7498817
0.3160508,-0.56727564,-0.68111736,-0.1629493,-7.3452067,-4.6006455
0.3061265,-0.5494626,-0.6597296,-0.15783252,-7.11456,-4.4561806
0.296519,-0.5322183,-0.63902456,-0.15287909,-6.891276,-4.3163276
0.2872177,-0.5155235,-0.61897945,-0.14808354,-6.6751084,-4.1809316
0.27821246,-0.49936008,-0.59957236,-0.14344062,-6.4658213,-4.049845
0.26949343,-0.48371038,-0.58078206,-0.13894527,-6.2631855,-3.9229252
0.26105118,-0.46855748,-0.5625883,-0.13459261,-6.0669827,-3.800034
0.25287658,-0.45388502,-0.54497135,-0.13037796,-5.8770003,-3.6810393
0.24496089,-0.43967724,-0.5279123,-0.12629679,-5.693035,-3.5658133
0.23729563,-0.42591894,-0.51139295,-0.12234474,-5.5148897,-3.4542327
0.22987263,-0.4125955,-0.49539575,-0.11851759,-5.342375,-3.3461785
0.22268401,-0.39969274,-0.47990367,-0.114811294,-5.1753073,-3.2415364
0.2157222,-0.38719708,-0.46490034,-0.111221924,-5.0135107,-3.1401954
0.20897985,-0.3750953,-0.45036995,-0.1077457,-4.8568144,-3.0420492
0.20244986,-0.3633747,-0.43629727,-0.104378976,-4.705054,-2.9469943
0.1961254,-0.35202304,-0.42266753,-0.10111822,-4.5580697,-2.8549316
0.1899999,-0.34102842,-0.4094665,-0.09796003,-4.415709,-2.7657645
0.18406692,-0.33037943,-0.39668044,-0.094901115,-4.2778234,-2.6794002
0.17832035,-0.32006496,-0.38429606,-0.091938294,-4.1442695,-2.5957494
0.1727542,-0.31007436,-0.3723005,-0.08906851,-4.0149093,-2.5147247
0.16736272,-0.30039725,-0.3606814,-0.08628877,-3.889608,-2.4362428
0.16214035,-0.2910237,-0.34942675,-0.08359622,-3.768237,-2.3602226
0.15708171,-0.28194398,-0.3385249,-0.080988094,-3.6506712,-2.2865856
0.15218158,-0.27314883,-0.32796472,-0.07846169,-3.5367894,-2.2152562
0.14743496,-0.26462916,-0.3177353,-0.07601443,-3.426475,-2.146161
0.14283696,-0.25637627,-0.30782622,-0.073643796,-3.319615,-2.0792296
0.13838288,-0.2483817,-0.29822728,-0.07134736,-3.2160995,-2.014393
0.13406816,-0.24063727,-0.28892872,-0.069122784,-3.115823,-1.9515852
0.12988842,-0.2331351,-0.279921,-0.06696779,-3.0186832,-1.8907421
0.12583938,-0.22586752,-0.27119493,-0.06488019,-2.924581,-1.8318015
0.12191692,-0.21882714,-0.26274168,-0.06285785,-2.8334208,-1.7747035
0.11811705,-0.2120068,-0.25455263,-0.060898717,-2.7451096,-1.7193902
0.114435904,-0.20539957,-0.24661945,-0.059000798,-2.6595576,-1.665805
0.11086976,-0.19899875,-0.2389341,-0.057162166,-2.5766783,-1.6138937
0.10741499,-0.19279782,-0.23148876,-0.055380955,-2.4963875,-1.5636039
0.10406809,-0.18679053,-0.2242759,-0.053655367,-2.4186037,-1.5148842
0.10082568,-0.18097076,-0.21728823,-0.051983647,-2.3432481,-1.4676856
0.09768449,-0.17533267,-0.21051867,-0.05036411,-2.2702448,-1.4219602
0.09464131,-0.16987051,-0.20396037,-0.048795115,-2.1995199,-1.3776618
0.0916931,-0.16457881,-0.19760671,-0.047275078,-2.1310017,-1.3347456
0.08883687,-0.15945219,-0.19145128,-0.045802463,-2.0646212,-1.2931684
0.08606974,-0.1544855,-0.18548787,-0.044375785,-2.0003111,-1.2528882
0.08338891,-0.14967372,-0.17971045,-0.042993605,-1.9380072,-1.2138643
0.08079168,-0.14501199,-0.1741132,-0.04165453,-1.8776462,-1.1760573
0.07827545,-0.14049563,-0.16869049,-0.04035721,-1.8191675,-1.1394295
0.07583767,-0.13612008,-0.16343686,-0.03910034,-1.762512,-1.1039435
0.07347589,-0.13188095,-0.15834701,-0.037882656,-1.7076228,-1.0695637
0.07118773,-0.12777397,-0.15341583,-0.036702927,-1.6544447,-1.0362558
0.0689709,-0.123794995,-0.14863835,-0.03555997,-1.6029241,-1.0039861
0.06682315,-0.119940035,-0.14400977,-0.03445264,-1.5530093,-0.9727221
0.06474234,-0.116205215,-0.13952544,-0.033379816,-1.50465,-0.94243246
0.06272637,-0.11258678,-0.13518086,-0.032340426,-1.4577978,-0.9130867
0.060773227,-0.109081104,-0.13097166,-0.031333424,-1.4124055,-0.8846554
0.058880936,-0.10568465,-0.12689361,-0.030357799,-1.3684275,-0.85710996
0.0570476,-0.10239403,-0.122942604,-0.02941257,-1.3258197,-0.83042276
0.055271383,-0.09920592,-0.119114704,-0.028496787,-1.2845395,-0.8045669
0.0535505,-0.096117124,-0.115406044,-0.027609536,-1.2445451,-0.77951664
0.051883224,-0.09312455,-0.11181292,-0.026749922,-1.2057966,-0.75524664
0.050267886,-0.0902252,-0.10833172,-0.025917087,-1.1682552,-0.73173267
0.04870286,-0.08741616,-0.10495895,-0.02511019,-1.131883,-0.7089512
0.04718658,-0.0846946,-0.10169124,-0.02432843,-1.0966438,-0.68687916
0.045717526,-0.08205782,-0.09852529,-0.023571014,-1.0625021,-0.6654947
0.044294227,-0.079503156,-0.095457956,-0.02283719,-1.0294238,-0.64477617
0.04291525,-0.07702805,-0.09248615,-0.02212622,-0.99737567,-0.6247029
0.041579224,-0.07463003,-0.08960689,-0.021437392,-0.9663256,-0.60525477
0.040284798,-0.072306685,-0.08681729,-0.020770013,-0.9362424,-0.58641225
0.039030686,-0.070055686,-0.08411457,-0.020123417,-0.907096,-0.56815654
0.037815623,-0.06787479,-0.081496,-0.019496957,-0.8788573,-0.5504693
0.036638398,-0.065761805,-0.07895897,-0.018890003,-0.8514979,-0.5333328
0.03549783,-0.06371461,-0.076500945,-0.018301949,-0.8249904,-0.51672995
0.034392774,-0.06173116,-0.074119456,-0.017732205,-0.79930824,-0.500644
0.033322126,-0.05980947,-0.071812116,-0.017180203,-0.7744258,-0.485059
0.032284815,-0.057947613,-0.06957662,-0.016645387,-0.7503181,-0.4699592
0.031279802,-0.056143727,-0.06741073,-0.016127221,-0.72696096,-0.45532957
0.03030608,-0.054396003,-0.065312274,-0.01562519,-0.7043311,-0.4411554
0.029362673,-0.052702695,-0.06327915,-0.01513879,-0.68240577,-0.42742255
0.02844864,-0.051062107,-0.061309326,-0.014667533,-0.6611631,-0.41411728
0.027563063,-0.049472596,-0.05940083,-0.014210948,-0.6405818,-0.40122625
0.026705058,-0.047932573,-0.057551753,-0.013768578,-0.62064123,-0.38873655
0.025873763,-0.046440497,-0.05576024,-0.01333998,-0.60132146,-0.37663567
0.02506835,-0.04499487,-0.054024503,-0.012924725,-0.5826032,-0.36491156
0.024288012,-0.04359425,-0.052342802,-0.0125223985,-0.56446767,-0.3535524
0.023531966,-0.04223723,-0.050713457,-0.012132597,-0.5468967,-0.3425469
0.022799456,-0.04092246,-0.049134836,-0.01175493,-0.5298728,-0.33188403
0.022089751,-0.03964862,-0.047605358,-0.011389021,-0.5133788,-0.32155308
0.02140214,-0.038414434,-0.046123497,-0.011034503,-0.49739832,-0.31154373
0.020735934,-0.037218668,-0.044687763,-0.010691021,-0.4819153,-0.30184603
0.020090468,-0.03606013,-0.04329673,-0.010358231,-0.46691427,-0.2924502
0.019465094,-0.034937654,-0.041948993,-0.010035802,-0.45238024,-0.28334683
0.018859189,-0.033850122,-0.040643215,-0.00972341,-0.43829864,-0.27452686
0.018272147,-0.032796446,-0.039378084,-0.009420742,-0.4246554,-0.2659815
0.017703377,-0.03177557,-0.038152337,-0.009127497,-0.4114369,-0.2577021
0.017152313,-0.030786473,-0.036964748,-0.00884338,-0.39862984,-0.24968046
0.016618405,-0.029828167,-0.035814125,-0.008568107,-0.38622147,-0.24190852
0.016101114,-0.02889969,-0.03469932,-0.008301403,-0.3741994,-0.23437852
0.015599929,-0.028000116,-0.03361922,-0.008043002,-0.3625515,-0.22708291
