ax,ay,az,gx,gy,gz
-2.1227467,3.080028,-6.7164245,93.66176,63.14421,-11.041919
-2.9490612,3.5093114,-8.235676,81.19893,35.26841,-18.634935
-3.6118548,3.8226817,-8.934465,63.10457,7.124727,-21.804245
-3.9014976,3.9294958,-9.28002,49.8525,-14.551942,-23.085752
-4.019192,3.9264383,-9.559206,42.82213,-32.719273,-26.093563
-3.9812634,3.9030316,-9.874596,37.159702,-48.061466,-30.229559
-3.8720393,3.7297564,-10.0831785,30.226912,-61.952328,-32.82312
-3.7529035,3.458349,-10.219,25.722815,-74.16284,-33.1854
-3.6295836,3.1981578,-10.335922,21.801666,-86.99396,-32.13069
-3.398278,2.9849267,-10.34571,16.963053,-100.65226,-30.461676
-2.980472,2.8015542,-10.127473,12.158531,-111.84433,-27.984688
-2.5608656,2.64264,-9.758697,6.367959,-120.46565,-23.938358
-2.1852167,2.4902725,-9.27636,0.5045908,-127.34171,-18.824194
-1.8591583,2.370886,-8.73333,-5.0776567,-132.63693,-14.015678
-1.6015344,2.2648516,-8.141942,-10.621443,-137.42159,-11.225511
-1.3397908,2.064968,-7.4007087,-15.243512,-141.93954,-9.759993
-0.98622686,1.7681712,-6.4929724,-19.276525,-145.13907,-8.739699
-0.48167193,1.3967768,-5.438394,-21.62831,-145.76498,-6.787677
0.08356559,1.0724584,-4.3309746,-23.40311,-143.97397,-4.312462
0.65361404,0.7969602,-3.2463233,-23.30626,-139.49695,-2.9823236
1.1985602,0.4957246,-2.2259343,-21.375013,-133.16537,-2.690902
1.7166971,0.21000808,-1.2929275,-18.04858,-124.78518,-2.532266
2.180251,0.004236205,-0.47913915,-14.885116,-114.46892,-2.018728
2.5269253,-0.13380666,0.1641366,-11.622072,-103.139336,-1.3432065
2.7783434,-0.19820939,0.663358,-8.749092,-90.56528,-1.2708902
2.9632514,-0.2325816,1.0214206,-5.939789,-77.12126,-1.9445955
3.106066,-0.27555633,1.2656739,-2.4871178,-62.548576,-2.6485229
3.1648057,-0.32974213,1.3733608,3.2971067,-47.7968,-2.9536526
3.1912982,-0.33530846,1.412318,11.071901,-32.683147,-3.3573916
3.2149622,-0.2516889,1.2973826,19.92694,-18.622425,-4.673682
3.202498,-0.07838036,1.0173191,24.900377,-7.735047,-6.820852
3.1654506,0.071045466,0.7490836,25.24813,0.46470216,-8.274313
3.0902736,0.19074546,0.4827827,23.783329,7.6104445,-8.947088
2.9583375,0.3291827,0.1543566,21.100082,13.467479,-9.109233
2.8046148,0.48420563,-0.17276588,19.486595,18.374866,-9.47843
2.62971,0.6860102,-0.5300457,18.77046,22.052738,-10.63282
2.4256315,0.89569694,-0.91847956,17.912783,23.981915,-12.62686
2.2156923,1.0866393,-1.3042103,17.430399,24.449697,-15.193241
2.0058074,1.2744136,-1.668195,16.38933,23.496567,-17.985664
1.8188905,1.4098014,-1.9715006,15.011154,21.89643,-20.604296
1.6592999,1.4653119,-2.2544298,13.382655,19.844059,-23.10012
1.5067296,1.4589156,-2.5412393,11.177351,17.157387,-25.494293
1.3636461,1.3561505,-2.8099215,8.787463,13.5217285,-27.743484
1.2239171,1.1733032,-3.0530787,6.469016,8.91154,-29.58289
1.0872763,0.91033065,-3.246351,3.4611402,2.9235263,-30.514969
1.008593,0.5343252,-3.2826872,0.44150785,-2.7095551,-29.840578
0.94720316,0.16540739,-3.2192576,-2.4261992,-7.431906,-27.470762
0.876474,-0.1616022,-3.0919352,-4.6352134,-11.390978,-24.261452
0.8059507,-0.4169486,-2.9225564,-6.2771916,-14.877334,-20.945452
0.7589946,-0.6317355,-2.6965978,-7.728129,-17.768768,-17.609264
0.7603439,-0.848476,-2.3953593,-7.9800673,-19.701485,-14.15602
0.78798723,-1.0242902,-2.0869145,-7.2677164,-20.59505,-10.4894285
0.8220964,-1.103088,-1.817689,-5.8810277,-21.018284,-6.6237373
0.7947512,-1.0663962,-1.7572278,-5.685409,-20.319159,-6.403414
0.768423,-1.031069,-1.6990149,-5.4970646,-19.646032,-6.1912837
0.743064,-0.99704236,-1.642945,-5.315654,-18.997686,-5.986963
0.7186296,-0.9642563,-1.5889196,-5.1408577,-18.37298,-5.7900915
0.695078,-0.93265486,-1.5368462,-4.972377,-17.770845,-5.6003337
0.6723702,-0.9021855,-1.4866381,-4.8099318,-17.190279,-5.4173737
0.6504692,-0.8727988,-1.4382142,-4.653259,-16.630344,-5.2409143
0.62934047,-0.84444827,-1.3914977,-4.5021105,-16.090153,-5.0706778
0.6089514,-0.8170902,-1.3464166,-4.356253,-15.5688715,-4.9064
0.5892712,-0.7906833,-1.3029028,-4.215467,-15.065714,-4.747834
0.5702708,-0.76518863,-1.2608922,-4.079544,-14.579936,-4.5947456
0.55192274,-0.74056923,-1.2203239,-3.9482875,-14.110837,-4.446913
0.53420097,-0.71679026,-1.1811404,-3.8215115,-13.657751,-4.3041267
0.5170809,-0.69381857,-1.1432872,-3.6990397,-13.220048,-4.166188
0.50053906,-0.67162275,-1.1067126,-3.5807045,-12.797128,-4.0329084
0.4845533,-0.65017307,-1.0713673,-3.466347,-12.388424,-3.9041088
0.4691024,-0.629441,-1.0372047,-3.3558161,-11.993396,-3.779619
0.4541663,-0.6093998,-1.0041803,-3.2489676,-11.611529,-3.6592767
0.4397258,-0.5900236,-0.97225183,-3.1456647,-11.242333,-3.5429277
0.42576265,-0.5712878,-0.9413788,-3.0457766,-10.885342,-3.430425
0.41225943,-0.5531692,-0.91152257,-2.9491785,-10.540109,-3.3216276
0.39919946,-0.53564537,-0.8826464,-2.8557515,-10.206208,-3.2164016
0.38656682,-0.5186949,-0.85471517,-2.7653816,-9.883234,-3.114619
0.37434635,-0.50229746,-0.82769513,-2.67796,-9.570797,-3.016157
0.3625234,-0.48643348,-0.80155414,-2.5933821,-9.268523,-2.920898
0.35108405,-0.47108418,-0.7762613,-2.5115488,-8.976058,-2.8287299
0.34001496,-0.45623168,-0.7517871,-2.4323637,-8.693057,-2.7395446
0.3293033,-0.44185877,-0.7281031,-2.3557355,-8.419195,-2.6532393
0.3189367,-0.4279489,-0.7051822,-2.2815762,-8.154156,-2.5697143
0.3089034,-0.41448623,-0.6829982,-2.2098012,-7.897638,-2.4888747
0.29919207,-0.40145555,-0.66152596,-2.1403291,-7.6493506,-2.4106293
0.28979176,-0.38884223,-0.6407415,-2.0730822,-7.409016,-2.3348897
0.280692,-0.3766322,-0.6206216,-2.0079854,-7.176366,-2.261572
0.27188274,-0.36481196,-0.60114396,-1.9449666,-6.9511423,-2.1905944
0.26335427,-0.35336843,-0.58228713,-1.8839563,-6.7330966,-2.1218793
0.2550972,-0.34228912,-0.5640304,-1.8248879,-6.5219913,-2.0553513
0.24710259,-0.33156198,-0.546354,-1.7676969,-6.3175955,-1.9909376
0.23936176,-0.32117534,-0.5292387,-1.7123213,-6.119688,-1.9285687
0.23186636,-0.311118,-0.51266605,-1.6587014,-5.9280553,-1.8681773
0.22460833,-0.3013792,-0.4966183,-1.6067798,-5.7424917,-1.8096985
0.21757995,-0.2919485,-0.4810782,-1.5565008,-5.562799,-1.7530698
0.21077368,-0.28281587,-0.4660293,-1.5078108,-5.3887854,-1.6982309
0.20418234,-0.27397162,-0.45145556,-1.4606584,-5.2202663,-1.6451236
0.19779894,-0.26540637,-0.4373416,-1.4149935,-5.057064,-1.5936917
0.19161677,-0.25711116,-0.42367256,-1.3707682,-4.899007,-1.5438812
0.18562932,-0.24907722,-0.4104341,-1.3279358,-4.7459273,-1.4956396
0.17983034,-0.24129614,-0.3976123,-1.2864516,-4.5976667,-1.4489164
0.17421377,-0.23375982,-0.38519382,-1.2462723,-4.4540696,-1.4036629
0.16877374,-0.22646041,-0.3731657,-1.2073561,-4.3149858,-1.3598319
0.16350462,-0.2193903,-0.36151543,-1.1696624,-4.180272,-1.3173779
0.15840094,-0.21254218,-0.350231,-1.1331521,-4.0497875,-1.2762568
0.1534574,-0.20590897,-0.33930063,-1.0977876,-3.923398,-1.2364262
0.14866893,-0.1994838,-0.32871315,-1.0635324,-3.8009727,-1.1978449
0.14403059,-0.19326007,-0.31845757,-1.030351,-3.6823854,-1.1604731
0.13953759,-0.18723138,-0.30852336,-0.99820954,-3.5675144,-1.1242725
0.13518535,-0.18139152,-0.29890034,-0.9670748,-3.4562416,-1.0892057
0.13096936,-0.17573453,-0.28957865,-0.93691504,-3.348453,-1.0552372
0.12688535,-0.17025462,-0.28054872,-0.9076992,-3.2440383,-1.0223317
0.122929126,-0.16494615,-0.27180135,-0.87939763,-3.142891,-0.9904559
0.11909665,-0.15980375,-0.2633276,-0.8519813,-3.0449073,-0.9595772
0.11538403,-0.15482216,-0.25511885,-0.8254222,-2.9499876,-0.9296641
0.11178746,-0.14999628,-0.24716668,-0.7996935,-2.8580353,-0.9006861
0.1083033,-0.14532125,-0.23946306,-0.7747689,-2.768957,-0.8726137
0.10492801,-0.14079228,-0.23200014,-0.7506231,-2.682662,-0.8454186
0.10165816,-0.1364048,-0.22477037,-0.72723156,-2.5990627,-0.8190729
0.098490424,-0.13215433,-0.21776637,-0.70457053,-2.5180743,-0.79355013
0.095421605,-0.1280366,-0.2109811,-0.6826172,-2.4396145,-0.7688242
0.09244859,-0.12404741,-0.20440765,-0.6613491,-2.3636045,-0.7448703
0.08956838,-0.120182745,-0.19803937,-0.640745,-2.289967,-0.721664
0.08677805,-0.11643869,-0.19186984,-0.6207838,-2.2186277,-0.69918203
0.08407479,-0.11281145,-0.18589282,-0.6014455,-2.1495142,-0.6774015
0.08145587,-0.10929739,-0.18010227,-0.5827105,-2.082557,-0.6563005
0.07891864,-0.10589294,-0.17449236,-0.56456,-2.0176885,-0.6358577
0.07646055,-0.10259467,-0.16905743,-0.54697555,-1.9548432,-0.61605257
0.07407912,-0.09939927,-0.16379197,-0.5299395,-1.8939579,-0.59686506
0.07177194,-0.09630351,-0.15869072,-0.51343465,-1.8349711,-0.57827586
0.0695367,-0.09330427,-0.15374851,-0.49744445,-1.7778233,-0.56026626
0.06737115,-0.09039853,-0.14896038,-0.48195273,-1.7224573,-0.54281807
0.065273106,-0.08758337,-0.14432152,-0.46694395,-1.6688172,-0.52591383
0.06324045,-0.084855966,-0.13982725,-0.45240298,-1.6168491,-0.5095365
0.061271153,-0.082213566,-0.13547304,-0.4383152,-1.5665007,-0.49366963
0.059363227,-0.07965351,-0.13125454,-0.4246665,-1.5177213,-0.47829723
0.05751476,-0.07717323,-0.12716751,-0.4114431,-1.4704621,-0.46340388
0.05572389,-0.07477025,-0.123207815,-0.39863175,-1.4246755,-0.4489746
0.053988818,-0.07244213,-0.1193715,-0.3862196,-1.3803154,-0.4349949
0.052307807,-0.070186555,-0.115654714,-0.37419415,-1.3373375,-0.4214508
0.050679166,-0.06800125,-0.11205372,-0.36254334,-1.2956985,-0.40832862
0.049101263,-0.06588402,-0.10856491,-0.3512555,-1.2553568,-0.39561525
0.047572512,-0.06383274,-0.105184786,-0.3403193,-1.2162718,-0.3832979
0.04609138,-0.061845362,-0.10190994,-0.32972375,-1.1784041,-0.37136424
0.04465639,-0.059919886,-0.09873711,-0.31945822,-1.141716,-0.3598023
0.043266088,-0.058054384,-0.0956631,-0.30951244,-1.1061707,-0.34860048
0.04191909,-0.056246985,-0.092684835,-0.29987642,-1.0717324,-0.33774754
0.040614046,-0.054495875,-0.08979932,-0.29054052,-1.0383667,-0.32723263
0.03934964,-0.052799303,-0.08700368,-0.2814954,-1.0060401,-0.31704518
0.038124617,-0.051155567,-0.084295094,-0.27273193,-0.9747203,-0.30717498
0.03693774,-0.049563017,-0.081670865,-0.26424137,-0.94437575,-0.29761216
0.035787825,-0.04802006,-0.079128355,-0.2560152,-0.91497624,-0.28834713
0.034673717,-0.04652515,-0.076665014,-0.24804522,-0.88649213,-0.2793706
0.0335943,-0.04507679,-0.07427838,-0.24032341,-0.85889506,-0.27067363
0.032548495,-0.04367353,-0.07196606,-0.23284204,-0.83215725,-0.26224744
0.031535253,-0.042313963,-0.069725744,-0.22559361,-0.80625206,-0.25408363
0.03055356,-0.04099673,-0.06755518,-0.21857089,-0.78115344,-0.246174
0.029602434,-0.039720513,-0.0654522,-0.21176682,-0.7568363,-0.23851065
0.028680922,-0.03848403,-0.0634147,-0.20517461,-0.73327625,-0.23108591
0.027788103,-0.037286043,-0.06144064,-0.19878763,-0.7104498,-0.22389235
0.026923079,-0.036125354,-0.059528034,-0.19259952,-0.68833405,-0.21692273
0.026084987,-0.035000805,-0.05767498,-0.18660407,-0.6669068,-0.21017012
0.02527299,-0.033911265,-0.05587962,-0.18079528,-0.64614666,-0.20362775
0.02448627,-0.03285565,-0.05414015,-0.17516734,-0.6260329,-0.19728905
0.023724046,-0.031832896,-0.05245484,-0.1697146,-0.6065453,-0.1911477
0.02298555,-0.030841982,-0.050821993,-0.16443163,-0.5876644,-0.18519755
0.022270044,-0.029881919,-0.049239986,-0.15931313,-0.56937134,-0.17943263
0.021576814,-0.028951744,-0.047707226,-0.15435398,-0.5516477,-0.17384718
0.020905165,-0.028050527,-0.046222184,-0.1495492,-0.5344759,-0.16843563
0.020254426,-0.027177365,-0.04478337,-0.144894,-0.51783866,-0.16319254
0.019623945,-0.026331386,-0.04338935,-0.14038374,-0.5017193,-0.15811267
0.01901309,-0.025511744,-0.042038728,-0.13601388,-0.4861018,-0.15319094
0.018421253,-0.024717616,-0.04073015,-0.13178004,-0.47097048,-0.14842242
0.01784784,-0.02394821,-0.039462306,-0.12767802,-0.45631018,-0.14380236
0.017292276,-0.023202755,-0.038233932,-0.12370368,-0.44210625,-0.13932611
0.016754007,-0.022480506,-0.0370438,-0.11985307,-0.4283445,-0.1349892
0.016232494,-0.02178074,-0.035890713,-0.11612233,-0.41501114,-0.13078731
0.015727215,-0.021102758,-0.03477352,-0.112507716,-0.40209284,-0.12671621
0.015237666,-0.020445881,-0.03369111,-0.10900563,-0.38957667,-0.12277185
0.014763355,-0.019809453,-0.032642387,-0.10561256,-0.37745014,-0.11895027
0.01430381,-0.019192835,-0.031626314,-0.10232511,-0.36570108,-0.11524765
