ax,ay,az,gx,gy,gz
-1.7136519,-1.4963772,-1.5836507,29.51936,-4.106401,-6.3255124
-2.0349565,-1.7453898,-1.9121029,23.131672,-3.6330783,-7.5574117
-2.3329296,-2.3040178,-2.4045746,23.585503,-9.362461,-7.9751325
-2.4132438,-2.8856761,-2.8644273,26.358316,-16.917112,-6.067559
-2.344927,-3.3208039,-3.1575425,25.613417,-24.321264,-2.11261
-2.2127128,-3.7746098,-3.4063494,23.808846,-30.194954,3.0853636
-2.0805883,-4.332729,-3.718587,26.465021,-35.62459,6.835185
-1.8990531,-4.8718686,-4.008424,34.99709,-41.724705,8.913797
-1.5790849,-5.2607627,-4.1092215,43.44134,-46.983543,11.939633
-1.2246685,-5.493561,-4.108384,50.462734,-51.442974,16.176264
-0.81316894,-5.617192,-4.022908,55.929344,-55.01915,20.981035
-0.34611806,-5.740891,-3.855262,60.875626,-57.125496,25.593931
0.109717615,-5.85185,-3.6347833,66.33916,-57.160007,30.47551
0.49989322,-5.719658,-3.3522248,70.862144,-56.974426,36.371254
0.85627437,-5.4181676,-3.0137212,73.86095,-56.97673,42.753372
1.2164387,-5.040313,-2.5992353,75.42832,-56.423428,48.81089
1.5699245,-4.6918654,-2.1373,76.43416,-54.66378,54.244965
1.8958759,-4.2867603,-1.6502726,76.44416,-51.636486,60.44038
2.1673596,-3.710366,-1.1633531,75.673225,-48.488457,66.78161
2.396398,-3.0874918,-0.6908236,73.583176,-45.351067,72.61375
2.617603,-2.5057852,-0.23612854,70.58686,-41.785915,77.52771
2.834854,-1.9955703,0.17592001,67.72831,-37.45097,81.25821
3.0412354,-1.5162288,0.54496634,65.26717,-31.89926,83.648834
3.2235112,-1.0110775,0.8505183,62.77622,-25.730484,85.15856
3.3700428,-0.52170163,1.084566,60.183456,-19.117636,85.71893
3.4771092,-0.039815318,1.2438502,57.352444,-12.320102,85.33188
3.5340636,0.38860953,1.3315698,54.442997,-5.466382,83.91907
3.5476134,0.75049794,1.3565818,51.26052,1.4909879,81.580055
3.506547,1.043957,1.2975593,47.93071,8.30796,78.46641
3.4328775,1.2949473,1.1905057,44.45242,14.987074,74.52367
3.3287656,1.5110525,1.0420952,40.65747,21.492153,70.188576
3.1713083,1.6900417,0.82932806,37.28461,27.390072,65.661285
2.9557047,1.8393971,0.5655787,33.870064,31.890072,60.966965
2.7134588,1.9516836,0.27006322,29.627718,35.183834,56.428936
2.474294,2.015269,-0.038135126,25.20848,37.48195,51.84825
2.26274,2.0498903,-0.3349107,20.91083,39.13951,47.30869
2.060589,2.059577,-0.63499665,16.982681,40.161564,42.829964
1.8685898,2.0532396,-0.9353142,13.218524,40.23225,38.426033
1.6867195,2.0272155,-1.2370652,9.335574,39.582302,34.301758
1.5135909,1.9756498,-1.537231,5.479147,38.221973,30.460829
1.3544819,1.8992686,-1.8301625,1.8511183,36.206116,26.97137
1.2142447,1.8021202,-2.106794,-1.5365833,33.60686,23.788197
1.0912699,1.6881819,-2.3657134,-4.5964575,30.417212,20.936853
0.97783065,1.5580982,-2.6093714,-7.071438,26.78047,18.293234
0.87493384,1.4353814,-2.8290594,-8.936728,22.636553,15.749533
0.7979651,1.3154811,-3.0087838,-10.505347,18.252764,13.475759
0.7400485,1.1899644,-3.1591082,-11.703798,13.826514,11.481158
0.6994039,1.0754452,-3.2871041,-12.33859,9.297433,9.465023
0.68960506,0.9725331,-3.3910544,-12.571332,4.6270676,7.539985
0.69704354,0.8963994,-3.4639473,-12.722467,-0.3245208,6.0468645
0.7258114,0.8581054,-3.4905934,-13.326777,-5.529939,5.210938
0.7706563,0.8312189,-3.4767127,-14.32367,-10.74816,4.9110994
0.8241861,0.7805998,-3.4379365,-14.823887,-15.590624,4.329043
0.8742735,0.73777074,-3.3630643,-14.340949,-20.115028,3.137472
0.9239228,0.76848763,-3.245459,-14.090307,-24.66733,1.8102634
0.98454887,0.8350354,-3.0776978,-14.598188,-29.253456,0.7091633
1.0607543,0.89507914,-2.8698194,-15.850214,-33.722546,-0.12900485
1.1774665,0.9071369,-2.61754,-17.577074,-37.39607,-0.9908981
1.3725537,0.8459098,-2.3073905,-18.655853,-39.935013,-2.3902023
1.5918809,0.78656507,-1.9759821,-19.13963,-41.12926,-4.3680162
1.803312,0.72307634,-1.6480415,-19.497303,-41.573643,-6.420831
1.998983,0.652998,-1.3283088,-20.069855,-41.324226,-8.119019
2.1717565,0.57236415,-1.0323611,-21.338543,-40.31418,-9.403117
2.1017308,0.55390894,-0.99907386,-20.650505,-39.014294,-9.099924
2.034109,0.5360873,-0.9669294,-19.98609,-37.759033,-8.80714
1.9687957,0.51887405,-0.93588215,-19.344355,-36.546627,-8.524351
1.9056996,0.5022451,-0.905889,-18.724407,-35.37538,-8.251163
1.8447349,0.48617792,-0.8769089,-18.125399,-34.243694,-7.987201
1.7858193,0.4706508,-0.84890294,-17.546524,-33.150047,-7.732113
1.728875,0.4556432,-0.821834,-16.98702,-32.092995,-7.48556
1.6738281,0.44113562,-0.79566705,-16.446157,-31.071163,-7.2472215
1.6206077,0.42710945,-0.77036834,-15.923243,-30.083237,-7.016792
1.5691465,0.41354692,-0.7459059,-15.417612,-29.127966,-6.793979
1.5193805,0.40043113,-0.72224915,-14.928637,-28.20416,-6.578505
1.471248,0.38774586,-0.699369,-14.455712,-27.310682,-6.370105
1.4246905,0.37547567,-0.6772376,-13.998262,-26.446438,-6.1685233
1.3796519,0.36360583,-0.6558281,-13.5557375,-25.61039,-5.9735184
1.3360785,0.3521221,-0.6351152,-13.127608,-24.80154,-5.7848577
1.293919,0.341011,-0.61507434,-12.713369,-24.018934,-5.602318
1.2531239,0.33025947,-0.595682,-12.312538,-23.261658,-5.4256864
1.2136459,0.31985512,-0.5769159,-11.924649,-22.528831,-5.254758
1.17544,0.30978596,-0.5587544,-11.549257,-21.819616,-5.089336
1.1384623,0.30004054,-0.5411768,-11.185934,-21.133202,-4.929233
1.1026711,0.29060784,-0.5241632,-10.83427,-20.468815,-4.774267
1.0680264,0.28147724,-0.50769454,-10.493868,-19.825705,-4.6242647
1.0344893,0.27263856,-0.49175245,-10.1643505,-19.20316,-4.4790583
1.0020229,0.26408204,-0.47631922,-9.845351,-18.600485,-4.338487
0.97059107,0.25579825,-0.46137792,-9.53652,-18.01702,-4.202396
0.94015974,0.24777812,-0.44691217,-9.237517,-17.452126,-4.0706367
0.9106957,0.24001288,-0.43290618,-8.948018,-16.905184,-3.9430652
0.88216686,0.23249415,-0.41934478,-8.667709,-16.375607,-3.8195431
0.85454255,0.2252138,-0.40621337,-8.396288,-15.862819,-3.6999373
0.8277932,0.21816401,-0.39349782,-8.133462,-15.366271,-3.5841198
0.80189,0.21133727,-0.38118458,-7.878951,-14.885433,-3.4719663
0.7768056,0.2047263,-0.3692605,-7.6324844,-14.419792,-3.3633573
0.7525132,0.19832405,-0.35771292,-7.3938003,-13.968854,-3.258178
0.7289872,0.19212382,-0.34652966,-7.162647,-13.532143,-3.156317
0.70620286,0.18611902,-0.33569896,-6.9387794,-13.109198,-3.0576668
0.68413615,0.18030336,-0.32520938,-6.7219634,-12.699575,-2.9621239
0.662764,0.17467076,-0.31504998,-6.511972,-12.302846,-2.8695884
0.64206415,0.16921534,-0.3052101,-6.308586,-11.918595,-2.7799635
0.62201494,0.16393138,-0.2956796,-6.1115932,-11.546424,-2.693156
0.6025956,0.15881345,-0.28644845,-5.920789,-11.185944,-2.6090755
0.583786,0.15385619,-0.27750716,-5.7359753,-10.836782,-2.527635
0.56556666,0.1490545,-0.26884645,-5.5569615,-10.498577,-2.4487503
0.5479188,0.14440341,-0.2604574,-5.383563,-10.170981,-2.3723397
0.5308242,0.13989815,-0.25233135,-5.2156,-9.853655,-2.2983246
0.51426524,0.13553406,-0.24445994,-5.052901,-9.546273,-2.226629
0.49822503,0.13130668,-0.23683509,-4.895298,-9.248519,-2.1571794
0.4826871,0.12721168,-0.229449,-4.7426305,-8.960089,-2.089904
0.46763545,0.12324484,-0.2222941,-4.594741,-8.680687,-2.0247347
0.45305482,0.11940212,-0.21536309,-4.4514794,-8.4100275,-1.9616045
0.43893024,0.11567961,-0.20864886,-4.312699,-8.147834,-1.9004489
0.42524737,0.112073496,-0.20214461,-4.178258,-7.89384,-1.8412057
0.41199225,0.10858013,-0.19584368,-4.04802,-7.6477857,-1.7838147
0.39915138,0.10519593,-0.18973969,-3.9218526,-7.4094214,-1.7282172
0.38671178,0.101917475,-0.1838264,-3.7996273,-7.1785054,-1.674357
0.37466073,0.09874144,-0.17809786,-3.68122,-6.954803,-1.6221793
0.36298606,0.0956646,-0.17254822,-3.566511,-6.738087,-1.5716312
0.35167596,0.09268383,-0.16717187,-3.4553838,-6.528138,-1.5226614
0.34071892,0.08979611,-0.16196336,-3.3477256,-6.3247433,-1.4752206
0.3301039,0.08699854,-0.15691742,-3.243428,-6.1276975,-1.4292604
0.31982017,0.08428827,-0.15202898,-3.1423855,-5.936801,-1.3847345
0.3098573,0.081662565,-0.14729305,-3.0444956,-5.7518616,-1.3415982
0.3002053,0.07911879,-0.14270489,-2.9496598,-5.5726914,-1.2998074
0.29085433,0.07665435,-0.13825984,-2.8577824,-5.3991103,-1.2593204
0.28179505,0.07426679,-0.13395344,-2.7687705,-5.2309437,-1.2200961
0.2730183,0.071953684,-0.12978134,-2.6825347,-5.068021,-1.1820952
0.26451522,0.069712706,-0.12573934,-2.5989878,-4.9101787,-1.145279
0.25627723,0.0675416,-0.121823356,-2.518046,-4.757258,-1.1096109
0.24829611,0.06543818,-0.11802946,-2.4396274,-4.6091046,-1.0750548
0.24056377,0.06340033,-0.114353836,-2.3636534,-4.4655695,-1.0415758
0.23307244,0.061425995,-0.11079277,-2.2900476,-4.3265085,-1.0091405
0.2258146,0.0595132,-0.107342705,-2.218736,-4.191782,-0.97771597
0.21878295,0.057660017,-0.10400015,-2.1496465,-4.0612535,-0.9472708
0.21197042,0.05586458,-0.100761764,-2.0827103,-3.9347932,-0.91777444
0.20537017,0.054125093,-0.09762429,-2.0178597,-3.8122733,-0.8891971
0.19897558,0.052439805,-0.09458457,-1.9550298,-3.6935709,-0.8615103
0.19278021,0.050807025,-0.091639556,-1.8941574,-3.5785668,-0.83468604
0.18677787,0.04922511,-0.0887863,-1.8351815,-3.4671457,-0.8086975
0.18096252,0.047692478,-0.08602192,-1.7780428,-3.3591955,-0.78351855
0.17532831,0.046207592,-0.083343655,-1.7226841,-3.2546082,-0.75912404
0.16986962,0.044768956,-0.080748826,-1.6690497,-3.1532786,-0.7354893
0.16458094,0.043375134,-0.078234814,-1.617086,-3.0551054,-0.7125908
0.159457,0.042024724,-0.07579911,-1.5667409,-2.95999,-0.69040555
0.15449265,0.040716372,-0.07343926,-1.5179638,-2.867837,-0.6689112
0.1496829,0.03944877,-0.07115292,-1.4707057,-2.778554,-0.64808637
0.14502296,0.038220648,-0.06893777,-1.4249196,-2.6920516,-0.62791
0.14050813,0.037030768,-0.06679162,-1.3805592,-2.6082432,-0.6083621
0.1361339,0.035877947,-0.06471229,-1.3375803,-2.5270448,-0.5894228
0.13189588,0.034761023,-0.06269772,-1.2959398,-2.4483747,-0.5710734
0.12778984,0.033678878,-0.060745884,-1.255596,-2.3721547,-0.5532954
0.12381166,0.032630432,-0.058854822,-1.2165085,-2.298308,-0.5360709
0.11995735,0.03161463,-0.057022646,-1.1786381,-2.2267606,-0.5193828
0.11622305,0.030630464,-0.05524752,-1.1419468,-2.157441,-0.5032143
0.11260503,0.029676937,-0.053527664,-1.106398,-2.0902798,-0.48754922
0.10909966,0.0287531,-0.05186136,-1.071956,-2.02521,-0.4723719
0.10570343,0.027858026,-0.050246935,-1.0385865,-1.962166,-0.45766717
0.10241294,0.026990823,-0.04868278,-1.0062559,-1.9010848,-0.44342026
0.0992249,0.026150618,-0.04716732,-0.9749319,-1.8419055,-0.4296169
0.096136115,0.025336573,-0.04569904,-0.9445831,-1.7845685,-0.4162433
0.0931435,0.024547871,-0.04427648,-0.91517925,-1.7290168,-0.4032861
0.090244055,0.023783725,-0.042898204,-0.8866908,-1.6751945,-0.39073226
0.08743487,0.023043368,-0.04156284,-0.85908926,-1.623048,-0.37856928
0.08471315,0.022326062,-0.040269047,-0.83234704,-1.5725248,-0.36678496
0.08207616,0.021631086,-0.03901553,-0.8064374,-1.5235745,-0.3553675
0.07952126,0.020957746,-0.037801042,-0.7813343,-1.4761481,-0.34430552
0.0770459,0.020305367,-0.036624365,-0.7570127,-1.4301982,-0.33358788
0.074647605,0.019673299,-0.035484314,-0.73344827,-1.3856788,-0.3232039
0.07232397,0.019060906,-0.034379754,-0.7106175,-1.3425453,-0.31314316
0.07007267,0.018467579,-0.033309583,-0.68849736,-1.3007545,-0.30339566
0.067891456,0.017892722,-0.032272726,-0.66706586,-1.2602648,-0.29395157
0.06577814,0.01733576,-0.031268146,-0.64630157,-1.2210354,-0.2848015
0.06373061,0.016796136,-0.030294837,-0.6261836,-1.1830273,-0.27593628
0.061746825,0.01627331,-0.029351829,-0.60669196,-1.1462023,-0.267347
0.05982479,0.01576676,-0.028438175,-0.58780706,-1.1105238,-0.25902513
0.05796259,0.015275979,-0.027552962,-0.56951004,-1.0759559,-0.2509623
0.056158356,0.014800476,-0.026695307,-0.5517826,-1.042464,-0.24315046
0.05441029,0.014339774,-0.025864348,-0.534607,-1.0100147,-0.23558179
0.052716635,0.013893413,-0.025059257,-0.51796603,-0.9785755,-0.22824873
