ax,ay,az,gx,gy,gz
-3.1018462,-0.07000063,-9.931909,38.452168,-86.61533,14.093764
-3.441164,0.39217263,-10.778634,53.86532,-122.17867,5.430278
-3.6993206,0.8684634,-11.026943,43.972786,-158.35785,-7.1532464
-3.5011926,0.76136905,-10.562557,34.881416,-173.54575,-15.0695305
-3.335416,0.55076873,-10.536798,27.119835,-184.95769,-20.30933
-3.2118917,0.3575148,-10.588298,21.147001,-196.9033,-24.635017
-3.0354962,0.16376044,-10.563278,19.688042,-208.88092,-27.408491
-2.8458045,0.098067395,-10.52391,19.62998,-221.258,-30.268957
-2.6829221,0.102669254,-10.526956,17.134928,-238.38464,-35.155075
-2.4134824,0.08538495,-10.449946,12.125145,-257.72357,-41.44751
-1.8660982,-0.061372973,-10.0540905,8.836525,-274.4695,-47.10601
-0.98758584,-0.3211788,-9.272415,12.066362,-282.62576,-48.595253
-0.018086495,-0.3606063,-8.427829,16.207329,-288.3039,-46.593155
1.0508845,-0.1614672,-7.3374815,16.965467,-289.99664,-41.505295
2.3432684,0.09759239,-5.9006414,17.27628,-284.45935,-35.82684
3.653328,0.29403427,-4.4767265,17.202538,-273.6733,-31.20475
4.8881254,0.48038977,-3.1025546,15.681887,-258.1975,-26.632296
5.9785504,0.6268693,-1.8228779,13.70492,-237.51718,-21.628784
6.81833,0.7655774,-0.82485753,11.012289,-212.52635,-17.114643
7.2692323,0.8632827,-0.21316886,8.249456,-187.70433,-13.017161
7.4584737,0.9069002,0.14772366,6.0318475,-164.15485,-9.759529
7.479155,0.8881715,0.35287672,4.676736,-142.08607,-6.982059
7.4080114,0.8370717,0.44763023,3.4176548,-121.15922,-4.2058997
7.267348,0.76220375,0.44915918,2.3586028,-100.983574,-1.2878476
7.0356755,0.6326962,0.3349111,2.2381737,-81.29314,1.6305149
6.734145,0.49107537,0.118055575,3.723555,-63.026573,4.2650194
6.402289,0.3659866,-0.15053378,7.136857,-46.705833,6.8981605
6.051317,0.30733272,-0.45997533,11.235372,-33.16414,9.210451
5.6946917,0.3161465,-0.7593566,14.470746,-22.81252,10.819299
5.337404,0.34842652,-1.0379316,17.34786,-14.1451025,11.784581
4.972273,0.37242952,-1.3082496,20.021654,-6.696419,12.474446
4.611268,0.3825843,-1.5700331,23.277407,-0.0340104,13.198653
4.2643185,0.4247427,-1.8195605,26.876968,5.7735887,13.860009
3.9416635,0.55131936,-2.0518267,29.538492,9.9834,13.537524
3.6596167,0.7911918,-2.2483006,30.884928,12.757691,11.791086
3.4125376,1.0384315,-2.4133248,31.137426,14.050674,8.7907505
3.2085414,1.2675431,-2.523678,30.421432,14.438025,5.355658
3.0480478,1.4921628,-2.5765333,29.309614,14.801724,1.9188004
2.9154198,1.7319853,-2.616054,26.889023,15.048657,-2.0630844
2.8021603,1.9463342,-2.6759467,23.75435,15.123301,-6.8552046
2.6937912,2.1244903,-2.767911,20.112158,14.761378,-12.929311
2.5879073,2.2594194,-2.894503,16.027803,13.719562,-20.191895
2.4734075,2.2920485,-3.0718224,11.735622,11.3868475,-28.574366
2.3650777,2.1826732,-3.2719884,7.7847476,7.1382823,-37.449734
2.2741077,1.9422983,-3.4711792,4.344165,1.7164879,-45.19468
2.209886,1.671621,-3.6468685,0.71480983,-4.3879056,-51.46962
2.1990175,1.3237131,-3.794843,-2.246584,-10.436417,-56.514553
2.2310853,0.9000075,-3.9377675,-4.371761,-16.823313,-59.970867
2.3217394,0.42132208,-4.0299664,-4.697166,-23.096088,-60.036297
2.4563491,-0.07888228,-4.0057597,-2.9113753,-27.685097,-56.6557
2.5695937,-0.49727327,-3.9699159,0.5422443,-31.14224,-51.374996
2.651498,-0.7934132,-3.9062185,4.1108937,-33.976826,-45.49242
2.748997,-1.0025283,-3.771714,8.047498,-35.718815,-39.42159
2.8580987,-1.1310711,-3.5902421,11.744796,-36.623833,-33.077477
2.9695036,-1.1807933,-3.3287907,15.068036,-36.945244,-26.350561
3.0807347,-1.1800411,-3.005747,18.365599,-35.961662,-19.194489
3.17502,-1.0688612,-2.6546602,20.974936,-33.783646,-11.685205
3.239713,-0.85459685,-2.3201916,22.793898,-31.150229,-4.957291
3.2555017,-0.5993631,-2.0277278,23.349316,-28.904257,-0.09550218
3.2328472,-0.36958268,-1.7478385,23.6822,-26.342463,3.4682724
3.1799061,-0.16187204,-1.5051686,23.912167,-23.307953,5.9845037
3.0948656,0.036072787,-1.3140825,23.754417,-20.073189,7.771957
2.9725778,0.21676144,-1.1800562,23.144527,-16.91143,9.114585
2.8131776,0.37147528,-1.1040556,22.25458,-14.130478,10.015267
2.611053,0.50363195,-1.0979407,21.530704,-12.016451,10.519783
2.4018285,0.62222266,-1.1293774,20.860918,-10.7095,10.38779
2.3248549,0.60228163,-1.093183,20.192368,-10.366282,10.054882
2.250481,0.5830142,-1.0582113,19.546398,-10.034657,9.733218
2.178607,0.5643944,-1.024415,18.922142,-9.714178,9.422367
2.109138,0.5463976,-0.99174964,18.318773,-9.404424,9.121918
2.0419834,0.52900046,-0.9601726,17.735508,-9.104989,8.831477
1.9770573,0.51218057,-0.9296433,17.171597,-8.81549,8.550675
1.9142774,0.49591666,-0.90012324,16.626326,-8.535561,8.279156
1.8535653,0.48018846,-0.8715754,16.099016,-8.264853,8.016579
1.7948463,0.46497655,-0.8439648,15.589014,-8.00303,7.7626214
1.7380486,0.45026243,-0.81725764,15.095702,-7.749775,7.516974
1.6831038,0.43602833,-0.7914218,14.618484,-7.504782,7.2793407
1.6299466,0.4222573,-0.7664264,14.15679,-7.26776,7.0494385
1.578514,0.4089331,-0.742242,13.710075,-7.0384274,6.826995
1.5287461,0.3960401,-0.71884036,13.27782,-6.8165174,6.6117516
1.4805851,0.38356343,-0.6961943,12.859521,-6.601773,6.4034576
1.4339758,0.37148872,-0.67427784,12.454699,-6.3939466,6.2018743
1.388865,0.35980222,-0.65306604,12.062892,-6.1928024,6.0067725
1.3452016,0.34849072,-0.63253486,11.683657,-5.998112,5.8179307
1.3029368,0.3375415,-0.6126613,11.316568,-5.8096576,5.635137
1.2620233,0.32694235,-0.5934231,10.961217,-5.6272287,5.4581885
1.2224158,0.31668156,-0.57479906,10.617209,-5.4506235,5.286888
1.1840708,0.30674782,-0.5567686,10.284166,-5.279647,5.1210475
1.1469462,0.29713023,-0.539312,9.961722,-5.114112,4.9604855
1.1110015,0.2878183,-0.5224103,9.649528,-4.9538383,4.8050265
1.0761977,0.278802,-0.50604504,9.347242,-4.798652,4.6545024
1.0424976,0.27007157,-0.4901987,9.054542,-4.648387,4.5087504
1.0098647,0.26161763,-0.4748542,8.771111,-4.50288,4.3676147
0.9782642,0.25343114,-0.45999515,8.496647,-4.361977,4.2309446
0.94766253,0.2455034,-0.44560575,8.230858,-4.2255273,4.0985937
0.9180271,0.23782599,-0.4316707,7.9734616,-4.0933857,3.9704218
0.8893266,0.23039079,-0.41817528,7.7241855,-3.9654136,3.8462937
0.86153084,0.22318995,-0.4051053,7.4827676,-3.8414752,3.7260783
0.83461064,0.21621595,-0.392447,7.248954,-3.7214408,3.6096497
0.8085377,0.20946145,-0.3801871,7.0224996,-3.6051846,3.4968858
0.78328496,0.20291941,-0.36831287,6.803168,-3.492585,3.3876688
0.758826,0.19658302,-0.35681185,6.590731,-3.3835251,3.281885
0.7351354,0.19044569,-0.34567216,6.3849683,-3.2778912,3.1794243
0.71218866,0.18450105,-0.33488226,6.185666,-3.175574,3.0801806
0.68996197,0.17874297,-0.32443094,5.9926176,-3.0764678,2.9840515
0.6684325,0.1731655,-0.31430742,5.8056245,-2.98047,2.8909376
0.64757794,0.16776288,-0.3045013,5.624494,-2.8874817,2.8007426
0.6273769,0.16252956,-0.29500246,5.4490395,-2.7974076,2.7133741
0.6078087,0.15746017,-0.28580117,5.279081,-2.7101548,2.6287427
0.5888532,0.15254952,-0.27688798,5.1144443,-2.6256342,2.546761
0.570491,0.14779258,-0.2682538,4.954961,-2.543759,2.4673455
0.5527034,0.14318447,-0.25988978,4.8004675,-2.464446,2.3904147
0.53547215,0.13872051,-0.2517874,4.650807,-2.3876138,2.3158906
0.51877975,0.13439615,-0.24393836,4.505826,-2.313184,2.2436967
0.5026092,0.13020697,-0.2363347,4.365378,-2.2410812,2.17376
0.486944,0.12614872,-0.2289687,4.229319,-2.171232,2.1060088
0.4717683,0.12221727,-0.22183284,4.0975113,-2.103565,2.0403745
0.45706666,0.11840863,-0.2149199,3.9698212,-2.038012,1.9767907
0.44282418,0.114718944,-0.20822287,3.8461192,-1.9745063,1.9151927
0.42902642,0.11114447,-0.20173495,3.7262797,-1.9129835,1.8555181
0.41565943,0.10768159,-0.19544956,3.6101816,-1.8533815,1.7977065
0.40270966,0.10432679,-0.18936038,3.4977071,-1.7956399,1.7416993
0.39016402,0.10107669,-0.18346123,3.388743,-1.7397002,1.6874402
0.37800986,0.09792801,-0.17774615,3.2831788,-1.685506,1.6348739
0.36623487,0.09487756,-0.17220937,3.180908,-1.6330026,1.5839478
0.35482723,0.09192227,-0.1668453,3.0818274,-1.5821371,1.5346102
0.34377536,0.08905915,-0.16164856,2.9858372,-1.532858,1.4868114
0.33306816,0.08628532,-0.15661386,2.8928406,-1.4851158,1.4405034
0.32269484,0.08359799,-0.15173617,2.802744,-1.4388622,1.3956392
0.31264496,0.08099444,-0.14701055,2.7154562,-1.3940508,1.3521739
0.30290836,0.07847207,-0.14243226,2.63089,-1.3506365,1.3100637
0.29347533,0.07602832,-0.13799669,2.5489597,-1.3085755,1.2692662
0.2843363,0.073660746,-0.13369937,2.4695835,-1.2678255,1.2297404
0.2754821,0.07136696,-0.12953599,2.392681,-1.2283456,1.1914464
0.26690385,0.06914466,-0.12550236,2.318175,-1.1900961,1.154346
0.25859293,0.06699161,-0.12159444,2.2459912,-1.1530385,1.1184016
0.25054097,0.06490566,-0.11780828,2.1760564,-1.1171358,1.0835773
0.24273989,0.062884696,-0.11414009,2.1083007,-1.0823516,1.0498381
0.23518187,0.0609267,-0.110586196,2.042656,-1.0486511,1.0171499
0.22785932,0.059029702,-0.107143015,1.9790565,-1.0160006,0.98548025
0.22076488,0.057191804,-0.1038071,1.9174383,-0.9843673,0.9547972
0.21389145,0.055411156,-0.100575104,1.8577396,-0.9537194,0.9250699
0.20723212,0.053685978,-0.09744378,1.7999004,-0.92402613,0.89626867
0.20078021,0.052014533,-0.094409995,1.7438629,-0.8952578,0.8683645
0.19452927,0.050395153,-0.0914707,1.6895707,-0.86738545,0.84132946
0.18847302,0.048826206,-0.08862296,1.6369694,-0.84038126,0.8151365
0.18260537,0.047306124,-0.0858639,1.5860065,-0.8142181,0.7897592
0.17692047,0.045833383,-0.08319078,1.5366307,-0.78886974,0.76517236
0.17141263,0.044406507,-0.0806009,1.4887927,-0.76431084,0.7413511
0.16607629,0.043024067,-0.07809167,1.4424443,-0.74051666,0.7182718
0.16090614,0.041684676,-0.07566059,1.3975393,-0.7174635,0.6959111
0.15589698,0.040386993,-0.0733052,1.3540325,-0.6951282,0.6742467
0.1510438,0.03912972,-0.07102316,1.3118806,-0.6734884,0.65325695
0.14634174,0.037911594,-0.06881218,1.2710412,-0.6525224,0.6329208
0.1417861,0.036731396,-0.06667004,1.2314734,-0.63220924,0.61321783
0.1373723,0.035587948,-0.064594604,1.1931376,-0.61252856,0.5941284
0.13309592,0.034480102,-0.06258379,1.1559956,-0.5934607,0.5756333
0.1289527,0.033406753,-0.060635578,1.1200099,-0.57498646,0.55771405
0.12493847,0.03236682,-0.058748025,1.0851446,-0.5570875,0.54035276
0.12104923,0.031359263,-0.056919243,1.0513649,-0.53974575,0.523532
0.11728108,0.030383078,-0.0551474,1.0186368,-0.522944,0.5072349
0.11363024,0.029437283,-0.053430717,0.9869277,-0.5066652,0.49144518
0.110093065,0.028520936,-0.051767483,0.9562058,-0.49089336,0.47614706
0.10666601,0.027633116,-0.050156027,0.92644036,-0.4756125,0.46132523
0.10334565,0.026772937,-0.048594743,0.8976016,-0.46080735,0.44696483
0.10012866,0.025939537,-0.047082063,0.8696606,-0.44646314,0.4330515
0.09701182,0.02513208,-0.045616474,0.8425895,-0.43256545,0.4195713
0.09399201,0.024349764,-0.044196513,0.8163612,-0.41910046,0.4065108
0.09106621,0.0235918,-0.04282076,0.79094934,-0.40605462,0.39385685
0.0882315,0.022857433,-0.04148783,0.76632863,-0.3934149,0.38159686
0.085485026,0.022145927,-0.040196396,0.7424744,-0.3811687,0.36971852
0.08282405,0.02145657,-0.03894517,0.7193627,-0.36930373,0.35820994
0.08024592,0.020788673,-0.037732888,0.69697046,-0.35780808,0.34705964
0.077748045,0.020141568,-0.03655835,0.6752753,-0.34667033,0.33625644
0.075327925,0.019514607,-0.03542037,0.65425557,-0.33587927,0.32578954
0.072983146,0.018907163,-0.034317818,0.6338901,-0.32542413,0.3156485
0.07071135,0.018318629,-0.033249587,0.61415863,-0.31529447,0.30582312
0.06851029,0.017748415,-0.032214608,0.5950414,-0.30548012,0.2963036
0.06637773,0.017195951,-0.031211847,0.57651925,-0.2959713,0.2870804
0.064311564,0.016660685,-0.030240303,0.55857366,-0.28675845,0.27814433
