ax,ay,az,gx,gy,gz
-3.906399,1.5354685,-9.118264,13.261029,12.151928,-12.207384
-4.562304,1.4947456,-10.074408,7.873127,-17.397568,-21.193367
-4.8924813,1.3875368,-10.444947,2.4293559,-52.664158,-29.551935
-4.950628,1.1110175,-10.443981,4.5091543,-80.11464,-32.492825
-4.963329,0.79453224,-10.451877,10.748788,-101.04967,-33.07847
-5.089047,0.4105076,-10.747131,17.959549,-121.335976,-32.947655
-5.195229,0.026070643,-11.265498,25.571115,-145.55394,-33.79422
-5.155741,-0.36928242,-11.796372,28.532036,-176.20518,-34.31055
-4.811749,-0.73013574,-12.053448,29.654148,-206.65869,-33.767475
-4.2674804,-0.94873613,-11.960903,31.887238,-233.74977,-31.055021
-3.5311205,-1.038305,-11.555351,33.752068,-254.84969,-26.14305
-2.7214427,-0.97650695,-11.008765,35.250698,-271.25336,-20.646301
-1.8227416,-0.7213768,-10.288489,36.544685,-283.15692,-18.252348
-0.64809376,-0.34710956,-9.207851,38.007507,-286.2121,-19.61302
0.71024704,-0.035336755,-7.989575,38.970974,-282.2152,-23.024618
2.1938434,0.16036452,-6.6929054,40.651203,-272.13464,-25.689957
3.6267283,0.3689526,-5.4303718,41.08959,-258.21976,-25.294481
4.892678,0.5906818,-4.2443104,38.40809,-238.7007,-20.309158
5.8558745,0.8215192,-3.2559645,36.07091,-216.4807,-13.698517
6.511036,1.065332,-2.5020149,32.883957,-193.3857,-7.534104
6.974981,1.2217364,-1.8756803,30.461,-168.94054,-2.301503
7.2839613,1.306857,-1.4135768,28.11371,-142.99355,2.1509109
7.4322133,1.372474,-1.1531184,25.229559,-117.23778,5.771408
7.355681,1.440833,-1.1601312,21.932375,-94.09994,8.107978
7.119397,1.4575671,-1.3024163,19.045166,-73.92879,8.851704
6.8020964,1.4293892,-1.500012,16.740927,-56.348537,8.553034
6.462002,1.3859205,-1.6793996,14.40141,-41.218903,7.717193
6.1416683,1.3331659,-1.8299564,13.2118025,-28.179134,7.0526686
5.8435946,1.2767881,-1.9846438,12.7006855,-16.741098,6.6070147
5.538222,1.2121824,-2.169471,13.104888,-7.005891,6.101492
5.2071834,1.1360128,-2.3784726,15.373022,0.80943066,5.497435
4.8924866,1.1108257,-2.5577703,17.625854,7.032362,5.020419
4.6298513,1.1622993,-2.6863658,18.798866,11.990428,4.6778255
4.4357123,1.2948829,-2.77773,18.798872,16.291979,3.9211128
4.2837224,1.4261503,-2.8556826,18.263184,20.378567,2.4177601
4.144365,1.5451326,-2.9618492,17.806725,23.89785,0.15293407
3.987615,1.6705844,-3.1037645,17.28558,26.33668,-3.045511
3.805518,1.7876848,-3.262266,16.730816,27.124744,-7.181135
3.6021066,1.8988158,-3.3968778,15.397575,27.189238,-11.51918
3.4049401,1.9863243,-3.5134172,13.312466,26.9985,-16.06148
3.1995478,2.0377607,-3.6377685,11.0073805,26.661844,-21.044302
2.961201,2.0486026,-3.8006315,8.377158,25.370491,-26.651796
2.6889825,2.0024598,-3.9986422,5.7547507,22.054832,-33.51316
2.3873856,1.8565651,-4.2628303,2.873765,16.487118,-41.3834
2.116395,1.6346394,-4.512078,-0.93541324,8.903042,-49.580288
1.936759,1.2983077,-4.660075,-3.8107448,1.0960579,-56.362453
1.8388456,0.8633614,-4.7329354,-3.9804685,-5.4451327,-60.19357
1.7928575,0.40687907,-4.8166246,-1.1141822,-12.229309,-60.517597
1.8252178,-0.07098368,-4.8429585,3.5643234,-18.852234,-58.175426
1.9406555,-0.5401889,-4.7928147,9.666076,-24.24942,-53.26865
2.1179376,-0.9953323,-4.6686034,16.645868,-27.952122,-46.504753
2.3026974,-1.3449677,-4.50309,24.42029,-29.994486,-38.40738
2.4623604,-1.4808358,-4.2995706,30.545284,-30.258688,-30.120285
2.6160219,-1.4371341,-4.0481524,34.821995,-30.167824,-22.727343
2.7879207,-1.3285041,-3.731745,37.665836,-29.550596,-15.845889
2.996129,-1.1616324,-3.338245,39.794662,-27.461523,-9.129153
3.2019086,-0.901406,-2.9317005,41.352127,-24.087841,-2.982468
3.3624659,-0.56432384,-2.568718,41.92719,-20.419973,1.4299213
3.4523897,-0.2208913,-2.2570274,41.62025,-16.500679,4.3682203
3.486448,0.08183682,-2.0075514,40.389805,-12.354822,6.170271
3.4636636,0.3274082,-1.8217348,38.187675,-8.012174,7.4071875
3.3894193,0.51274127,-1.7024232,35.267727,-3.522971,8.531603
3.2639465,0.650813,-1.6552896,31.616879,0.83778644,9.573522
3.0789328,0.73845786,-1.6999059,28.446407,4.6346073,10.4121685
2.8631742,0.80861527,-1.7965604,26.421633,7.2838507,11.027625
2.6358683,0.8816116,-1.91297,24.716845,8.613878,11.161532
2.551394,0.8533577,-1.8516631,23.924719,8.337821,10.803827
2.469773,0.8260581,-1.792427,23.15935,8.071088,10.458204
2.3908954,0.7996762,-1.7351819,22.419706,7.8133197,10.124199
2.3146572,0.77417696,-1.6798524,21.704811,7.5641775,9.80137
2.2409592,0.74952734,-1.6263663,21.013735,7.3233356,9.489297
2.1697063,0.72569567,-1.5746549,20.34559,7.090486,9.187578
2.100809,0.7026518,-1.5246531,19.699532,6.865333,8.895834
2.034181,0.6803669,-1.4762981,19.074753,6.6475964,8.613699
1.9697403,0.65881354,-1.4295304,18.470484,6.437007,8.340826
1.907408,0.6379655,-1.3842931,17.885988,6.233309,8.076881
1.8471094,0.61779755,-1.3405316,17.32056,6.036256,7.821548
1.7887723,0.59828573,-1.2981937,16.773527,5.8456135,7.5745206
1.732328,0.579407,-1.2572296,16.244244,5.6611567,7.335509
1.6777107,0.5611392,-1.2175913,15.732089,5.48267,7.1042323
1.6248568,0.5434613,-1.1792327,15.236472,5.309946,6.8804235
1.5737058,0.526353,-1.1421101,14.756823,5.142787,6.6638255
1.5241992,0.50979465,-1.1061809,14.292594,4.9810023,6.454191
1.4762813,0.49376768,-1.0714047,13.843262,4.824409,6.251283
1.429898,0.47825402,-1.0377423,13.40832,4.672831,6.0548744
1.3849978,0.46323636,-1.0051562,12.987287,4.5260997,5.8647456
1.3415309,0.44869813,-0.9736102,12.579692,4.3840523,5.680686
1.2994494,0.43462324,-0.94306976,12.185089,4.246532,5.5024924
1.2587073,0.4209963,-0.9135013,11.803044,4.1133885,5.329971
1.21926,0.40780252,-0.8848727,11.433144,3.9844773,5.1629324
1.181065,0.39502755,-0.8571528,11.074985,3.859658,5.0011964
1.144081,0.3826576,-0.83031183,10.728181,3.7387962,4.8445883
1.1082683,0.3706794,-0.8043209,10.392361,3.6217623,4.6929398
1.0735886,0.3590802,-0.7791523,10.067165,3.5084307,4.5460896
1.040005,0.34784758,-0.7547791,9.752248,3.3986812,4.40388
1.0074818,0.33696964,-0.73117554,9.447274,3.2923973,4.2661614
0.9759847,0.32643488,-0.7083166,9.151922,3.1894662,4.1327877
0.9454804,0.3162322,-0.6861783,8.86588,3.08978,4.0036182
0.91593707,0.30635092,-0.66473734,8.588848,2.993234,3.8785172
0.88732356,0.29678065,-0.6439712,8.320537,2.8997264,3.7573538
0.8596101,0.2875114,-0.6238583,8.060664,2.8091602,3.6400018
0.8327678,0.27853352,-0.60437757,7.8089604,2.721441,3.5263386
0.8067687,0.2698377,-0.5855089,7.5651646,2.6364775,3.416246
0.781586,0.2614149,-0.5672326,7.329023,2.5541816,3.3096101
0.7571935,0.2532564,-0.5495299,7.1002917,2.4744682,3.2063208
0.7335661,0.24535382,-0.5323824,6.878735,2.3972552,3.106271
0.7106795,0.23769899,-0.5157725,6.664124,2.3224628,3.009358
0.68851,0.23028404,-0.49968314,6.4562387,2.2500143,2.9154818
0.667035,0.22310135,-0.48409775,6.254865,2.179835,2.8245463
0.6462324,0.21614356,-0.46900037,6.059797,2.1118534,2.7364583
0.626081,0.20940357,-0.45437557,5.8708344,2.0459995,2.6511273
0.6065601,0.20287447,-0.44020835,5.6877847,1.9822062,2.5684667
0.5876498,0.1965496,-0.4264843,5.510461,1.9204085,2.4883914
0.5693309,0.1904225,-0.41318938,5.3386817,1.8605431,2.4108202
0.5515846,0.18448697,-0.40031013,5.172273,1.8025492,2.335674
0.53439295,0.17873693,-0.38783336,5.011065,1.7463679,2.2628763
0.5177385,0.17316656,-0.37574646,4.854894,1.6919421,2.1923532
0.5016043,0.16777019,-0.36403713,4.703602,1.6392163,2.1240335
0.485974,0.16254237,-0.35269353,4.557035,1.5881374,2.0578473
0.47083175,0.1574778,-0.3417041,4.4150443,1.5386533,1.9937277
0.45616224,0.15257132,-0.33105776,4.277487,1.4907141,1.9316099
0.44195062,0.147818,-0.32074374,4.1442227,1.4442712,1.8714311
0.4281825,0.14321302,-0.3107516,4.015117,1.3992778,1.8131303
0.414844,0.13875173,-0.30107123,3.8900406,1.3556883,1.7566487
0.40192166,0.13442962,-0.29169288,3.7688663,1.3134587,1.7019292
0.3894024,0.13024235,-0.2826071,3.6514719,1.2725464,1.6489167
0.37727362,0.12618566,-0.2738047,3.5377388,1.2329103,1.5975577
0.3655231,0.1222555,-0.2652768,3.4275527,1.1945101,1.5478003
0.35413897,0.11844788,-0.2570148,3.3208025,1.1573074,1.4995944
0.34310982,0.11475898,-0.24901044,3.2173808,1.1212647,1.4528916
0.33242446,0.11118509,-0.24125561,3.117183,1.0863456,1.4076447
0.32207224,0.10772261,-0.23374252,3.020109,1.052515,1.3638085
0.31204268,0.104368046,-0.22646362,2.9260607,1.019739,1.3213385
0.30232573,0.10111804,-0.21941158,2.8349435,0.9879845,1.2801923
0.2929116,0.09796932,-0.21257931,2.7466662,0.95721954,1.2403283
0.28379083,0.09491873,-0.20595995,2.6611395,0.9274134,1.2017065
0.27495426,0.09196319,-0.19954686,2.578278,0.89853597,1.1642883
0.26639304,0.089099735,-0.19333358,2.4979985,0.8705583,1.128036
0.25809854,0.086325504,-0.18731388,2.4202201,0.8434524,1.0929132
0.25006247,0.08363769,-0.18148173,2.3448648,0.8171909,1.0588845
0.24227673,0.081033625,-0.17583127,2.271857,0.7917475,1.025916
0.23473352,0.07851067,-0.17035684,2.2011237,0.76709676,0.99397445
0.22742529,0.07606631,-0.16505292,2.1325936,0.74321383,0.9630279
0.2203447,0.07369808,-0.15991421,2.066198,0.72007483,0.93304527
0.21348466,0.071403615,-0.15493555,2.0018704,0.6976566,0.9039965
0.20683827,0.06918062,-0.15011197,1.9395465,0.6759365,0.87585247
0.20039888,0.06702685,-0.14543861,1.8791636,0.6548929,0.848585
0.19416003,0.06494016,-0.14091079,1.8206612,0.6345047,0.82216674
0.18811548,0.06291846,-0.13652399,1.7639807,0.6147514,0.7965712
0.18225916,0.060959715,-0.1322738,1.7090653,0.5956133,0.77177274
0.17658521,0.059061963,-0.12815595,1.6558601,0.57707113,0.7477465
0.17108795,0.05722331,-0.12416633,1.6043116,0.55910635,0.72446847
0.16576186,0.05544191,-0.12030095,1.5543684,0.541701,0.7019153
0.16060163,0.053715978,-0.11655593,1.5059801,0.5248376,0.6800644
0.15560207,0.052043788,-0.11292752,1.4590987,0.5084993,0.6588938
0.15075818,0.050423667,-0.10941209,1.413677,0.49266973,0.6383825
0.1460651,0.04885399,-0.10600611,1.3696696,0.47733304,0.61850977
0.14151815,0.047333185,-0.10270619,1.3270322,0.46247384,0.5992558
0.13711277,0.045859728,-0.099509,1.2857225,0.4480773,0.5806013
0.13284455,0.04443215,-0.096411355,1.2456989,0.43412897,0.5625276
0.12870923,0.043049015,-0.09341016,1.2069213,0.42061493,0.54501665
0.12470264,0.041708946,-0.090502396,1.1693512,0.40752164,0.52805084
0.12082079,0.040410593,-0.08768516,1.1329507,0.39483595,0.51161325
0.1170598,0.039152663,-0.08495564,1.0976833,0.38254523,0.49568737
0.11341589,0.037933897,-0.08231109,1.063514,0.37063715,0.48025733
0.10988543,0.036753073,-0.07974887,1.0304085,0.35909978,0.46530765
0.10646488,0.03560901,-0.07726642,0.9983336,0.34792158,0.4508234
0.10315081,0.034500565,-0.07486125,0.9672572,0.3370914,0.43679005
0.09993991,0.033426628,-0.072530955,0.9371483,0.32659835,0.42319357
0.096828975,0.03238612,-0.07027321,0.9079766,0.31643197,0.41002038
0.09381489,0.031378005,-0.068085745,0.8797131,0.3065821,0.39725727
0.090894625,0.030401273,-0.065966375,0.8523295,0.29703882,0.38489148
0.088065274,0.029454947,-0.06391299,0.82579833,0.28779265,0.37291062
0.085324,0.02853808,-0.06192352,0.80009305,0.2788343,0.36130276
0.08266805,0.027649755,-0.05999598,0.77518797,0.27015483,0.35005623
0.08009479,0.026789082,-0.058128446,0.7510582,0.26174554,0.3391598
0.077601634,0.025955202,-0.056319047,0.72767955,0.25359803,0.32860258
0.07518609,0.025147282,-0.054565974,0.7050287,0.24570414,0.31837398
0.072845735,0.024364509,-0.052867472,0.68308294,0.238056,0.30846378
0.07057823,0.023606105,-0.051221844,0.6618203,0.23064592,0.2988621
