ax,ay,az,gx,gy,gz
-5.2545934,1.3872854,-10.53646,5.270957,-68.35971,-27.910254
-5.4958797,1.6496826,-11.519192,-15.50346,-99.1277,-33.834522
-5.4364557,1.7396253,-11.9192095,-42.66379,-124.98431,-40.810215
-5.166811,1.3091004,-11.867748,-57.964317,-139.66118,-45.477417
-4.883712,0.8941422,-11.927977,-67.927315,-149.71437,-46.873093
-4.568832,0.5022386,-11.98524,-69.70579,-158.12915,-50.297558
-4.243866,-0.080979064,-12.059853,-61.438194,-165.4399,-52.75353
-3.9763405,-0.4466688,-12.222608,-49.13085,-174.91573,-54.706936
-3.5889974,-0.6805506,-12.32732,-36.374874,-186.08813,-56.33104
-3.0396097,-0.8641671,-12.238049,-23.37386,-196.9513,-56.306587
-2.3472638,-0.9973486,-11.954861,-8.999126,-206.9321,-53.582333
-1.5843548,-0.9761249,-11.455442,4.070233,-214.95966,-51.20086
-0.85849965,-0.84496266,-10.836682,14.6846485,-221.4874,-49.92927
-0.123722635,-0.64609706,-10.054747,22.879269,-227.28442,-48.829357
0.717175,-0.35411978,-9.051319,28.135424,-232.48027,-46.244648
1.7374357,0.023330811,-7.761691,30.173063,-234.75066,-41.34615
2.9656775,0.44078663,-6.139744,31.12246,-232.36732,-35.760178
4.179156,0.8468833,-4.5077205,31.93739,-224.5581,-31.53584
5.2526813,1.2348796,-2.9754684,32.2768,-211.9513,-28.828518
6.1622386,1.5901892,-1.5983579,31.770048,-195.37405,-26.06601
6.856803,1.9176931,-0.49451676,28.006508,-175.87613,-22.32692
7.245191,2.158603,0.2398683,23.496595,-155.94518,-19.21082
7.442513,2.3198843,0.7263717,19.145725,-135.8092,-16.875101
7.523591,2.4304807,1.0167946,14.630866,-115.75546,-14.96381
7.5264535,2.476988,1.1395738,10.490304,-96.11701,-13.150043
7.4518538,2.48788,1.104427,7.2316265,-77.40856,-11.793919
7.2774706,2.4682987,0.89719296,4.616738,-60.434708,-11.086996
7.046088,2.3984106,0.61684865,2.5980766,-45.023952,-10.717337
6.7888203,2.299432,0.29848376,1.2876388,-31.039038,-10.276821
6.519692,2.2058048,-0.028534897,0.75934166,-18.289312,-9.38459
6.249679,2.1624103,-0.35453096,0.052996155,-7.102302,-7.926677
6.0037675,2.1927881,-0.6629327,-0.9400617,2.8374448,-6.503956
5.791067,2.282363,-0.96693236,-0.9952477,11.028977,-5.9847293
5.6064157,2.4398081,-1.274249,-1.6558901,17.073595,-7.369919
5.463758,2.5732532,-1.5399495,-3.6205654,22.004473,-9.958907
5.329609,2.626838,-1.809073,-5.459995,26.878408,-13.0706835
5.1260257,2.6288488,-2.160894,-6.867138,31.20826,-16.403791
4.8624063,2.6264625,-2.5617073,-7.4658613,34.43741,-20.49411
4.5384197,2.622048,-3.0028324,-7.8327785,35.970634,-25.5604
4.1495643,2.6014233,-3.4765477,-8.08871,34.340656,-32.15809
3.744294,2.5767157,-3.9341674,-11.318301,28.958336,-40.202076
3.403652,2.4269643,-4.27056,-15.061218,22.647495,-48.334217
3.1264036,2.1606216,-4.5163655,-17.299423,16.40312,-55.49459
2.8682804,1.8376638,-4.7248363,-18.163887,9.83996,-61.371082
2.6367395,1.4609954,-4.8858814,-17.346548,2.806839,-65.70882
2.4609835,1.0217916,-4.9823165,-14.9578905,-4.40654,-67.12228
2.4173212,0.4656086,-4.9735384,-11.639703,-11.03797,-65.40168
2.4391236,-0.09542206,-4.9148707,-6.547135,-16.960453,-60.012196
2.4957843,-0.52206475,-4.831958,-0.37444484,-22.223452,-52.349613
2.5794003,-0.80564,-4.7242785,5.757373,-26.933113,-44.281773
2.7191527,-0.9861606,-4.5509105,11.427997,-30.222126,-36.82053
2.8972263,-1.0754296,-4.3299093,16.294622,-32.6185,-29.879835
3.0649896,-1.1226195,-4.093824,20.62554,-34.31206,-23.247849
3.1949472,-1.1164786,-3.867078,25.069784,-35.69429,-16.747393
3.3173888,-1.0026029,-3.6135826,28.65523,-36.940178,-9.902313
3.462483,-0.80054855,-3.3113036,31.333185,-37.314373,-4.0262733
3.6243188,-0.54607946,-2.9482949,33.25922,-36.40448,0.9270148
3.7763743,-0.27570075,-2.5759854,34.71161,-33.79519,4.7931957
3.8763962,0.016877662,-2.2513816,36.153816,-30.170729,7.681436
3.8751457,0.3487985,-2.0170405,37.045795,-26.73271,9.355697
3.792311,0.6562499,-1.8351058,36.44319,-23.758902,10.031176
3.6728513,0.88257104,-1.6848102,35.408863,-20.748785,10.659293
3.5329506,1.0779806,-1.5728338,33.881832,-17.671711,11.387865
3.3763113,1.2462621,-1.4955828,32.122192,-14.454942,12.004695
3.207322,1.3850535,-1.4549923,29.884882,-11.059945,12.311647
3.1043377,1.3405807,-1.4082738,28.925306,-10.704821,11.916331
3.00485,1.2976178,-1.3631414,27.998308,-10.3617525,11.534437
2.9087224,1.256106,-1.3195335,27.10262,-10.030272,11.1654415
2.8158262,1.2159896,-1.2773913,26.23704,-9.709933,10.808849
2.7260382,1.1772155,-1.2366593,25.400421,-9.400314,10.464189
2.6392417,1.1397332,-1.1972843,24.591679,-9.10101,10.131011
2.5553255,1.1034946,-1.159216,23.80977,-8.811638,9.808889
2.474183,1.068454,-1.122406,23.05371,-8.531832,9.497416
2.3957133,1.0345676,-1.0868084,22.322554,-8.261241,9.196201
2.3198197,1.0017935,-1.0523794,21.615396,-7.999533,8.904875
2.2464092,0.9700919,-1.019077,20.93138,-7.746389,8.623081
2.1753938,0.93942446,-0.98686105,20.269678,-7.501503,8.350481
2.1066885,0.90975475,-0.9556931,19.629503,-7.264584,8.086748
2.0402126,0.88104767,-0.92553645,19.0101,-7.0353518,7.8315735
1.975888,0.8532697,-0.89635587,18.410744,-6.813539,7.5846567
1.9136405,0.82638866,-0.86811745,17.830738,-6.598888,7.345713
1.8533984,0.8003737,-0.8407888,17.26942,-6.391153,7.114467
1.7950932,0.77519506,-0.8143388,16.726149,-6.1900964,6.8906565
1.7386588,0.7508244,-0.7887375,16.20031,-5.995491,6.674027
1.684032,0.72723424,-0.7639562,15.691314,-5.807119,6.464336
1.6311517,0.7043984,-0.7399672,15.198591,-5.62477,6.2613497
1.5799594,0.68229145,-0.716744,14.721597,-5.4482417,6.0648427
1.5303988,0.66088915,-0.694261,14.259807,-5.27734,5.8745995
1.4824157,0.6401681,-0.6724936,13.812713,-5.111877,5.6904106
1.4359576,0.6201055,-0.651418,13.379829,-4.9516735,5.512076
1.3909742,0.6006799,-0.63101137,12.960688,-4.7965555,5.3394027
1.347417,0.5818701,-0.61125183,12.554835,-4.6463556,5.172204
1.3052393,0.56365603,-0.592118,12.161837,-4.5009127,5.0103006
1.2643961,0.54601824,-0.5735896,11.781271,-4.360071,4.853519
1.2248436,0.5289379,-0.5556468,11.412733,-4.2236805,4.701693
1.1865402,0.5123969,-0.53827053,11.055832,-4.091597,4.5546613
1.1494452,0.4963777,-0.5214425,10.710192,-3.9636807,4.4122677
1.1135194,0.48086348,-0.50514483,10.375446,-3.8397965,4.274363
1.0787253,0.46583796,-0.4893606,10.051245,-3.7198145,4.1408024
1.0450264,0.4512854,-0.4740732,9.737248,-3.603609,4.0114455
1.0123875,0.43719053,-0.45926663,9.433128,-3.4910588,3.8861573
0.9807745,0.42353877,-0.4449255,9.138568,-3.3820465,3.7648075
0.95015466,0.41031587,-0.4310349,8.853262,-3.276459,3.64727
0.9204962,0.39750814,-0.41758046,8.576913,-3.1741865,3.533423
0.8917685,0.38510233,-0.4045482,8.309237,-3.0751235,3.4231486
0.86394185,0.37308562,-0.3919247,8.049956,-2.9791677,3.316333
0.8369876,0.36144567,-0.379697,7.798804,-2.88622,3.212866
0.810878,0.35017046,-0.36785245,7.5555224,-2.7961853,3.1126416
0.78558624,0.33924845,-0.3563789,7.3198614,-2.7089705,3.0155566
0.76108646,0.32866845,-0.34526467,7.09158,-2.624487,2.9215117
0.73735356,0.31841958,-0.3344983,6.8704433,-2.5426476,2.8304102
0.7143632,0.3084914,-0.32406878,6.656226,-2.4633691,2.7421594
0.692092,0.2988738,-0.31396553,6.44871,-2.3865705,2.6566691
0.67051727,0.28955695,-0.3041782,6.2476826,-2.3121734,2.573852
0.649617,0.28053135,-0.29469687,6.05294,-2.240102,2.4936242
0.6293699,0.27178782,-0.28551185,5.8642836,-2.170283,2.4159036
0.6097555,0.2633175,-0.2766138,5.6815224,-2.1026459,2.3406115
0.5907538,0.25511178,-0.26799375,5.50447,-2.0371215,2.2676713
0.5723455,0.24716234,-0.25964287,5.3329473,-1.9736435,2.1970093
0.5545121,0.23946112,-0.2515528,5.1667805,-1.9121476,2.1285536
0.5372354,0.23200032,-0.24371526,5.005801,-1.8525716,2.062235
0.5204979,0.22477241,-0.23612237,4.8498464,-1.7948552,1.9979868
0.50428283,0.21777007,-0.22876644,4.698759,-1.73894,1.9357435
0.4885737,0.21098621,-0.22164004,4.552386,-1.6847695,1.8754423
0.47335467,0.20441401,-0.21473597,4.4105797,-1.632289,1.8170223
0.4586104,0.19804683,-0.20804727,4.2731967,-1.5814458,1.7604249
0.44432598,0.19187823,-0.20156719,4.1400986,-1.5321882,1.7055926
0.43048704,0.18590201,-0.1952892,4.0111513,-1.4844668,1.6524704
0.41707963,0.18011214,-0.18920696,3.8862252,-1.4382335,1.6010046
0.40409026,0.17450279,-0.18331437,3.7651942,-1.3934417,1.5511435
0.39150584,0.16906832,-0.17760548,3.647936,-1.3500463,1.502837
0.3793137,0.16380326,-0.17207457,3.5343335,-1.3080037,1.4560361
0.36750162,0.15870231,-0.16671604,3.4242718,-1.2672715,1.4106941
0.35605767,0.15376034,-0.16152453,3.3176405,-1.2278088,1.3667654
0.34497038,0.14897239,-0.15649481,3.2143323,-1.189576,1.3242055
0.33422858,0.14433365,-0.15162183,3.1142435,-1.1525347,1.2829721
0.3238215,0.13983946,-0.14690068,3.0172737,-1.1166476,1.2430234
0.3137387,0.13548528,-0.14232665,2.923325,-1.0818785,1.2043195
0.30397007,0.13126677,-0.13789514,2.8323035,-1.0481929,1.1668215
0.29450575,0.12717968,-0.13360167,2.7441177,-1.0155567,1.1304916
0.28533626,0.12321993,-0.12944196,2.6586792,-0.98393714,1.0952936
0.27645242,0.11938352,-0.12541184,2.5759022,-0.9533026,1.061192
0.2678453,0.11566661,-0.12150724,2.4957037,-0.92362237,1.0281527
0.2595063,0.11206549,-0.11772427,2.418003,-0.8948666,0.9961425
0.251427,0.10857652,-0.11405913,2.342723,-0.8670065,0.9651294
0.24359936,0.10519622,-0.11050814,2.269787,-0.84001404,0.9350821
0.2360155,0.1019212,-0.10706775,2.199123,-0.8138623,0.9059707
0.22866783,0.09874818,-0.1037345,2.1306596,-0.78852504,0.87776583
0.22154899,0.09567396,-0.100505054,2.0643282,-0.7639768,0.8504394
0.21465184,0.09269549,-0.09737618,2.0000627,-0.74019307,0.82396394
0.20796947,0.08980977,-0.09434474,1.9377983,-0.71715,0.79831296
0.20149519,0.08701391,-0.0914077,1.8774728,-0.69482446,0.77346075
0.1952225,0.08430511,-0.08856212,1.8190259,-0.6731941,0.7493824
0.18914515,0.081680655,-0.08580514,1.7623987,-0.65223724,0.7260538
0.18325701,0.079137914,-0.08313401,1.7075349,-0.631933,0.7034516
0.17755222,0.07667436,-0.08054605,1.6543794,-0.61226094,0.6815531
0.17202505,0.0742875,-0.07803867,1.6028789,-0.59320134,0.66033655
0.16667,0.071974955,-0.075609356,1.5529819,-0.5747352,0.6397805
0.16148165,0.06973442,-0.07325568,1.5046384,-0.55684406,0.6198645
0.15645485,0.06756364,-0.07097528,1.4578001,-0.5395099,0.6005686
0.15158454,0.06546044,-0.068765886,1.4124202,-0.52271545,0.5818734
0.14686587,0.063422725,-0.066625275,1.368453,-0.50644386,0.56376034
0.14229411,0.06144845,-0.06455131,1.3258547,-0.49067885,0.5462111
0.13786468,0.05953564,-0.06254191,1.2845825,-0.47540465,0.5292083
0.13357314,0.05768238,-0.060595073,1.2445953,-0.46060598,0.5127348
0.12941523,0.055886816,-0.05870884,1.205853,-0.44626802,0.49677414
0.12538674,0.05414715,-0.05688133,1.1683167,-0.43237644,0.48131037
0.12148367,0.052461646,-0.05511071,1.1319491,-0.41891733,0.46632802
0.117702104,0.05082861,-0.05339522,1.0967135,-0.4058772,0.4518121
0.114038266,0.049246415,-0.05173313,1.062575,-0.393243,0.43774804
0.11048848,0.047713473,-0.05012278,1.0294992,-0.38100216,0.42412183
0.107049204,0.046228252,-0.04856256,0.99745303,-0.36914235,0.4109198
0.103717,0.044789266,-0.047050916,0.96640444,-0.35765174,0.39812875
0.10048851,0.043395076,-0.045586325,0.93632245,-0.34651884,0.3857359
0.09736054,0.042044286,-0.044167325,0.90717685,-0.3357325,0.3737288
0.09432994,0.040735546,-0.0427925,0.87893856,-0.32528195,0.3620955
0.09139367,0.039467547,-0.041460473,0.8515793,-0.3151567,0.35082436
0.08854881,0.038239017,-0.04016991,0.82507175,-0.30534664,0.33990404
0.08579251,0.037048735,-0.038919523,0.79938936,-0.29584196,0.32932368
0.08312201,0.0358955,-0.037708055,0.7745064,-0.28663316,0.3190727
