ax,ay,az,gx,gy,gz
-2.3582034,1.2354658,-10.619187,59.48236,23.582033,-4.716407
-2.6916335,1.3353019,-11.902224,45.856186,-5.248046,-21.866165
-2.8484874,1.2563518,-12.546544,20.208385,-36.610313,-37.08852
-2.7661128,0.707407,-12.61104,4.78688,-59.802822,-45.147217
-2.6782885,0.068443894,-12.6086645,4.1916256,-75.918175,-45.10278
-2.8091433,-0.26045802,-12.857286,3.497954,-91.83844,-42.891045
-2.9437146,-0.47462627,-12.997974,5.6644177,-107.661125,-39.34783
-3.07105,-0.4864858,-13.092227,6.893124,-124.320984,-35.944828
-3.1142156,-0.35489362,-13.121769,4.286081,-141.84708,-34.23677
-2.9943938,-0.25537694,-13.071978,-4.047041,-162.14763,-35.785328
-2.5187464,-0.4645582,-12.664554,-11.656901,-181.5062,-36.540733
-1.8746872,-0.62156737,-11.960117,-15.506061,-196.74074,-35.85351
-1.1447971,-0.67531353,-11.175118,-17.761457,-208.27148,-37.045307
-0.35797217,-0.826487,-10.278363,-16.373098,-216.62317,-39.44199
0.5546279,-0.9101555,-9.184685,-12.786308,-221.29123,-40.411926
1.7125359,-0.9360349,-7.805121,-9.685198,-222.56255,-39.419285
2.9241128,-0.9254781,-6.3273497,-6.4033575,-219.66574,-36.664597
4.0872746,-0.798783,-4.8238964,-3.2268558,-212.81213,-33.566578
5.1311707,-0.5842397,-3.37475,-0.82376856,-201.80571,-31.04618
5.9872017,-0.3770919,-2.0760036,-0.076412655,-185.04195,-27.93525
6.5852604,-0.18251297,-1.0693878,-0.41669348,-166.11562,-24.482716
6.942073,-0.0094183795,-0.360282,-1.5321804,-146.50748,-21.346594
7.090922,0.09705521,0.082824044,-2.8840537,-126.75671,-18.768694
7.096092,0.1296595,0.29265782,-4.349903,-107.28699,-16.56284
7.016295,0.09721824,0.34929678,-4.401176,-87.650696,-14.754282
6.82965,0.03730525,0.20995572,-2.9727743,-69.36957,-13.366349
6.5607185,0.0015849912,-0.022697464,-1.3933676,-53.323853,-12.385238
6.256854,-0.041650567,-0.29310217,0.7520028,-39.101536,-11.542151
5.9414606,-0.08623675,-0.5907985,3.2245164,-26.493998,-10.727075
5.6309447,-0.12298663,-0.8938332,6.228506,-15.242101,-9.862181
5.335493,-0.12124776,-1.1935185,9.281924,-4.830925,-9.20351
5.0469465,-0.06687705,-1.495207,12.55744,3.955963,-8.791757
4.7583995,0.081714764,-1.7919519,14.956781,10.373319,-9.077434
4.4771953,0.2807964,-2.0609274,15.8368845,14.3754015,-10.379215
4.228254,0.47466946,-2.2637274,15.342751,16.67097,-12.218441
4.0307226,0.66802824,-2.3813853,14.9630785,18.964424,-13.955283
3.8581874,0.8773361,-2.479709,14.724945,21.564468,-15.72672
3.6809273,1.1094006,-2.6011024,13.843914,23.90402,-18.147581
3.4817874,1.3272638,-2.7583728,11.83697,25.395685,-21.75334
3.242838,1.4762596,-2.9521577,9.011646,25.384325,-26.932426
2.961707,1.5154972,-3.191435,5.6976833,24.12718,-32.65084
2.6908553,1.4470732,-3.443593,2.5617046,21.551813,-38.5667
2.4450703,1.2817881,-3.7043326,0.07881524,17.597094,-44.30985
2.2454019,1.036913,-3.9642286,-1.9819942,11.588139,-49.43987
2.1277847,0.74136823,-4.1803865,-4.9162273,2.9621186,-52.960407
2.10656,0.37390995,-4.2910166,-7.260865,-5.654367,-55.160477
2.1587288,-0.075519286,-4.322115,-6.4709377,-12.466044,-55.58656
2.2617688,-0.527547,-4.3242035,-3.9358149,-18.031828,-53.943813
2.3913693,-0.9207048,-4.292932,-0.54701006,-22.879543,-50.21304
2.5030384,-1.2151078,-4.2374325,2.7535617,-27.587643,-44.66158
2.5985527,-1.4110596,-4.1208224,5.828797,-31.867378,-38.622353
2.7210684,-1.5501713,-3.9475155,9.033585,-35.156956,-32.692513
2.8646834,-1.6237282,-3.7250066,12.465216,-37.132725,-27.063553
3.0049627,-1.609035,-3.4573748,16.01354,-37.868904,-21.591356
3.1349568,-1.4923252,-3.1508653,18.37443,-37.29782,-16.199324
3.242807,-1.2962202,-2.8089094,20.559801,-35.823223,-11.1931
3.2982545,-1.0433731,-2.5011244,22.177765,-34.147484,-7.2103686
3.298836,-0.77662265,-2.2130797,23.23319,-32.36426,-4.373669
3.2631335,-0.5209633,-1.9447297,23.812153,-30.335869,-2.147056
3.1998727,-0.2720757,-1.7130482,23.446062,-28.13304,-0.35743934
3.1029174,-0.037551172,-1.5311784,22.414845,-25.855219,1.1767782
2.987358,0.16767271,-1.387781,21.08357,-23.354574,2.4852571
2.8557143,0.339002,-1.2917384,19.421848,-20.54045,3.3892534
2.7105618,0.47017008,-1.2459283,17.421926,-17.47127,3.8093507
2.6233513,0.4550427,-1.2058414,16.861387,-16.909143,3.6867876
2.5391178,0.44043168,-1.167123,16.319984,-16.366205,3.5684083
2.4577441,0.4263167,-1.129719,15.796961,-15.8417015,3.454048
2.3791192,0.4126785,-1.0935785,15.291604,-15.334913,3.3435502
2.3031368,0.39949873,-1.0586526,14.803233,-14.84516,3.2367668
2.229697,0.38675997,-1.0248955,14.331204,-14.371794,3.1335564
2.1587038,0.37444562,-0.9922631,13.874902,-13.9142,3.0337846
2.0900667,0.3625399,-0.96071345,13.433742,-13.471789,2.9373236
2.023698,0.35102773,-0.9302068,13.007163,-13.044003,2.8440511
1.9595157,0.33989474,-0.90070486,12.594636,-12.630307,2.753851
1.8974402,0.32912722,-0.87217146,12.19565,-12.230191,2.6666117
1.8373959,0.31871203,-0.84457165,11.80972,-11.843168,2.582227
1.7793106,0.3086366,-0.81787235,11.436381,-11.468772,2.5005953
1.7231148,0.29888898,-0.79204154,11.075188,-11.106555,2.4216194
1.6687424,0.28945762,-0.7670489,10.725713,-10.75609,2.3452058
1.6161298,0.2803315,-0.74286515,10.387548,-10.416969,2.2712655
1.5652158,0.27150005,-0.7194622,10.060304,-10.088798,2.1997125
1.5159423,0.26295313,-0.6968133,9.743602,-9.771198,2.1304648
1.4682529,0.25468102,-0.67489254,9.437082,-9.46381,2.0634434
1.4220937,0.24667431,-0.6536752,9.140398,-9.1662855,1.9985725
1.377413,0.23892406,-0.6331374,8.853216,-8.87829,1.9357795
1.3341609,0.23142162,-0.6132563,8.575216,-8.5995035,1.874994
1.2922895,0.22415866,-0.59400976,8.306091,-8.329616,1.8161491
1.2517526,0.21712719,-0.5753767,8.045544,-8.068331,1.7591796
1.2125059,0.2103195,-0.5573367,7.793288,-7.8153605,1.7040234
1.1745067,0.20372821,-0.53987,7.549051,-7.5704317,1.6506202
1.1377136,0.19734614,-0.52295786,7.3125663,-7.333277,1.5989122
1.1020871,0.19116642,-0.5065819,7.0835795,-7.103642,1.5488436
1.0675889,0.18518241,-0.49072456,6.861845,-6.8812795,1.5003608
1.0341821,0.17938772,-0.47536892,6.6471257,-6.665952,1.4534118
1.0018312,0.17377618,-0.4604986,6.439193,-6.45743,1.4079467
0.9705018,0.16834183,-0.44609782,6.2378254,-6.255492,1.3639172
0.9401608,0.16307892,-0.43215138,6.042811,-6.0599256,1.3212768
0.91077626,0.15798192,-0.41864455,5.853944,-5.8705235,1.2799805
0.88231725,0.15304546,-0.40556318,5.6710258,-5.6870875,1.239985
0.85475403,0.14826438,-0.39289355,5.4938655,-5.509425,1.2012484
0.82805777,0.1436337,-0.38062245,5.3222775,-5.3373513,1.1637303
0.80220073,0.13914856,-0.36873707,5.156083,-5.1706862,1.1273915
0.777156,0.13480434,-0.3572251,4.99511,-5.0092573,1.0921942
0.75289756,0.13059652,-0.34607455,4.839191,-4.8528967,1.0581021
0.72940046,0.12652074,-0.33527392,4.688165,-4.701443,1.0250798
0.7066403,0.122572795,-0.32481205,4.541876,-4.5547395,0.9930934
0.68459374,0.11874863,-0.3146782,4.400173,-4.412636,0.9621097
0.663238,0.115044296,-0.3048619,4.262911,-4.274985,0.9320969
0.64255124,0.111456,-0.29535308,4.1299486,-4.1416454,0.9030243
0.6225122,0.107980065,-0.28614202,4.001149,-4.0124817,0.874862
0.6031005,0.104612924,-0.27721927,3.8763816,-3.8873603,0.8475812
0.58429605,0.10135114,-0.2685757,3.755518,-3.7661545,0.82115406
0.5660799,0.098191395,-0.26020253,3.638435,-3.6487398,0.7955535
0.54843336,0.09513045,-0.25209117,3.525013,-3.5349967,0.77075356
0.53133845,0.092165194,-0.24423338,3.415137,-3.4248095,0.74672884
0.5147779,0.089292616,-0.23662119,3.308695,-3.3180661,0.723455
0.4987347,0.086509794,-0.22924684,3.2055788,-3.2146578,0.7009084
0.48319274,0.083813906,-0.22210287,3.105684,-3.11448,0.6790661
0.46813616,0.08120222,-0.21518199,3.008909,-3.0174308,0.657906
0.4535497,0.078672074,-0.20847724,2.9151556,-2.923412,0.6374066
0.43941864,0.076220915,-0.2019818,2.8243294,-2.8323286,0.6175472
0.42572865,0.07384627,-0.1956891,2.7363381,-2.744088,0.59830767
0.41246593,0.071545735,-0.1895928,2.6510928,-2.6586013,0.5796685
0.39961702,0.06931698,-0.1836867,2.5685074,-2.575782,0.56161106
0.38716897,0.06715777,-0.17796488,2.4884987,-2.4955468,0.5441169
0.37510926,0.065065905,-0.17242154,2.4109857,-2.4178143,0.5271685
0.36342567,0.06303929,-0.1670511,2.3358903,-2.3425062,0.5107487
0.35210645,0.06107587,-0.16184814,2.2631369,-2.2695467,0.49484095
0.34114018,0.059173677,-0.15680742,2.1926522,-2.1988623,0.47942927
0.33051583,0.057330795,-0.15192388,2.1243649,-2.1303818,0.4644981
0.3202227,0.055545364,-0.14719257,2.0582068,-2.0640361,0.4500324
0.31025046,0.053815592,-0.14260876,1.9941108,-1.9997587,0.4360177
0.30058905,0.052139737,-0.13816781,1.9320128,-1.9374847,0.42243978
0.29122874,0.050516114,-0.1338653,1.8718503,-1.8771517,0.40928507
0.28216016,0.048943087,-0.12969686,1.8135626,-1.8186991,0.3965403
0.27337417,0.047419086,-0.12565832,1.7570914,-1.7620679,0.38419273
0.26486197,0.04594257,-0.12174562,1.7023798,-1.7072014,0.3722299
0.25661498,0.04451206,-0.117954835,1.6493729,-1.6540444,0.3606398
0.24862494,0.043126117,-0.11428216,1.5980176,-1.6025436,0.34941083
0.24088383,0.041783355,-0.110723905,1.5482621,-1.5526472,0.33853167
0.23338386,0.040482424,-0.1072765,1.5000567,-1.5043054,0.32799143
0.22611755,0.03922202,-0.103936486,1.453353,-1.4574693,0.31777954
0.21907757,0.038000874,-0.10070051,1.4081042,-1.4120922,0.30788574
0.21225688,0.036817767,-0.09756533,1.3642646,-1.3681285,0.29830012
0.20564862,0.03567151,-0.0945278,1.3217906,-1.3255342,0.28901306
0.19924618,0.034560952,-0.091584876,1.2806395,-1.2842666,0.28001526
0.19304316,0.033484984,-0.08873361,1.24077,-1.2442842,0.2712977
0.18703331,0.032442525,-0.08597115,1.2021421,-1.205547,0.2628516
0.18121062,0.03143253,-0.08329471,1.1647173,-1.1680161,0.25466856
0.17556927,0.03045399,-0.08070162,1.1284579,-1.131654,0.24674034
0.17010358,0.02950592,-0.07818928,1.0933276,-1.0964242,0.23905902
0.1648081,0.028587373,-0.07575518,1.0592914,-1.0622915,0.23161688
0.15967752,0.027697429,-0.07339687,1.0263149,-1.0292217,0.2244065
0.15470669,0.026835196,-0.07111199,0.9943653,-0.99718153,0.21742062
0.14989063,0.02599981,-0.06889826,0.96341044,-0.9661391,0.21065228
0.14522454,0.025190437,-0.066753455,0.93341947,-0.9360632,0.20409468
0.14070372,0.024406264,-0.064675435,0.9043623,-0.9069237,0.19774126
0.13632368,0.023646506,-0.06266212,0.8762099,-0.87869155,0.19158565
0.13208,0.022910403,-0.06071148,0.848934,-0.8513384,0.1856217
0.12796845,0.02219722,-0.058821574,0.8225073,-0.82483685,0.17984343
0.1239849,0.02150624,-0.05699051,0.7969034,-0.7991604,0.17424506
0.12012538,0.020836774,-0.055216458,0.7720966,-0.77428335,0.16882099
0.11638602,0.020188149,-0.053497635,0.74806213,-0.75018084,0.1635658
0.11276308,0.019559719,-0.051832322,0.72477597,-0.7268287,0.1584742
0.10925292,0.018950852,-0.050218854,0.7022147,-0.70420355,0.15354113
0.105852045,0.01836094,-0.048655618,0.68035585,-0.68228275,0.14876163
0.10255705,0.017789396,-0.04714105,0.6591775,-0.6610444,0.14413092
0.09936462,0.017235642,-0.04567363,0.6386584,-0.6404673,0.13964438
0.09627158,0.016699128,-0.044251896,0.61877817,-0.6205307,0.1352975
0.09327483,0.016179318,-0.04287442,0.5995168,-0.60121477,0.13108595
0.09037138,0.015675686,-0.041539825,0.580855,-0.58250016,0.12700552
0.08755831,0.015187736,-0.040246777,0.56277424,-0.5643681,0.1230521
0.0848328,0.014714974,-0.03899398,0.54525626,-0.5468006,0.11922175
0.082192145,0.01425693,-0.037780184,0.52828366,-0.5297799,0.11551064
0.07963369,0.0138131445,-0.036604173,0.5118394,-0.5132891,0.11191506
0.07715488,0.013383173,-0.03546477,0.49590704,-0.4973116,0.10843141
0.07475324,0.012966587,-0.03436084,0.48047066,-0.48183146,0.1050562
0.07242636,0.01256297,-0.03329127,0.46551478,-0.46683323,0.101786055
0.0701719,0.012171916,-0.032254998,0.45102447,-0.4523019,0.09861771
0.06798763,0.011793035,-0.03125098,0.43698522,-0.4382229,0.095548
