ax,ay,az,gx,gy,gz
-0.94819045,-3.5409412,-2.3709307,51.436832,19.364721,40.616734
-0.6469726,-3.4837933,-2.1646535,57.34796,13.918837,41.184807
-0.26015183,-3.6383333,-1.8671297,60.512093,12.6359215,48.13229
0.16070965,-3.711694,-1.5870379,62.687187,15.68355,58.762012
0.1923362,-3.4447968,-1.5562505,59.67564,19.164347,67.002174
-0.09997461,-3.0964742,-1.7246777,57.900654,20.952242,71.29744
-0.46407548,-2.748152,-1.9572264,58.14762,19.390486,73.29113
-0.7551077,-2.3607056,-2.1340096,56.922806,14.468729,73.68382
-0.9413842,-1.9494872,-2.2087712,54.633514,8.992525,73.32543
-1.0584962,-1.633435,-2.2303913,52.493874,4.0784397,72.894165
-1.1275669,-1.4212865,-2.2303548,51.22394,0.1796786,72.983604
-1.1805023,-1.2332757,-2.2199857,50.42858,-3.1590736,73.421295
-1.2857205,-1.0611362,-2.2441971,51.51375,-7.5982027,73.42648
-1.4108131,-0.89025986,-2.279767,52.975437,-12.869964,73.15145
-1.4740983,-0.6541201,-2.2573023,54.01554,-18.121758,72.109375
-1.4926227,-0.40069973,-2.195936,53.69299,-22.805553,70.59269
-1.4977968,-0.21639574,-2.141832,52.720062,-26.714834,69.39903
-1.522742,-0.0877644,-2.137596,51.850807,-30.274174,68.48434
-1.5874606,0.036576044,-2.180484,51.668148,-34.01774,67.1583
-1.6470704,0.21740304,-2.1957984,51.608448,-38.095676,65.127884
-1.6817256,0.42506668,-2.1754973,51.29832,-42.43747,62.78924
-1.6778997,0.64167064,-2.117246,50.50816,-46.541466,60.50956
-1.6431407,0.8808161,-2.0282133,49.129795,-50.00158,57.849926
-1.6064327,1.1534272,-1.9212189,47.36586,-52.88949,54.634655
-1.5690743,1.4395533,-1.8125118,45.32977,-55.4445,50.955616
-1.5145675,1.7083524,-1.713173,43.03496,-57.98975,46.95617
-1.4271894,1.9319863,-1.6093327,40.32771,-60.49309,42.797184
-1.2993116,2.1129227,-1.4848368,37.014336,-62.517742,38.43787
-1.1036589,2.2891865,-1.2962239,33.22302,-63.565716,33.980717
-0.88362056,2.4438148,-1.097517,29.229488,-63.52846,28.98662
-0.646453,2.5276878,-0.91593266,25.210606,-63.05867,23.817558
-0.38553613,2.5171213,-0.75053424,21.055655,-62.55166,19.046251
-0.109292045,2.415624,-0.5908304,16.834768,-61.804565,15.025484
0.207057,2.214283,-0.40744954,13.066508,-60.343235,11.585827
0.52515364,1.9710861,-0.21655725,9.840334,-57.86232,8.791643
0.80898005,1.7115386,-0.04054381,6.8726287,-54.464863,6.626387
1.0359149,1.4442654,0.0997977,3.907143,-50.428806,5.099181
1.190524,1.178544,0.18904841,1.5257882,-46.238125,4.094292
1.2662594,0.9321547,0.22200918,-0.3597955,-42.03942,3.4129686
1.2969286,0.71889764,0.21685308,-1.7370517,-37.748196,3.0248246
1.2761492,0.5372938,0.16602567,-2.8630457,-33.555138,2.9396029
1.207379,0.3736754,0.07236545,-3.6908402,-29.676039,3.151615
1.1023215,0.219997,-0.052569527,-4.0370927,-26.372238,3.5951674
0.9714569,0.066747084,-0.19736983,-4.0281663,-23.579975,4.1206555
0.8351123,-0.09001324,-0.33851564,-3.7141318,-21.361792,4.775395
0.7041707,-0.24468459,-0.46276337,-3.131163,-19.631115,5.6529555
0.5832554,-0.3876951,-0.5647317,-2.3194456,-18.197214,6.7639914
0.46495342,-0.5114522,-0.6571393,-1.1513487,-17.238136,8.252758
0.34289712,-0.608708,-0.7455072,0.20098278,-16.658731,9.9649515
0.21721654,-0.6855795,-0.83835447,1.6510121,-16.594728,11.886831
0.09434072,-0.7471797,-0.938209,3.235992,-17.136364,14.0879135
-0.027030112,-0.78956217,-1.0448278,4.895186,-18.370016,16.579208
-0.13723935,-0.80922025,-1.1453223,6.538211,-20.256151,19.359112
-0.23166418,-0.7526996,-1.2192878,7.983468,-22.467283,21.9371
-0.31813848,-0.6462704,-1.2763903,9.342613,-24.905537,24.063362
-0.4086897,-0.5095037,-1.3329748,11.060613,-27.443392,25.345915
-0.50869805,-0.34579402,-1.3970981,13.414446,-30.3403,25.802996
-0.5917544,-0.15237536,-1.4466474,15.297167,-33.80461,25.919504
-0.6271435,0.09429174,-1.4406477,16.197206,-37.54561,26.119555
-0.6165201,0.39189997,-1.3860998,16.26407,-41.09801,25.704168
-0.5784664,0.7278025,-1.2950813,15.719926,-44.485523,24.389442
-0.52531934,1.0857369,-1.1881667,14.801329,-47.705013,21.979797
-0.4605434,1.4252157,-1.0855833,12.918525,-50.560066,18.357967
-0.3751763,1.7150168,-0.9975065,10.431634,-53.11578,14.221659
-0.27102247,1.9702227,-0.9126144,7.128762,-55.220436,9.92296
-0.11667336,2.146655,-0.8316798,3.2350607,-56.780956,5.8376255
0.117715314,2.2200239,-0.7239126,-0.7983436,-56.970104,2.319375
0.37755352,2.2564607,-0.6188577,-5.9705377,-55.733368,-1.0156115
0.57088333,2.2216983,-0.5648565,-11.567282,-54.21072,-4.5133486
0.73669887,2.0869222,-0.5436563,-16.400686,-53.104893,-7.9368405
0.94831556,1.8452607,-0.49953732,-21.016699,-51.85713,-10.690476
1.1904927,1.4994751,-0.44212916,-25.046772,-50.097683,-12.291211
1.417234,1.1005636,-0.38357028,-27.935808,-47.29554,-12.548255
1.5764061,0.7364847,-0.33210984,-29.734713,-43.69719,-12.316756
1.6713985,0.4469549,-0.29535872,-30.938967,-39.42809,-11.878232
1.6995182,0.22446114,-0.28405014,-32.522953,-34.70186,-11.251245
1.6644115,0.046276323,-0.30608273,-34.421844,-29.747776,-10.417035
1.6118447,0.044814784,-0.29641575,-33.334705,-28.808256,-10.088036
1.5609833,0.043400664,-0.28706244,-32.282837,-27.89922,-9.769711
1.5117681,0.042032313,-0.27801183,-31.265013,-27.019604,-9.461688
1.464142,0.040708147,-0.26925346,-30.280052,-26.168388,-9.16361
1.4180503,0.03942664,-0.26077726,-29.326826,-25.344599,-8.875137
1.3734405,0.038186334,-0.25257358,-28.404245,-24.547295,-8.595938
1.3302621,0.036985826,-0.24463315,-27.51127,-23.775574,-8.325698
1.2884666,0.03582377,-0.23694703,-26.646894,-23.028568,-8.064113
1.2480075,0.03469887,-0.22950666,-25.810156,-22.30545,-7.8108916
1.2088399,0.033609875,-0.22230381,-25.000128,-21.605413,-7.565754
1.1709207,0.03255559,-0.21533051,-24.215918,-20.927689,-7.3284297
1.1342083,0.031534865,-0.20857917,-23.456665,-20.271534,-7.098658
1.0986629,0.030546578,-0.20204242,-22.721546,-19.636236,-6.87619
1.0642457,0.029589664,-0.19571315,-22.009762,-19.021103,-6.660784
1.0309198,0.02866309,-0.18958457,-21.320545,-18.425474,-6.452207
0.9986493,0.02776586,-0.18365008,-20.653156,-17.84871,-6.2502365
0.9673998,0.026897017,-0.17790334,-20.006882,-17.29019,-6.054655
0.9371379,0.026055634,-0.17233823,-19.381035,-16.749325,-5.865256
0.9078316,0.025240818,-0.16694884,-18.774948,-16.225538,-5.6818366
0.8794499,0.024451708,-0.16172948,-18.187983,-15.718275,-5.5042043
0.85196286,0.023687474,-0.15667465,-17.61952,-15.227003,-5.332171
0.8253416,0.022947313,-0.15177906,-17.068964,-14.751205,-5.165557
0.7995583,0.02223045,-0.14703754,-16.535736,-14.290384,-5.004187
0.77458596,0.021536134,-0.14244516,-16.019281,-13.844057,-4.847893
0.7503986,0.020863643,-0.13799715,-15.519061,-13.411761,-4.696512
0.7269711,0.02021228,-0.13368887,-15.034555,-12.993045,-4.5498867
0.7042792,0.019581366,-0.12951587,-14.565262,-12.587476,-4.407865
0.6822994,0.018970253,-0.12547381,-14.110696,-12.194634,-4.2703004
0.661009,0.018378306,-0.12155854,-13.670386,-11.814114,-4.13705
0.64038604,0.017804919,-0.117766015,-13.243882,-11.445523,-4.0079775
0.62040937,0.017249499,-0.114092335,-12.830743,-11.088484,-3.88295
0.6010585,0.016711477,-0.11053373,-12.430545,-10.742627,-3.7618387
0.5823135,0.016190303,-0.107086554,-12.042878,-10.407601,-3.6445196
0.5641552,0.015685441,-0.10374728,-11.667345,-10.083061,-3.5308726
0.5465652,0.0151963765,-0.10051249,-11.303563,-9.768677,-3.4207816
0.5295253,0.014722611,-0.09737889,-10.95116,-9.464126,-3.3141344
0.51301825,0.014263659,-0.09434327,-10.609777,-9.169098,-3.210822
0.49702728,0.013819056,-0.09140255,-10.279066,-8.883294,-3.1107397
0.4815361,0.013388347,-0.08855375,-9.958692,-8.606421,-3.013785
0.46652892,0.012971097,-0.08579395,-9.648327,-8.338201,-2.91986
0.45199054,0.01256688,-0.08312037,-9.347657,-8.078359,-2.8288686
0.43790624,0.012175289,-0.080530286,-9.056378,-7.8266325,-2.7407193
0.42426172,0.011795924,-0.07802108,-8.774195,-7.582766,-2.6553226
0.41104317,0.011428404,-0.07559021,-8.500821,-7.346513,-2.5725918
0.39823723,0.011072354,-0.073235214,-8.23598,-7.117634,-2.4924433
0.3858309,0.010727417,-0.07095371,-7.979404,-6.895898,-2.414796
0.37381175,0.010393242,-0.06874341,-7.7308345,-6.681081,-2.3395717
0.36216754,0.010069494,-0.06660205,-7.4900193,-6.4729657,-2.2666943
0.35088655,0.009755844,-0.0645275,-7.2567167,-6.2713428,-2.1960902
0.33995745,0.009451977,-0.06251765,-7.0306907,-6.076008,-2.1276882
0.32936916,0.009157587,-0.060570482,-6.811713,-5.886765,-2.0614195
0.31911105,0.008872377,-0.05868403,-6.5995646,-5.7034235,-1.997217
0.30917278,0.008596058,-0.056856398,-6.39403,-5.5257983,-1.9350164
0.29954433,0.008328355,-0.05508574,-6.1949034,-5.3537107,-1.874755
0.29021603,0.0080689965,-0.053370282,-6.001984,-5.1869874,-1.8163722
0.2811785,0.007817722,-0.051708292,-5.815078,-5.0254607,-1.759809
0.27242264,0.0075742793,-0.050098106,-5.6339974,-4.868969,-1.7050089
0.26393965,0.0073384237,-0.048538096,-5.45856,-4.717354,-1.6519165
0.25572103,0.0071099177,-0.047026705,-5.28859,-4.570463,-1.6004786
0.2477585,0.006888532,-0.045562405,-5.1239157,-4.42815,-1.5506436
0.24004406,0.0066740443,-0.044143733,-4.964373,-4.2902713,-1.5023613
0.23256998,0.006466239,-0.04276926,-4.8098006,-4.156688,-1.4555833
0.22532874,0.0062649082,-0.04143761,-4.660044,-4.0272665,-1.4102627
0.2183131,0.0060698492,-0.040147442,-4.514953,-3.9018772,-1.366354
0.21151601,0.0058808667,-0.038897466,-4.3743815,-3.7803936,-1.3238131
0.20493063,0.005697771,-0.037686426,-4.2381887,-3.6626942,-1.2825972
0.19855039,0.0055203782,-0.03651311,-4.1062384,-3.548661,-1.2426653
0.19236887,0.005348511,-0.035376336,-3.9783978,-3.4381795,-1.203977
0.18637986,0.0051819966,-0.03427497,-3.8545387,-3.331139,-1.1664938
0.1805774,0.005020668,-0.033207905,-3.7345374,-3.2274325,-1.1301779
0.17495564,0.004864364,-0.032174073,-3.6182733,-3.1269555,-1.094993
0.16950895,0.004712927,-0.031172434,-3.5056298,-3.0296078,-1.0609039
0.16423188,0.004566207,-0.03020199,-3.3964944,-2.9352915,-1.0278764
0.15911914,0.004424055,-0.029261766,-3.2907574,-2.8439124,-0.9958773
0.15416561,0.00428633,-0.028350819,-3.188313,-2.7553787,-0.96487474
0.14936633,0.004152894,-0.02746824,-3.0890586,-2.669602,-0.9348376
0.1447165,0.0040236125,-0.02661314,-2.992895,-2.586496,-0.9057357
0.14021145,0.0038983568,-0.02578467,-2.8997254,-2.5059779,-0.87753993
0.13584666,0.0037770008,-0.024981992,-2.809457,-2.4279668,-0.8502221
0.13161778,0.0036594237,-0.024204308,-2.7219992,-2.3523848,-0.82375485
0.12752058,0.0035455073,-0.023450838,-2.6372645,-2.279156,-0.79811174
0.12355093,0.0034351377,-0.022720827,-2.555168,-2.2082071,-0.773267
0.11970488,0.0033282044,-0.022013543,-2.4756274,-2.1394672,-0.7491957
0.115978576,0.0032246003,-0.021328282,-2.3985634,-2.0728676,-0.72587395
0.112368286,0.003124222,-0.020664355,-2.3238986,-2.0083413,-0.70327824
0.10887039,0.0030269686,-0.020021098,-2.2515583,-1.945824,-0.681386
0.10548139,0.002932743,-0.019397866,-2.1814704,-1.8852531,-0.6601753
0.10219791,0.0028414507,-0.01879404,-2.1135643,-1.8265679,-0.639625
0.099016644,0.0027530007,-0.018209008,-2.0477722,-1.7697096,-0.6197145
0.09593442,0.0026673044,-0.017642193,-1.9840285,-1.7146214,-0.6004238
0.09294815,0.0025842758,-0.017093021,-1.9222691,-1.6612482,-0.58173364
0.09005485,0.002503832,-0.016560948,-1.8624324,-1.6095366,-0.56362534
0.08725161,0.0024258927,-0.016045436,-1.8044585,-1.5594349,-0.54608077
0.08453564,0.0023503795,-0.0155459745,-1.7482892,-1.5108927,-0.52908236
0.081904225,0.002277217,-0.015062061,-1.6938686,-1.4638618,-0.5126131
0.079354726,0.0022063323,-0.014593212,-1.6411422,-1.418295,-0.4966566
0.07688459,0.002137654,-0.0141389575,-1.5900571,-1.3741466,-0.4811968
0.074491344,0.0020711138,-0.013698844,-1.5405623,-1.3313726,-0.46621823
0.072172605,0.0020066448,-0.013272432,-1.4926082,-1.2899301,-0.45170596
0.069926046,0.0019441828,-0.012859292,-1.4461468,-1.2497777,-0.43764544
0.06774942,0.0018836651,-0.012459015,-1.4011319,-1.2108752,-0.42402261
0.065640554,0.0018250314,-0.012071196,-1.3575182,-1.1731837,-0.41082385
0.06359733,0.0017682228,-0.011695451,-1.3152621,-1.1366655,-0.39803594
