ax,ay,az,gx,gy,gz
-0.7827344,-2.400931,-0.8609169,7.0464277,0.61000556,22.972027
-0.79715496,-2.515316,-0.79710996,12.064374,14.07496,26.160055
-0.70823425,-2.667425,-0.75603235,15.562201,22.781385,26.917215
-0.5899348,-2.943464,-0.76997846,21.180733,26.916582,28.993866
-0.42341986,-3.096286,-0.73032385,24.853474,29.36131,32.220863
-0.33199996,-3.1127877,-0.76154786,27.457378,30.178944,35.47425
-0.3091636,-3.1118188,-0.8830733,28.965666,30.244747,39.087643
-0.3616713,-3.106815,-1.109388,30.633291,29.504358,42.63573
-0.42702731,-3.0496113,-1.329473,32.994526,28.197823,45.740383
-0.48539636,-2.923739,-1.5201265,35.179493,26.606113,48.753372
-0.54505557,-2.6992497,-1.693047,36.321606,24.847399,52.23316
-0.62629324,-2.3669355,-1.8720692,36.42106,22.706717,55.478706
-0.7445152,-1.9919221,-2.0841038,35.986954,20.069263,57.758984
-0.8546086,-1.6498203,-2.2937,35.649654,16.958895,59.159622
-0.96668786,-1.3762432,-2.5070786,35.550068,13.675896,60.068855
-1.0863906,-1.1570668,-2.7234907,36.034145,10.147799,60.648006
-1.1983329,-0.9316658,-2.9017425,37.50732,6.2156067,61.05296
-1.2649823,-0.5912406,-3.0101643,39.09384,2.2988093,60.90379
-1.3001812,-0.2353566,-3.078808,40.12365,-1.6030878,60.35841
-1.3050803,0.13145812,-3.0976744,40.41175,-5.2624955,59.60622
-1.3079777,0.49360657,-3.0896318,40.253998,-8.728422,58.358
-1.3125974,0.85984606,-3.0579433,40.052803,-12.117523,56.11507
-1.2911161,1.2397473,-2.9899251,40.10732,-15.464197,53.007797
-1.2235082,1.611255,-2.8631074,40.10399,-18.640224,48.877296
-1.1081538,1.9425926,-2.685037,39.724926,-21.505087,44.25061
-0.9456981,2.1992064,-2.467714,38.556362,-23.915276,39.571926
-0.7505641,2.36994,-2.220843,36.276127,-25.55371,35.467842
-0.5337422,2.4844356,-1.9494027,33.286064,-26.696012,32.00037
-0.33393678,2.5818703,-1.6886334,30.04167,-27.428312,28.863882
-0.15988928,2.6665797,-1.4552174,26.540464,-27.927069,25.731785
0.00112733,2.7164607,-1.239768,23.098036,-28.148098,22.370892
0.15838549,2.7200224,-1.0290893,19.83119,-27.951443,18.969734
0.3083275,2.707295,-0.82089823,16.462963,-27.367764,15.758127
0.4364573,2.6822617,-0.64090353,13.082116,-26.544302,12.469993
0.54622656,2.624193,-0.48778018,9.924074,-25.55376,8.939876
0.6455534,2.5194485,-0.34753892,7.1448984,-24.343355,5.2233596
0.7405801,2.36731,-0.2236125,4.670034,-23.007116,1.7615793
0.83862126,2.154916,-0.1038513,2.4403367,-21.319302,-1.2307414
0.92399794,1.9016396,0.00024133566,0.4578405,-19.207506,-3.567028
0.9833076,1.6195115,0.07230359,-1.2796115,-17.045576,-5.2644453
1.0074818,1.3117449,0.10657935,-2.6276705,-15.056127,-6.2693534
1.0048101,0.98611677,0.10619986,-3.2515516,-13.491427,-6.4079103
1.001581,0.6445952,0.102067806,-3.313904,-11.917779,-5.8566637
0.9947885,0.32128543,0.08986184,-2.906393,-10.192886,-4.5974154
0.9805855,0.03972794,0.06176093,-2.0783272,-8.330036,-2.7702124
0.9626342,-0.1919402,0.019026857,-0.9074526,-6.25894,-0.51479733
0.92595637,-0.37674072,-0.060257234,0.75022656,-4.4650097,2.1005044
0.8603804,-0.5149699,-0.18553843,2.48713,-3.0998182,4.9110236
0.7813026,-0.6313692,-0.33550125,4.16699,-2.3011637,7.840037
0.6954461,-0.72808623,-0.49561533,5.815699,-1.9189523,10.864523
0.61340624,-0.7853523,-0.65644,7.5134063,-1.9406743,13.898814
0.54767865,-0.81648576,-0.8028889,9.426448,-2.0721803,17.049902
0.49213326,-0.7979954,-0.9452071,11.4298935,-2.3189864,20.240257
0.4305596,-0.73995215,-1.0980755,13.624004,-2.854982,23.308664
0.3649483,-0.64219403,-1.2509571,15.659665,-3.8017046,26.196247
0.29337,-0.48661909,-1.3868582,17.153088,-5.029828,28.997662
0.20095573,-0.27157474,-1.5093204,18.034096,-6.696853,31.4922
0.10906208,0.037656005,-1.5925202,18.661234,-8.501692,33.282543
0.029379107,0.37517604,-1.6560128,19.33572,-10.411366,33.804356
-0.033140454,0.6824947,-1.704155,20.196955,-12.491747,33.114777
-0.07682456,0.9435388,-1.7235743,21.004044,-14.720819,31.91424
-0.09542644,1.2056499,-1.6995168,21.138233,-16.88174,30.476915
-0.08368115,1.486183,-1.6323751,20.654325,-18.955704,28.700968
-0.03761492,1.7483844,-1.5365342,19.783665,-20.751375,26.327078
0.03949445,1.9620093,-1.4164426,18.650305,-22.141743,23.402369
0.12565938,2.118894,-1.2930652,17.236177,-23.263193,20.287455
0.21655844,2.2215152,-1.1743252,15.109178,-24.266354,17.344791
0.3236777,2.2557607,-1.0464478,12.6029825,-25.110676,14.804154
0.43224236,2.2582915,-0.9210163,10.251196,-25.885674,12.31385
0.5464853,2.2247372,-0.791555,8.285586,-26.54523,9.603247
0.68404955,2.144159,-0.6303007,6.6692214,-26.636732,6.932423
0.82541126,2.0281954,-0.45627376,4.6834197,-25.867414,4.8004503
0.92440784,1.8776425,-0.31749916,2.482236,-24.755304,3.169222
0.97507614,1.7189816,-0.22896565,0.67296004,-23.794033,1.8627307
0.9943662,1.5699325,-0.16652742,-0.8545689,-23.05379,0.74995077
0.99486095,1.4456019,-0.11508779,-2.1621492,-22.563742,-0.2086029
0.98534983,1.336961,-0.06592698,-3.3730445,-22.110928,-1.0297602
0.9719161,1.2276223,-0.013533288,-4.265038,-21.375965,-1.8030114
0.94926244,1.1223046,0.019521346,-4.893134,-20.514648,-2.583896
0.9187347,1.024021,0.036246456,-5.3565645,-19.588829,-3.256777
0.8801512,0.93628293,0.037813872,-5.9588637,-18.652517,-3.6617942
0.8345314,0.8605638,0.027431214,-7.14892,-17.725246,-3.6541193
0.7811924,0.8092686,0.008039172,-8.926678,-16.791296,-3.4662135
0.7148205,0.7659384,-0.03402628,-10.687663,-15.992853,-3.3419006
0.69236153,0.74187344,-0.03295721,-10.351868,-15.490375,-3.2369015
0.67062074,0.71857786,-0.03192232,-10.02681,-15.003962,-3.1352596
0.6495739,0.69602597,-0.03092047,-9.712127,-14.533076,-3.0368624
0.6291979,0.67419285,-0.029950548,-9.4074745,-14.077199,-2.9416013
0.6094704,0.6530546,-0.029011495,-9.112518,-13.63583,-2.849372
0.59036994,0.6325882,-0.028102292,-8.826937,-13.20849,-2.7600741
0.57187575,0.6127715,-0.027221948,-8.550421,-12.794716,-2.673611
0.55396795,0.5935831,-0.026369516,-8.282672,-12.394061,-2.5898893
0.53662735,0.5750024,-0.025544083,-8.023402,-12.006095,-2.5088189
0.5198353,0.5570095,-0.024744762,-7.772336,-11.630403,-2.4303136
0.503574,0.53958535,-0.023970705,-7.5292044,-11.266584,-2.3542893
0.48782617,0.5227114,-0.023221089,-7.29375,-10.914254,-2.2806656
0.47257516,0.5063697,-0.022495124,-7.065724,-10.573039,-2.2093647
0.4578049,0.49054325,-0.021792043,-6.844886,-10.24258,-2.1403115
0.4434999,0.47521526,-0.021111107,-6.631004,-9.922531,-2.0734332
0.42964512,0.46036974,-0.020451605,-6.4238544,-9.6125555,-2.00866
0.41622618,0.44599116,-0.019812847,-6.2232203,-9.31233,-1.9459242
0.40322903,0.43206456,-0.019194169,-6.028893,-9.021542,-1.8851604
0.3906402,0.4185755,-0.018594926,-5.8406706,-8.739889,-1.8263056
0.37844664,0.40550995,-0.018014498,-5.658358,-8.467079,-1.7692988
0.3666357,0.39285442,-0.017452285,-5.4817667,-8.20283,-1.7140808
0.35519525,0.3805958,-0.016907705,-5.3107142,-7.9468703,-1.6605948
0.34411344,0.36872154,-0.016380198,-5.1450243,-7.6989346,-1.6087856
0.33337894,0.35721937,-0.015869223,-4.9845266,-7.4587684,-1.5586001
0.32298064,0.3460775,-0.015374253,-4.8290567,-7.2261252,-1.5099864
0.31290796,0.3352845,-0.014894782,-4.6784544,-7.0007668,-1.462895
0.30315056,0.32482934,-0.014430318,-4.5325665,-6.782462,-1.4172776
0.2936985,0.31470132,-0.013980388,-4.3912435,-6.570988,-1.3730876
0.28454205,0.30489013,-0.013544532,-4.2543406,-6.3661294,-1.3302798
0.27567196,0.2953857,-0.013122304,-4.121719,-6.1676764,-1.2888107
0.26707917,0.2861784,-0.012713277,-3.9932435,-5.9754276,-1.248638
0.2587549,0.2772589,-0.0123170335,-3.8687832,-5.789187,-1.2097208
0.2506908,0.26861808,-0.011933171,-3.7482119,-5.608766,-1.1720196
0.24287854,0.26024717,-0.0115613,-3.631407,-5.433981,-1.1354961
0.23531029,0.2521377,-0.011201042,-3.51825,-5.2646546,-1.1001134
0.22797836,0.24428146,-0.010852034,-3.4086266,-5.1006155,-1.0658355
0.22087534,0.23667048,-0.010513921,-3.3024254,-4.941698,-1.0326277
0.21399401,0.22929707,-0.010186363,-3.199539,-4.7877407,-1.0004563
0.20732746,0.22215377,-0.009869027,-3.0998638,-4.638588,-0.9692891
0.2008689,0.21523336,-0.009561593,-3.0032985,-4.494089,-0.93909436
0.19461186,0.20852886,-0.009263749,-2.909746,-4.354099,-0.90984166
0.18855,0.20203349,-0.008975198,-2.8191118,-4.218475,-0.8815015
0.1826772,0.19574073,-0.008695645,-2.7313044,-4.0870814,-0.8540452
0.17698754,0.1896442,-0.008424812,-2.6462355,-3.9597857,-0.8274452
0.17147532,0.18373778,-0.008162423,-2.5638192,-3.8364592,-0.80167466
0.16613495,0.17801553,-0.007908216,-2.4839725,-3.7169778,-0.7767076
0.16096108,0.17247166,-0.0076619335,-2.4066153,-3.6012216,-0.7525189
0.15594849,0.16710061,-0.0074233287,-2.3316693,-3.4890738,-0.72908425
0.15109214,0.16189697,-0.007192161,-2.2590594,-3.3804214,-0.70638
0.14638716,0.15685554,-0.006968198,-2.1887128,-3.2751558,-0.68438345
0.1418288,0.1519712,-0.006751215,-2.1205583,-3.1731706,-0.6630724
0.13741249,0.14723907,-0.0065409937,-2.0545278,-3.0743635,-0.6424255
0.1331338,0.1426544,-0.0063373228,-1.9905547,-2.978635,-0.6224219
0.12898843,0.13821259,-0.0061399983,-1.9285749,-2.8858895,-0.6030416
0.1249722,0.13390917,-0.0059488215,-1.8685263,-2.7960336,-0.5842651
0.12108111,0.1297398,-0.0057636006,-1.8103484,-2.7089772,-0.5660736
0.117311224,0.12570034,-0.00558415,-1.7539829,-2.6246328,-0.5484488
0.113658786,0.121786706,-0.0054102894,-1.6993732,-2.5429158,-0.5313731
0.11012012,0.11799498,-0.005241845,-1.6464647,-2.4637442,-0.5148292
0.106691666,0.11432136,-0.005078647,-1.5952042,-2.3870387,-0.49880067
0.10337001,0.11076216,-0.004920532,-1.5455403,-2.3127224,-0.4832714
0.1001518,0.10731381,-0.0047673415,-1.4974232,-2.2407207,-0.46822575
0.09703383,0.10397287,-0.0046189222,-1.4508047,-2.1709616,-0.45364872
0.09401295,0.10073597,-0.0044751256,-1.405638,-2.103375,-0.43952566
0.091086164,0.09759988,-0.0043358067,-1.3618779,-2.037893,-0.42584243
0.08825051,0.09456144,-0.0042008264,-1.3194807,-1.9744503,-0.41258532
0.08550317,0.09161764,-0.0040700496,-1.2784036,-1.9129833,-0.39974105
0.082841374,0.088765495,-0.0039433455,-1.2386057,-1.8534304,-0.38729674
0.08026247,0.08600216,-0.0038205863,-1.2000471,-1.7957318,-0.3752399
0.07776386,0.08332488,-0.0037016498,-1.1626891,-1.7398299,-0.36355853
0.07534306,0.08073096,-0.0035864166,-1.1264944,-1.6856686,-0.3522409
0.07299763,0.078217804,-0.0034747715,-1.0914266,-1.6331937,-0.34127563
0.070725225,0.0757829,-0.0033666026,-1.0574507,-1.5823528,-0.3306518
0.06852358,0.07342381,-0.0032618016,-1.0245327,-1.5330948,-0.32035872
0.06639048,0.071138166,-0.0031602636,-0.99263954,-1.4853704,-0.31038615
0.06432379,0.06892369,-0.0030618869,-0.9617394,-1.439132,-0.30072406
0.06232145,0.06677815,-0.002966573,-0.9318013,-1.394333,-0.2913628
0.06038145,0.06469942,-0.0028742268,-0.9027953,-1.3509289,-0.28229296
0.058501843,0.0626854,-0.0027847555,-0.8746924,-1.308876,-0.2735055
0.056680758,0.06073409,-0.0026980697,-0.8474643,-1.2681324,-0.26499164
0.054916367,0.058843523,-0.0026140825,-0.82108396,-1.2286574,-0.25674284
0.053206906,0.057011813,-0.0025327103,-0.7955249,-1.1904111,-0.24875082
0.05155066,0.05523713,-0.002453871,-0.7707615,-1.1533556,-0.24100761
0.04994598,0.053517696,-0.0023774863,-0.7467691,-1.1174536,-0.23350547
0.048391253,0.051851787,-0.0023034797,-0.7235235,-1.0826694,-0.22623688
0.046884928,0.05023774,-0.0022317767,-0.7010016,-1.048968,-0.21919456
0.045425493,0.04867394,-0.0021623059,-0.67918086,-1.0163157,-0.21237147
0.044011492,0.047158822,-0.0020949978,-0.65803933,-0.9846799,-0.20576079
0.04264151,0.045690868,-0.0020297852,-0.637556,-0.9540289,-0.1993559
0.041314173,0.044268616,-0.0019666024,-0.6177103,-0.9243321,-0.19315039
0.04002816,0.042890634,-0.0019053866,-0.59848243,-0.8955598,-0.18713807
0.038782176,0.04155555,-0.0018460765,-0.57985306,-0.8676831,-0.18131289
0.03757498,0.040262025,-0.0017886125,-0.56180364,-0.8406742,-0.17566906
0.036405362,0.039008766,-0.0017329374,-0.54431605,-0.8145061,-0.17020091
0.035272155,0.037794523,-0.0016789954,-0.52737284,-0.78915256,-0.16490299
0.034174222,0.036618076,-0.0016267325,-0.5109571,-0.76458824,-0.15976998
