ax,ay,az,gx,gy,gz
-3.0582097,-1.9791089,-4.593678,-32.182114,211.68283,82.508934
-5.1078706,-2.5570114,-8.57233,-19.814882,188.20833,85.8004
-6.209908,-2.8950393,-11.041211,-20.176867,140.3842,82.33367
-6.088261,-4.276234,-11.591243,5.382486,106.62958,90.47777
-5.826382,-4.1905565,-12.341557,21.746315,72.75329,97.710724
-5.603404,-3.7060754,-12.896518,42.470066,44.85528,99.06531
-5.2933426,-2.7994611,-13.250835,62.751602,17.476156,94.70009
-4.8566113,-1.540233,-13.265182,77.37738,-9.486565,88.76678
-4.227186,-0.2637305,-12.938004,84.3233,-35.805817,82.46514
-3.5201855,0.9667365,-12.362945,83.39961,-61.61148,74.74833
-2.580793,2.1369927,-11.036575,82.50346,-78.60843,65.128914
-1.6035753,3.1974525,-9.426926,81.40057,-86.71196,56.099895
-0.6917165,4.2572966,-7.857915,75.31534,-89.825386,47.62944
0.13188818,5.1357036,-6.321027,66.26586,-89.29069,38.23905
0.8870603,5.827758,-4.8454075,53.046326,-84.052704,27.889791
1.4487379,6.069479,-3.6505024,35.843433,-76.95156,19.327572
1.8434056,5.8667507,-2.8038177,17.738924,-68.542915,14.563366
2.094408,5.355248,-2.3001976,1.2043326,-58.87165,11.861922
2.1108797,4.467795,-2.204118,-11.198864,-49.049904,10.403655
1.9333186,3.338413,-2.4356804,-14.809862,-40.307304,9.758562
1.5635518,2.0711074,-2.989543,-13.449946,-34.73708,11.126568
1.124081,0.9296317,-3.600468,-8.083234,-32.427616,14.57809
0.6940467,0.06270728,-4.1888723,0.29503247,-33.006218,19.53358
0.3057338,-0.423605,-4.6699414,11.35601,-36.124535,25.224373
0.03277264,-0.42395538,-4.9789762,22.935528,-42.267582,30.038805
-0.011382578,0.19782376,-4.9991913,30.507685,-49.184174,32.007305
0.030284744,0.86225206,-4.9089932,35.27634,-56.71207,31.113007
0.11378773,1.5189246,-4.755955,36.836807,-64.89483,29.217583
0.25457275,2.1595032,-4.4858174,34.91139,-72.508705,26.968458
0.42961165,2.7061534,-4.1159472,30.80794,-76.79253,23.882847
0.63517,3.1396782,-3.6640713,25.79094,-77.770355,19.926155
0.8254659,3.4307404,-3.2651932,20.812672,-76.70697,15.606229
0.950792,3.580108,-2.9613886,15.18722,-75.11247,11.840395
1.0366228,3.5940135,-2.7323163,10.274129,-73.65106,8.988022
1.1446768,3.5406535,-2.508031,5.0586767,-71.62988,6.427463
1.2929455,3.264228,-2.2665672,1.0606343,-68.80398,4.2966537
1.4711665,2.907668,-2.0338626,-1.7058303,-65.003555,3.0399058
1.4161868,2.799004,-1.9578542,-1.6420809,-62.574272,2.9262998
1.3638537,2.695571,-1.8855045,-1.5814002,-60.26193,2.8181627
1.3139833,2.5970054,-1.8165597,-1.5235751,-58.058407,2.7151146
1.2664098,2.5029793,-1.7507899,-1.468413,-55.956367,2.616812
1.2209823,2.4131947,-1.6879873,-1.4157395,-53.949154,2.5229442
1.1775643,2.3273816,-1.6279626,-1.3653959,-52.030724,2.4332285
1.136031,2.2452939,-1.5705436,-1.3172379,-50.19558,2.3474076
1.0962689,2.1667066,-1.5155731,-1.2711333,-48.438686,2.2652462
1.0581737,2.0914137,-1.4629071,-1.2269615,-46.755447,2.186529
1.0216498,2.0192266,-1.4124135,-1.1846118,-45.14164,2.111059
0.9866094,1.9499714,-1.3639708,-1.1439822,-43.593376,2.038654
0.9529716,1.8834884,-1.317467,-1.1049788,-42.10709,1.9691474
0.9206615,1.8196297,-1.2727989,-1.067515,-40.679466,1.9023844
0.8896101,1.7582585,-1.2298709,-1.0315106,-39.30746,1.8382221
0.8597532,1.6992482,-1.1885942,-0.9968913,-37.98823,1.7765281
0.83103126,1.6424811,-1.1488867,-0.963588,-36.71915,1.7171794
0.80338895,1.5878477,-1.1106716,-0.93153644,-35.497772,1.6600614
0.7767746,1.5352461,-1.0738777,-0.90067685,-34.321815,1.6050675
0.75113994,1.4845809,-1.0384382,-0.87095326,-33.189148,1.552098
0.72643995,1.4357629,-1.0042909,-0.8423134,-32.09778,1.5010599
0.7026324,1.3887088,-0.97137743,-0.8147084,-31.045843,1.4518658
0.6796778,1.3433404,-0.93964297,-0.78809226,-30.031591,1.4044341
0.6575388,1.299584,-0.90903616,-0.7624219,-29.053377,1.3586878
0.6361804,1.2573706,-0.8795086,-0.7376567,-28.109657,1.3145545
0.6155697,1.2166349,-0.8510147,-0.7137584,-27.198975,1.2719661
0.59567565,1.1773155,-0.8235114,-0.69069105,-26.319952,1.2308584
0.5764687,1.1393542,-0.7969582,-0.6684205,-25.471294,1.1911708
0.55792123,1.1026963,-0.77131665,-0.64691454,-24.651773,1.1528457
0.54000694,1.0672897,-0.7465504,-0.6261427,-23.860228,1.1158289
0.5227008,1.0330852,-0.72262496,-0.60607606,-23.095554,1.0800688
0.5059792,1.000036,-0.6995076,-0.5866872,-22.35671,1.0455166
0.48981965,0.9680977,-0.67716736,-0.5679501,-21.6427,1.0121257
0.47420081,0.9372281,-0.65557456,-0.54984,-20.952583,0.97985226
0.45910236,0.90738696,-0.63470125,-0.5323332,-20.285458,0.94865394
0.44450492,0.87853605,-0.6145205,-0.5154073,-19.640469,0.91849095
0.43039003,0.8506388,-0.5950069,-0.49904096,-19.0168,0.88932496
0.41674003,0.8236605,-0.576136,-0.48321366,-18.413675,0.8611197
0.4035381,0.7975677,-0.5578846,-0.46790594,-17.830349,0.83384025
0.3907682,0.7723288,-0.5402304,-0.4530991,-17.26611,0.80745345
0.3784149,0.74791324,-0.5231522,-0.43877533,-16.720278,0.7819275
0.36646345,0.724292,-0.5066295,-0.42491755,-16.192204,0.757232
0.3548998,0.7014371,-0.49064296,-0.4115094,-15.681262,0.73333776
0.3437104,0.679322,-0.4751738,-0.3985352,-15.186858,0.7102168
0.3328823,0.6579209,-0.46020412,-0.38597992,-14.708418,0.6878425
0.32240304,0.63720936,-0.44571674,-0.37382913,-14.245392,0.66618896
0.31226072,0.61716366,-0.43169513,-0.36206898,-13.797252,0.6452316
0.3024438,0.59776115,-0.41812342,-0.35068622,-13.363492,0.6249467
0.29294133,0.57898015,-0.40498644,-0.33966804,-12.943625,0.6053116
0.2837427,0.5607996,-0.39226946,-0.3290021,-12.537183,0.5863042
0.2748377,0.5431994,-0.37995845,-0.31867668,-12.143715,0.5679035
0.26621652,0.5261602,-0.36803982,-0.30868036,-11.762788,0.5500894
0.25786972,0.5096633,-0.3565005,-0.29900217,-11.393984,0.5328422
0.24978821,0.4936907,-0.34532797,-0.2896316,-11.036902,0.5161432
0.24196325,0.47822514,-0.3345101,-0.2805585,-10.691156,0.4999743
0.23438638,0.46324995,-0.3240352,-0.27177304,-10.356372,0.48431808
0.22704948,0.448749,-0.31389204,-0.26326585,-10.03219,0.46915767
0.2199447,0.43470687,-0.30406982,-0.25502777,-9.718266,0.45447686
0.21306446,0.4211085,-0.294558,-0.24705009,-9.414262,0.44026008
0.20640148,0.40793955,-0.28534654,-0.2393243,-9.119858,0.4264922
0.1999487,0.39518604,-0.2764257,-0.23184226,-8.834742,0.41315868
0.19369934,0.38283458,-0.26778606,-0.22459607,-8.558614,0.4002455
0.18764682,0.37087217,-0.25941855,-0.21757813,-8.2911825,0.38773903
0.18178482,0.35928628,-0.25131443,-0.21078107,-8.032169,0.37562624
0.1761072,0.3480648,-0.24346521,-0.20419782,-7.781304,0.36389443
0.17060804,0.33719608,-0.23586273,-0.19782151,-7.5383234,0.3525314
0.16528165,0.3266688,-0.22849908,-0.19164552,-7.3029766,0.34152535
0.1601225,0.31647205,-0.22136664,-0.18566343,-7.0750194,0.33086488
0.15512525,0.3065953,-0.21445802,-0.17986907,-6.8542156,0.32053894
0.15028474,0.29702833,-0.20776609,-0.17425644,-6.640337,0.31053686
0.14559597,0.2877613,-0.20128396,-0.1688198,-6.433164,0.30084836
0.14105415,0.27878466,-0.19500497,-0.1635535,-6.2324834,0.2914635
0.13665459,0.2700892,-0.18892266,-0.15845218,-6.038089,0.2823726
0.1323928,0.26166603,-0.18303078,-0.1535106,-5.849781,0.27356634
0.1282644,0.2535065,-0.17732334,-0.14872368,-5.6673675,0.26503572
0.12426517,0.2456023,-0.17179449,-0.14408654,-5.4906616,0.25677204
0.12039105,0.23794533,-0.16643858,-0.13959447,-5.3194833,0.24876684
0.11663807,0.2305278,-0.16125014,-0.13524285,-5.153658,0.24101198
0.11300242,0.22334217,-0.15622392,-0.13102728,-4.9930162,0.23349954
0.10948039,0.2163811,-0.15135477,-0.12694345,-4.8373957,0.22622189
0.10606841,0.20963755,-0.14663778,-0.12298724,-4.686637,0.21917164
0.10276302,0.20310465,-0.14206813,-0.11915461,-4.5405884,0.21234164
0.09956086,0.19677578,-0.13764119,-0.11544168,-4.399101,0.20572494
0.09645869,0.19064453,-0.1333525,-0.11184469,-4.262031,0.19931485
0.09345336,0.18470469,-0.12919769,-0.108359985,-4.129241,0.19310488
0.09054185,0.17895027,-0.12517257,-0.10498406,-4.000595,0.18708874
0.08772119,0.17337543,-0.12127306,-0.101713486,-3.8759646,0.18126035
0.08498855,0.16797453,-0.11749523,-0.09854496,-3.7552228,0.17561384
0.082341164,0.16274214,-0.11383526,-0.09547529,-3.6382477,0.17014347
0.07977636,0.15767297,-0.11028947,-0.09250139,-3.524922,0.16484377
0.077291556,0.1527619,-0.10685426,-0.089620225,-3.4151306,0.15970935
0.07488424,0.148004,-0.10352619,-0.086828925,-3.3087633,0.15473506
0.07255199,0.14339444,-0.10030189,-0.08412466,-3.2057128,0.14991587
0.07029246,0.13892862,-0.09717813,-0.08150472,-3.1058753,0.14524695
0.068103366,0.13460203,-0.09415175,-0.078966446,-3.0091503,0.14072359
0.06598252,0.1304103,-0.091219716,-0.0765073,-2.9154403,0.13634123
0.06392778,0.12634923,-0.08837906,-0.07412481,-2.8246515,0.13209546
0.061937075,0.12241474,-0.08562695,-0.07181658,-2.7366922,0.12798204
0.060008414,0.11860286,-0.08296061,-0.06958028,-2.6514742,0.12399679
0.058139853,0.11490977,-0.08037736,-0.067413665,-2.5689118,0.12013574
0.05632952,0.11133175,-0.07787461,-0.06531457,-2.488922,0.116395004
0.054575592,0.10786523,-0.07544983,-0.06328087,-2.4114249,0.112770826
0.052876312,0.1045067,-0.073100604,-0.06131054,-2.336342,0.10925956
0.05122997,0.10125282,-0.07082456,-0.059401594,-2.2635982,0.105857685
0.049634915,0.09810029,-0.06861943,-0.057552118,-2.1931207,0.10256179
0.048089553,0.09504598,-0.06648299,-0.055760253,-2.1248388,0.099368565
0.046592325,0.0920868,-0.06441309,-0.054024205,-2.0586836,0.09627481
0.04514173,0.08921979,-0.06240768,-0.05234223,-1.9945893,0.09327742
0.043736324,0.08644209,-0.060464725,-0.050712645,-1.9324912,0.09037339
0.042374685,0.0837509,-0.058582284,-0.049133815,-1.8723272,0.087559804
0.041055456,0.08114353,-0.05675847,-0.047604155,-1.814037,0.084833845
0.039777312,0.07861736,-0.054991458,-0.046122137,-1.7575622,0.082192786
0.03853897,0.076169856,-0.053279474,-0.044686273,-1.702846,0.07963398
0.037339196,0.073798575,-0.051620804,-0.043295123,-1.6498339,0.07715485
0.036176782,0.071501136,-0.050013784,-0.04194729,-1.5984726,0.07475293
0.035050564,0.06927524,-0.04845681,-0.040641434,-1.5487106,0.0724258
0.03395942,0.06711865,-0.046948317,-0.039376236,-1.5004982,0.07017114
0.032902244,0.06502922,-0.045486797,-0.038150437,-1.4537871,0.06798668
0.03187799,0.063004844,-0.044070784,-0.036962807,-1.4085304,0.06587024
0.03088563,0.061043505,-0.04269886,-0.035812154,-1.3646828,0.0638197
0.029924167,0.059143234,-0.041369654,-0.03469733,-1.3222005,0.061833005
0.02899264,0.05730213,-0.040081833,-0.033617217,-1.2810409,0.05990817
0.028090116,0.055518348,-0.038834106,-0.03257073,-1.2411629,0.05804326
0.027215691,0.0537901,-0.03762523,-0.03155683,-1.2025265,0.056236416
0.02636849,0.052115664,-0.03645399,-0.030574493,-1.1650928,0.054485828
0.025547666,0.050493356,-0.035319217,-0.029622741,-1.1288247,0.05278974
0.024752397,0.04892156,-0.034219768,-0.02870062,-1.0936857,0.05114646
0.023981888,0.047398694,-0.03315455,-0.027807208,-1.0596406,0.049554337
0.023235366,0.04592324,-0.0321225,-0.026941609,-1.0266556,0.04801178
0.022512084,0.04449372,-0.031122575,-0.026102956,-0.9946974,0.046517245
0.02181132,0.0431087,-0.03015378,-0.025290415,-0.9637341,0.04506924
0.021132372,0.041766804,-0.029215146,-0.024503168,-0.9337347,0.043666314
0.02047456,0.04046668,-0.028305732,-0.02374043,-0.9046693,0.042307064
0.019837227,0.03920703,-0.027424628,-0.023001436,-0.87650865,0.040990125
0.019219734,0.037986595,-0.026570955,-0.022285448,-0.8492247,0.039714184
0.018621463,0.03680415,-0.025743857,-0.021591747,-0.82279015,0.038477965
0.018041817,0.035658516,-0.024942506,-0.020919643,-0.79717845,0.037280228
0.017480215,0.034548547,-0.024166102,-0.02026846,-0.772364,0.036119778
0.016936097,0.03347313,-0.023413867,-0.019637551,-0.7483221,0.03499545
0.016408915,0.03243119,-0.022685047,-0.01902628,-0.72502863,0.033906125
0.015898146,0.031421684,-0.021978917,-0.018434038,-0.7024602,0.03285071
0.015403275,0.030443605,-0.021294767,-0.017860232,-0.6805944,0.031828146
0.01492381,0.029495971,-0.020631913,-0.017304286,-0.65940917,0.030837419
0.01445927,0.028577838,-0.019989695,-0.016765648,-0.6388834,0.029877529
