ax,ay,az,gx,gy,gz
-3.8627625,-5.9900546,-8.935536,39.173992,272.94064,177.94708
-7.692717,-5.9176054,-13.09579,36.85265,229.14827,185.66867
-9.20264,-6.3588543,-14.760162,68.88917,171.62433,171.34865
-8.5992775,-6.016894,-15.582921,95.49041,119.01557,157.76093
-7.664575,-4.850431,-15.670147,100.8794,70.08666,153.97046
-6.862516,-3.6525435,-15.424867,106.194374,30.529337,152.77208
-6.1685023,-2.0220926,-15.147281,108.225044,-6.260517,149.26996
-5.310394,-0.3926997,-14.410971,105.332214,-38.247772,142.31601
-4.240511,1.1862793,-13.152373,100.008965,-61.196377,132.334
-3.237747,2.77207,-11.772091,92.258354,-76.680664,120.332825
-2.2831914,4.2399364,-10.252255,82.770546,-84.42133,106.20528
-1.4100125,5.5339627,-8.875074,68.772156,-87.70701,90.513916
-0.6444223,6.451791,-7.594731,51.59409,-86.71375,73.19782
0.07570967,6.810205,-6.3510165,33.83241,-81.77554,58.13526
0.6779104,6.7905374,-5.3002048,15.458321,-72.97829,45.184196
1.0938257,6.32696,-4.5839067,-0.45489895,-61.57123,33.223362
1.2810847,5.413867,-4.180487,-13.418622,-49.77473,23.551369
1.211498,4.1510363,-4.0940723,-22.342478,-40.460724,18.764362
0.88069063,2.6022704,-4.335981,-25.53285,-34.95913,18.599737
0.49254692,1.1840565,-4.6934047,-20.618423,-32.11341,20.749142
0.087571464,0.10683031,-5.097684,-12.33447,-33.660954,23.979836
-0.22590064,-0.6494186,-5.328319,-2.125719,-37.004097,30.115429
-0.4626232,-1.0261763,-5.539249,10.997222,-42.755497,38.138485
-0.5084083,-0.7499101,-5.6702013,24.55606,-50.913994,46.76893
-0.41788733,0.017501568,-5.7039757,31.736012,-60.772415,52.76047
-0.23606087,0.98967785,-5.571018,32.803696,-71.19818,53.201508
-0.056715067,1.8946476,-5.3727627,32.42593,-81.64559,48.20343
0.21234372,2.5631833,-5.094022,29.798628,-89.62825,42.73068
0.5726876,3.0120735,-4.760706,26.34169,-94.539505,38.659
0.84943384,3.4300187,-4.4592113,22.066711,-97.1285,35.17534
1.0324284,3.8151352,-4.158779,17.34095,-96.99364,30.682718
1.1434515,4.1110206,-3.896506,11.998718,-95.14311,25.135382
1.243445,4.2262793,-3.67181,4.481208,-92.41265,19.87433
1.3852829,4.0891414,-3.4699886,-3.259258,-88.73511,16.036774
1.3314853,3.930339,-3.335231,-3.1326842,-85.28906,15.413983
1.2804772,3.7797713,-3.2074614,-3.0126739,-82.02171,14.823487
1.2320465,3.6368115,-3.0861475,-2.8987274,-78.91946,14.262828
1.1860031,3.5008984,-2.9708135,-2.7903974,-75.97012,13.729805
1.142176,3.3715277,-2.8610315,-2.6872826,-73.16276,13.22244
1.1004115,3.2482452,-2.7564156,-2.58902,-70.4875,12.738952
1.0605705,3.1306405,-2.6566179,-2.495283,-67.93546,12.277729
1.0225266,3.018341,-2.5613222,-2.4057744,-65.49854,11.837315
0.9861657,2.911009,-2.4702418,-2.3202252,-63.169422,11.416381
0.95138323,2.8083365,-2.3831153,-2.23839,-60.941406,11.01372
0.9180839,2.7100422,-2.299704,-2.1600442,-58.808403,10.628229
0.8861806,2.6158686,-2.2197895,-2.0849829,-56.764816,10.2589
0.8555932,2.5255792,-2.1431713,-2.0130177,-54.805523,9.904803
0.8262482,2.4389575,-2.0696652,-1.9439756,-52.92581,9.56509
0.7980778,2.3558025,-1.9991013,-1.8776969,-51.121338,9.238975
0.77101934,2.2759302,-1.9313227,-1.8140345,-49.388096,8.925732
0.74501497,2.1991694,-1.8661845,-1.752852,-47.72237,8.624691
0.72001094,2.1253612,-1.803552,-1.6940231,-46.12072,8.335231
0.6959574,2.054359,-1.7433004,-1.6374307,-44.57996,8.056774
0.672808,1.9860255,-1.6853136,-1.5829653,-43.097107,7.788784
0.65051943,1.9202331,-1.6294831,-1.5305253,-41.669403,7.5307603
0.6290514,1.8568628,-1.5757079,-1.4800159,-40.294254,7.2822347
0.60836613,1.795803,-1.5238934,-1.4313481,-38.969246,7.0427704
0.5884282,1.7369493,-1.473951,-1.3844388,-37.692112,6.811959
0.56920457,1.680204,-1.4257978,-1.3392098,-36.460728,6.5894156
0.55066395,1.625475,-1.3793555,-1.295588,-35.2731,6.3747797
0.53277713,1.572676,-1.3345509,-1.2535043,-34.12735,6.167712
0.51551646,1.521725,-1.2913147,-1.2128938,-33.02171,5.9678936
0.4988559,1.4725457,-1.2495818,-1.1736953,-31.954506,5.775022
0.48277086,1.4250652,-1.2092904,-1.1358508,-30.92417,5.588813
0.46723804,1.3792146,-1.1703824,-1.0993056,-29.929205,5.408997
0.45223546,1.3349293,-1.1328025,-1.0640079,-28.968206,5.2353187
0.4377422,1.2921475,-1.0964984,-1.0299085,-28.039833,5.0675373
0.42373848,1.2508107,-1.0614206,-0.996961,-27.142817,4.9054227
0.41020548,1.2108634,-1.0275218,-0.9651209,-26.275953,4.748758
0.39712533,1.1722528,-0.99475735,-0.9343462,-25.438095,4.5973344
0.38448095,1.1349285,-0.96308446,-0.90459687,-24.62815,4.4509563
0.37225613,1.0988427,-0.93246263,-0.87583464,-23.845083,4.3094354
0.36043543,1.0639498,-0.902853,-0.8480232,-23.087902,4.1725926
0.3490041,1.0302062,-0.87421864,-0.82112783,-22.35566,4.0402575
0.33794796,0.99757034,-0.8465243,-0.7951153,-21.647455,3.912266
0.32725364,0.96600235,-0.8197361,-0.76995397,-20.962423,3.7884629
0.3169082,0.9354642,-0.7938219,-0.7456135,-20.299742,3.6686985
0.30689934,0.90591955,-0.7687507,-0.72206485,-19.658617,3.5528305
0.29721522,0.8773335,-0.744493,-0.6992803,-19.038294,3.440722
0.2878445,0.8496726,-0.72102034,-0.67723316,-18.43805,3.3322418
0.27877638,0.8229049,-0.69830567,-0.6558979,-17.857183,3.2272642
0.2700004,0.7969996,-0.67632276,-0.63525,-17.295034,3.1256688
0.2615066,0.7719271,-0.6550466,-0.61526597,-16.750957,3.0273397
0.2532853,0.74765915,-0.6344532,-0.5959231,-16.224339,2.9321659
0.24532734,0.7241685,-0.6145193,-0.5771998,-15.714586,2.8400402
0.23762383,0.7014289,-0.5952228,-0.55907524,-15.221133,2.7508602
0.23016621,0.67941517,-0.57654226,-0.5415291,-14.743431,2.664527
0.2229463,0.6581031,-0.55845714,-0.52454233,-14.280955,2.5809453
0.21595617,0.63746935,-0.5409476,-0.5080961,-13.833199,2.5000238
0.20918822,0.61749136,-0.52399457,-0.49217266,-13.399673,2.4216745
0.20263511,0.5981476,-0.50757974,-0.47675467,-12.97991,2.345812
0.19628976,0.5794171,-0.4916853,-0.46182552,-12.573456,2.272355
0.19014539,0.5612799,-0.47629428,-0.44736916,-12.179873,2.2012246
0.1841954,0.54371643,-0.46139017,-0.43337017,-11.798744,2.1323442
0.17843346,0.52670807,-0.44695714,-0.41981363,-11.42966,2.065641
0.17285347,0.5102368,-0.43297982,-0.40668517,-11.072229,2.001044
0.1674495,0.49428514,-0.4194435,-0.3939709,-10.726076,1.9384849
0.1622159,0.47883633,-0.40633386,-0.3816574,-10.390835,1.8778979
0.15714715,0.46387416,-0.39363715,-0.36973175,-10.066153,1.8192192
0.15223794,0.44938293,-0.3813401,-0.3581815,-9.75169,1.7623876
0.14748314,0.4353475,-0.36942983,-0.34699455,-9.447119,1.7073436
0.14287782,0.4217533,-0.35789397,-0.33615923,-9.152122,1.6540298
0.13841715,0.4085861,-0.3467205,-0.32566434,-8.866392,1.6023909
0.13409656,0.3958324,-0.33589783,-0.31549895,-8.589634,1.5523734
0.12991156,0.38347888,-0.32541484,-0.30565256,-8.32156,1.5039254
0.1258578,0.37151283,-0.31526062,-0.296115,-8.061895,1.456997
0.12193114,0.35992193,-0.30542475,-0.28687647,-7.810371,1.41154
0.11812754,0.34869426,-0.2958971,-0.27792743,-7.5667286,1.3675073
0.11444307,0.3378183,-0.2866679,-0.2692587,-7.330718,1.3248541
0.11087398,0.3272829,-0.2777277,-0.26086143,-7.1020975,1.2835363
0.1074166,0.31707725,-0.26906735,-0.252727,-6.880633,1.2435119
0.1040674,0.30719092,-0.26067793,-0.2448471,-6.666098,1.2047398
0.10082297,0.29761386,-0.252551,-0.23721369,-6.4582744,1.1671804
0.09767999,0.28833628,-0.24467814,-0.22981897,-6.256949,1.1307957
0.09463527,0.27934873,-0.23705143,-0.22265542,-6.0619173,1.0955484
0.091685705,0.27064207,-0.22966309,-0.21571577,-5.872981,1.0614026
0.0888283,0.26220745,-0.22250558,-0.20899294,-5.6899486,1.0283238
0.08606016,0.2540363,-0.21557169,-0.20248012,-5.512634,0.9962783
0.08337847,0.2461204,-0.20885433,-0.19617072,-5.3408566,0.9652337
0.08078052,0.23845163,-0.20234674,-0.19005832,-5.1744432,0.9351584
0.07826367,0.2310223,-0.1960423,-0.18413675,-5.013225,0.906022
0.075825386,0.22382484,-0.18993466,-0.17840001,-4.8570395,0.87779516
0.073463194,0.21685202,-0.18401761,-0.17284231,-4.705728,0.85044914
0.07117471,0.21009678,-0.1782852,-0.16745803,-4.559138,0.82395643
0.06895763,0.20355228,-0.17273162,-0.16224173,-4.417121,0.79829025
0.0668097,0.19721194,-0.1673513,-0.15718813,-4.2795343,0.77342474
0.06472877,0.19106933,-0.16213877,-0.15229218,-4.146239,0.74933475
0.06271273,0.18511832,-0.15708882,-0.1475489,-4.017101,0.725996
0.06075956,0.17935285,-0.15219633,-0.14295353,-3.891989,0.70338506
0.058867287,0.17376715,-0.1474564,-0.13850144,-3.7707784,0.6814791
0.05703401,0.1683556,-0.14286421,-0.13418815,-3.6533465,0.6602561
0.055257875,0.16311273,-0.13841519,-0.13000931,-3.5395753,0.63969463
0.053537104,0.15803328,-0.13410485,-0.12596072,-3.4293506,0.6197741
0.05186997,0.15311214,-0.12992884,-0.12203833,-3.322561,0.6004744
0.05025479,0.14834438,-0.12588298,-0.118238166,-3.2190998,0.5817762
0.04868994,0.14372519,-0.121963196,-0.11455643,-3.1188624,0.5636607
0.04717385,0.13924994,-0.11816556,-0.11098942,-3.0217485,0.5461097
0.045705,0.13491413,-0.11448625,-0.10753355,-2.9276607,0.5291055
0.04428192,0.1307134,-0.11092157,-0.10418536,-2.8365042,0.5126311
0.04290317,0.12664354,-0.10746795,-0.10094147,-2.7481875,0.49666998
0.041567374,0.122700475,-0.104121916,-0.097798645,-2.6626225,0.4812061
0.04027319,0.11888024,-0.100880116,-0.09475372,-2.5797226,0.46622393
0.039019316,0.115179,-0.0977393,-0.09180364,-2.4994051,0.45170844
0.0378045,0.11159306,-0.09469631,-0.088945456,-2.4215894,0.43764508
0.036627524,0.1081188,-0.09174811,-0.08617629,-2.3461974,0.42401975
0.035487205,0.10475275,-0.08889173,-0.083493374,-2.2731535,0.4108188
0.0343824,0.10149153,-0.08612431,-0.080894016,-2.2023845,0.39802897
0.033312,0.09833189,-0.08344307,-0.078375615,-2.1338196,0.3856375
0.032274935,0.09527064,-0.08084534,-0.07593564,-2.06739,0.3736319
0.03127017,0.09230472,-0.0783285,-0.07357165,-2.003029,0.36200017
0.030296693,0.08943117,-0.07589004,-0.07128128,-1.9406723,0.35073066
0.029353527,0.086647086,-0.073527515,-0.069062226,-1.8802574,0.3398121
0.028439732,0.08394971,-0.071238555,-0.06691227,-1.8217237,0.32923353
0.027554391,0.08133631,-0.06902087,-0.06482926,-1.7650126,0.31898433
0.026696617,0.0788043,-0.06687223,-0.062811114,-1.7100674,0.3090543
0.025865553,0.07635112,-0.0647905,-0.060855806,-1.656833,0.29943344
0.025060363,0.073974326,-0.062773585,-0.058961377,-1.6052562,0.29011214
0.024280244,0.07167154,-0.060819466,-0.05712593,-1.5552852,0.28108105
0.023524413,0.06944044,-0.05892619,-0.055347633,-1.50687,0.27233115
0.022792116,0.06727881,-0.057091862,-0.053624704,-1.4599622,0.2638537
0.022082618,0.06518448,-0.055314645,-0.051955413,-1.414515,0.25564015
0.021395208,0.06315536,-0.053592756,-0.050338097,-1.3704826,0.24768235
0.0207292,0.061189406,-0.05192448,-0.048771128,-1.327821,0.2399723
0.020083928,0.059284657,-0.050308134,-0.04725295,-1.2864877,0.23250227
0.019458745,0.05743921,-0.048742115,-0.04578203,-1.2464412,0.2252648
0.018853024,0.055651218,-0.04722485,-0.044356905,-1.2076414,0.21825266
0.01826616,0.053918887,-0.045754816,-0.04297615,-1.1700495,0.2114588
0.017697565,0.052240483,-0.04433055,-0.041638378,-1.1336279,0.20487647
0.017146673,0.050614335,-0.04295062,-0.04034225,-1.0983402,0.19849904
0.01661293,0.04903881,-0.04161365,-0.039086472,-1.0641509,0.19232014
0.016095802,0.04751233,-0.0403183,-0.03786979,-1.031026,0.1863336
0.015594774,0.046033368,-0.039063275,-0.036690984,-0.99893236,0.18053342
0.0151093425,0.04460045,-0.03784732,-0.035548873,-0.96783775,0.17491381
0.014639022,0.043212138,-0.036669217,-0.034442313,-0.9377111,0.16946913
0.014183343,0.04186704,-0.035527788,-0.033370204,-0.9085223,0.16419394
0.013741849,0.040563818,-0.03442189,-0.032331467,-0.88024217,0.15908298
0.013314098,0.039301164,-0.033350423,-0.03132507,-0.85284233,0.1541311
0.012899663,0.038077816,-0.032312304,-0.030349994,-0.82629544,0.14933339
0.012498129,0.03689255,-0.031306505,-0.029405275,-0.80057496,0.144685
0.012109094,0.03574418,-0.030332012,-0.028489964,-0.7756551,0.14018133
