ax,ay,az,gx,gy,gz
0.81364375,0.10000091,0.49636814,-69.69154,7.6018877,-32.126656
0.64943236,-0.63375866,0.87069577,-86.4472,18.636915,-31.999603
0.47963056,-1.5409634,1.1816797,-74.03368,31.411692,-26.845882
0.5098323,-1.8384136,1.1570325,-65.09902,44.102596,-18.824543
0.4970404,-2.3027947,0.70223147,-52.940907,53.525112,-9.064801
0.26187256,-2.8846912,-0.07594035,-36.826344,54.333675,0.8794548
-0.0015837749,-3.424387,-0.94401604,-20.262794,50.934532,8.0278845
-0.114483856,-3.8798764,-1.751416,-8.405007,44.85589,17.158768
-0.106447265,-4.264047,-2.527216,-0.24135919,36.100674,28.171185
-0.04976167,-4.626702,-3.2558742,7.8973203,25.7639,41.07562
-0.0026798828,-4.7829657,-3.9090927,17.840902,12.6578,53.63461
0.11299624,-4.559746,-4.369573,29.85471,-0.91604567,63.46386
0.27389053,-3.9844117,-4.707509,41.05406,-15.448128,69.10157
0.5270449,-3.172992,-4.839824,50.389458,-29.86754,69.86607
0.8794564,-2.3001916,-4.7144947,57.752453,-42.02535,67.59782
1.2335876,-1.378649,-4.4256597,61.156967,-50.724365,64.01473
1.5585794,-0.32289878,-3.9492643,60.695175,-56.51415,59.222733
1.7964072,0.71735865,-3.410432,56.654045,-60.24296,53.530663
1.9672035,1.7021226,-2.835741,49.825485,-62.054436,46.394287
2.075027,2.5489516,-2.2456481,41.867043,-61.578777,37.510418
2.1137147,3.2209089,-1.701494,32.188744,-58.469906,27.977667
2.0994067,3.5709934,-1.2652955,20.56959,-54.14653,20.216352
2.04513,3.6704633,-0.94401395,7.7864103,-49.283043,14.4051485
1.9899989,3.506236,-0.7510521,-5.1231465,-43.819885,9.4460535
1.9730358,2.9827843,-0.6946164,-15.309075,-37.850906,3.9576714
2.0147078,2.0615907,-0.73653847,-18.703785,-31.18881,-0.90926397
2.0575867,1.0457071,-0.8806911,-17.737919,-24.689241,-2.940516
2.0055947,0.18337166,-1.1211308,-15.047913,-19.407866,-0.77538216
1.8281459,-0.52414113,-1.4293334,-10.87257,-16.298529,4.1258225
1.6364903,-1.0673034,-1.6994264,-4.6307116,-14.533906,10.12364
1.5072969,-1.4553072,-1.8797293,5.2601113,-11.7201805,16.847822
1.4000285,-1.6102794,-2.0551915,17.284588,-8.335166,23.868488
1.2547523,-1.5646046,-2.345814,28.395823,-6.763148,30.715124
1.0859541,-1.3777652,-2.7128723,35.405968,-9.849285,36.943634
1.0021496,-1.0984718,-2.9715583,38.970688,-15.9401045,42.278515
1.0103037,-0.74547344,-3.1158473,38.41537,-23.833502,46.502037
1.069106,-0.38065892,-3.1833282,35.41801,-31.912111,49.978893
1.1323346,-0.061705858,-3.199909,32.668777,-40.178722,52.180378
1.2211586,0.27496698,-3.155568,30.881895,-47.97072,52.90905
1.3159678,0.72666484,-3.0555766,28.1681,-54.55238,51.588146
1.3980833,1.238299,-2.882239,24.593693,-59.45642,45.800163
1.4432061,1.6624634,-2.6841147,21.307522,-63.34013,38.471413
1.4711845,2.0621047,-2.5188994,16.693035,-66.81113,30.624714
1.517347,2.3448288,-2.3502398,11.404833,-69.72887,22.419022
1.5813165,2.4491727,-2.1760316,6.5621796,-71.8514,14.497016
1.666547,2.3930109,-2.020768,2.1579704,-73.384415,7.3821816
1.82292,2.119644,-1.848783,-1.5737216,-74.12318,1.6752717
1.9949263,1.7528409,-1.6660515,-4.408619,-73.69102,-2.0162826
2.1641393,1.3959804,-1.511193,-7.1674814,-72.11085,-3.60606
2.0907652,1.3486503,-1.4599568,-6.9244714,-69.66596,-3.4837983
2.0202494,1.303164,-1.4107164,-6.6909275,-67.31632,-3.3662992
1.9524461,1.2594275,-1.3633703,-6.466368,-65.05707,-3.2533202
1.8872205,1.2173536,-1.3178239,-6.250345,-62.883694,-3.144636
1.8244464,1.1768612,-1.2739896,-6.042442,-60.79201,-3.040037
1.7640069,1.1378745,-1.2317853,-5.84227,-58.778114,-2.9393277
1.7057922,1.1003231,-1.1911347,-5.649467,-56.838356,-2.8423257
1.6497,1.0641408,-1.1519662,-5.4636936,-54.969322,-2.7488606
1.5956347,1.0292659,-1.114213,-5.2846327,-53.16782,-2.6587727
1.543506,0.9956403,-1.0778122,-5.1119866,-51.430855,-2.5719118
1.4932297,0.96320945,-1.0427048,-4.9454746,-49.755608,-2.4881375
1.4447262,0.9319222,-1.0088353,-4.7848344,-48.13943,-2.407317
1.3979206,0.90173024,-0.9761516,-4.6298175,-46.57983,-2.329326
1.3527423,0.8725879,-0.94460416,-4.4801903,-45.074455,-2.2540462
1.3091247,0.8444523,-0.9141464,-4.3357315,-43.62108,-2.1813672
1.2670045,0.8172827,-0.8847344,-4.1962323,-42.2176,-2.1111832
1.2263222,0.7910405,-0.8563264,-4.0614953,-40.862034,-2.043395
1.187021,0.7656892,-0.8288828,-3.9313323,-39.552486,-1.9779083
1.1490473,0.7411942,-0.80236626,-3.805566,-38.28717,-1.9146334
1.11235,0.71752256,-0.77674097,-3.684027,-37.06439,-1.8534855
1.0768806,0.694643,-0.7519731,-3.566555,-35.882523,-1.7943836
1.042593,0.6725257,-0.72803044,-3.4529967,-34.74003,-1.7372508
1.009443,0.65114236,-0.70488226,-3.3432064,-33.63545,-1.6820139
0.97738904,0.63046587,-0.6824993,-3.2370455,-32.567383,-1.6286029
0.94639075,0.61047035,-0.66085356,-3.1343813,-31.534494,-1.576951
0.91641,0.59113127,-0.6399184,-3.0350873,-30.535513,-1.5269948
0.88741034,0.572425,-0.61966825,-2.9390423,-29.56922,-1.4786732
0.8593567,0.554329,-0.6000787,-2.8461306,-28.63445,-1.4319282
0.8322158,0.53682166,-0.5811265,-2.7562418,-27.730093,-1.3867037
0.8059554,0.51988244,-0.5627892,-2.6692693,-26.855078,-1.3429466
0.780545,0.5034914,-0.54504544,-2.5851116,-26.00838,-1.3006058
0.75595504,0.48762962,-0.5278745,-2.5036714,-25.189024,-1.259632
0.7321573,0.47227886,-0.5112569,-2.424855,-24.396065,-1.2199783
0.7091247,0.45742163,-0.49517345,-2.3485725,-23.6286,-1.1815996
0.6868311,0.44304115,-0.47960612,-2.2747376,-22.885761,-1.1444523
0.6652516,0.42912126,-0.46453738,-2.2032678,-22.166714,-1.1084948
0.64436203,0.41564643,-0.44995046,-2.134083,-21.470657,-1.073687
0.6241393,0.40260175,-0.43582916,-2.0671067,-20.79682,-1.0399903
0.60456115,0.38997284,-0.42215797,-2.0022652,-20.14446,-1.0073676
0.5856061,0.37774587,-0.40892187,-1.9394873,-19.512863,-0.97578317
0.56725353,0.3659075,-0.39610648,-1.8787049,-18.90134,-0.94520265
0.54948354,0.35444495,-0.3836979,-1.8198519,-18.309229,-0.9155929
0.5322769,0.34334582,-0.37168273,-1.7628648,-17.735891,-0.8869219
0.5156153,0.33259818,-0.3600481,-1.7076825,-17.180712,-0.85915893
0.49948075,0.32219058,-0.34878156,-1.6542461,-16.643097,-0.8322743
0.48385617,0.31211194,-0.33787107,-1.6024985,-16.122473,-0.80623937
0.46872494,0.30235153,-0.32730514,-1.552385,-15.618289,-0.78102654
0.4540711,0.29289904,-0.3170725,-1.5038524,-15.130012,-0.75660914
0.43987918,0.28374454,-0.30716246,-1.4568498,-14.657125,-0.7329615
0.4261343,0.27487838,-0.2975646,-1.4113276,-14.199135,-0.7100586
0.41282204,0.2662913,-0.28826877,-1.3672384,-13.75556,-0.6878767
0.3999285,0.25797433,-0.2792654,-1.3245358,-13.325937,-0.6663925
0.3874403,0.24991877,-0.270545,-1.2831757,-12.90982,-0.6455836
0.37534437,0.2421163,-0.26209858,-1.243115,-12.506774,-0.6254285
0.36362827,0.2345588,-0.25391734,-1.204312,-12.116384,-0.6059061
0.3522798,0.22723848,-0.24599285,-1.1667266,-11.738244,-0.58699644
0.34128729,0.22014774,-0.23831692,-1.1303202,-11.371965,-0.56867987
0.33063942,0.21327932,-0.23088163,-1.0950551,-11.017169,-0.55093753
0.32032523,0.20662613,-0.22367933,-1.0608952,-10.6734915,-0.5337512
0.3103341,0.20018135,-0.21670265,-1.0278053,-10.34058,-0.5171032
0.3006558,0.19393836,-0.20994443,-0.9957515,-10.018092,-0.5009765
0.29128048,0.18789078,-0.20339774,-0.964701,-9.705698,-0.48535457
0.2821985,0.18203245,-0.1970559,-0.9346221,-9.403079,-0.47022143
0.2734006,0.17635736,-0.19091243,-0.9054841,-9.109926,-0.4555617
0.26487783,0.17085972,-0.18496107,-0.8772572,-8.82594,-0.44136035
0.25662148,0.16553396,-0.17919576,-0.84991276,-8.550832,-0.42760298
0.24862316,0.16037464,-0.17361064,-0.8234229,-8.284323,-0.4142756
0.24087478,0.15537654,-0.16820003,-0.7977608,-8.02614,-0.4013646
0.23336844,0.15053457,-0.16295844,-0.7729003,-7.7760224,-0.38885695
0.22609653,0.14584382,-0.15788056,-0.74881625,-7.5337167,-0.37673992
0.21905169,0.14129953,-0.15296122,-0.72548425,-7.2989774,-0.36500126
0.2122268,0.13689712,-0.14819548,-0.7028806,-7.071566,-0.35362905
0.20561491,0.13263212,-0.14357848,-0.68098253,-6.851253,-0.34261182
0.19920938,0.12850022,-0.13910557,-0.65976787,-6.6378155,-0.33193842
0.19300373,0.124497265,-0.13477224,-0.6392152,-6.4310384,-0.32159805
0.18699168,0.120619185,-0.13057409,-0.61930364,-6.230712,-0.3115803
0.18116717,0.11686208,-0.12650691,-0.60001326,-6.0366344,-0.30187505
0.17552432,0.11322216,-0.12256658,-0.5813246,-5.8486104,-0.2924725
0.17005746,0.10969575,-0.11874913,-0.56321865,-5.66645,-0.2833632
0.16476107,0.106279306,-0.11505072,-0.54567736,-5.48997,-0.27453792
0.1596298,0.10296938,-0.11146762,-0.528683,-5.3189926,-0.2659878
0.15465853,0.09976265,-0.10799623,-0.5122185,-5.1533456,-0.25770426
0.1498422,0.096655875,-0.104633056,-0.49626714,-4.9928617,-0.24967892
0.14517601,0.093645945,-0.10137471,-0.48081303,-4.8373804,-0.24190375
0.14065525,0.090729825,-0.09821791,-0.46584058,-4.686745,-0.2343709
0.13627538,0.08790459,-0.0951595,-0.45133474,-4.5408044,-0.22707282
0.132032,0.085167386,-0.0921964,-0.43728095,-4.3994117,-0.22000216
0.12792084,0.08251548,-0.08932562,-0.42366508,-4.2624245,-0.21315183
0.123937786,0.079946205,-0.0865443,-0.41047347,-4.129706,-0.20651492
0.12007882,0.07745697,-0.08384963,-0.39769283,-4.001122,-0.20008482
0.11634008,0.075045295,-0.08123891,-0.38531038,-3.8765442,-0.19385505
0.112717815,0.07270875,-0.07870953,-0.3733137,-3.7558475,-0.18781933
0.10920838,0.070444986,-0.076258935,-0.3616907,-3.6389105,-0.18197164
0.10580827,0.068251744,-0.07388468,-0.35042977,-3.5256162,-0.17630611
0.10251407,0.066126816,-0.07158437,-0.3395196,-3.4158506,-0.17081705
0.099322475,0.06406807,-0.06935572,-0.32894924,-3.309504,-0.16549896
0.096230276,0.062073447,-0.06719647,-0.3187081,-3.2064698,-0.1603465
0.09323439,0.060140945,-0.065104485,-0.30878592,-3.1066444,-0.15535451
0.09033181,0.05826863,-0.063077636,-0.29917276,-3.0099277,-0.150518
0.08751961,0.05645462,-0.06111392,-0.28985897,-2.9162233,-0.14583209
0.084795,0.054697104,-0.05921135,-0.2808352,-2.8254368,-0.14129212
0.08215523,0.05299432,-0.05736803,-0.2720925,-2.7374775,-0.13689353
0.07959766,0.051344555,-0.05558211,-0.263622,-2.6522574,-0.13263191
0.07711973,0.049746163,-0.053851802,-0.25541526,-2.569691,-0.12850298
0.07471896,0.048197545,-0.052175373,-0.24746408,-2.4896953,-0.12450264
0.07239294,0.046697143,-0.050551143,-0.23976047,-2.4121904,-0.12062684
0.07013935,0.045243464,-0.048977483,-0.23229672,-2.337099,-0.11687173
0.067955926,0.043835044,-0.047452826,-0.22506538,-2.2643456,-0.11323354
0.06584048,0.042470478,-0.045975637,-0.21805918,-2.1938574,-0.10970862
0.06379091,0.041148394,-0.044544443,-0.21127112,-2.1255639,-0.106293455
0.061805144,0.039867476,-0.04315781,-0.2046944,-2.0593967,-0.102984615
0.059881203,0.038626436,-0.041814342,-0.19832246,-1.9952896,-0.099778794
0.058017164,0.037424035,-0.040512707,-0.19214888,-1.9331782,-0.09667279
0.05621116,0.03625907,-0.039251592,-0.18616751,-1.8730006,-0.09366348
0.05446138,0.03513037,-0.03802974,-0.18037236,-1.8146966,-0.090747856
0.052766073,0.03403681,-0.03684593,-0.17475763,-1.7582077,-0.087923005
0.05112355,0.032977298,-0.035698973,-0.16931769,-1.7034774,-0.085186094
0.049532153,0.03195077,-0.034587722,-0.1640471,-1.650451,-0.082534395
0.047990303,0.030956198,-0.03351107,-0.15894061,-1.5990752,-0.07996524
0.046496455,0.029992588,-0.032467928,-0.15399309,-1.549299,-0.07747607
0.04504911,0.029058978,-0.031457264,-0.14919958,-1.5010723,-0.07506439
0.04364682,0.028154429,-0.030478064,-0.14455529,-1.4543469,-0.072727785
0.042288188,0.027278041,-0.029529344,-0.14005558,-1.4090761,-0.07046392
0.040971845,0.026428934,-0.02861016,-0.13569595,-1.3652146,-0.06827053
0.039696485,0.02560626,-0.027719589,-0.13147204,-1.3227185,-0.06614542
0.038460825,0.024809197,-0.026856743,-0.12737961,-1.2815453,-0.06408647
0.037263628,0.024036944,-0.026020754,-0.12341459,-1.2416538,-0.062091604
0.036103703,0.023288732,-0.025210792,-0.11957299,-1.2030041,-0.06015884
0.034979884,0.022563811,-0.024426041,-0.11585098,-1.1655576,-0.058286246
0.033891045,0.021861456,-0.02366572,-0.11224483,-1.1292768,-0.05647194
0.032836106,0.021180965,-0.022929067,-0.10875093,-1.0941252,-0.054714113
