ax,ay,az,gx,gy,gz
-0.27363884,-2.3363848,-2.7236612,18.25562,150.64684,45.88769
-1.3358558,-2.1008267,-4.0979533,11.273177,128.45213,57.932446
-1.9958072,-1.7883813,-4.1855464,-10.200932,101.30033,56.903667
-1.8117591,-1.86834,-3.255878,-7.778332,93.52002,50.69812
-1.2759185,-1.9661376,-2.500213,0.16317739,98.29822,45.403732
-0.79319793,-2.0999963,-2.2630308,7.3581524,107.110855,45.657307
-0.7994497,-2.2742667,-2.630549,10.271623,109.89934,49.550865
-1.1560323,-2.4779372,-3.2121863,17.73998,103.68977,54.27679
-1.2482175,-2.6743512,-3.60363,26.827541,94.022354,59.59981
-1.0528076,-2.8956802,-3.8224857,35.709274,84.854576,66.38033
-0.83903855,-3.0861783,-4.0345483,46.161396,77.059326,74.17653
-0.7217808,-3.1274302,-4.363434,56.923702,68.154076,82.230774
-0.6290458,-2.9645777,-4.6907187,67.973785,56.779736,88.87899
-0.5311472,-2.6209252,-4.9783444,77.33188,44.136486,93.758064
-0.43138608,-2.1870046,-5.246466,83.234634,29.888153,97.58909
-0.32699826,-1.608531,-5.445459,84.828255,14.230432,99.66375
-0.19455789,-0.92633015,-5.486249,83.44737,-1.7121121,98.96176
-0.037586704,-0.19810139,-5.357202,80.780754,-15.7745285,93.921036
0.14691664,0.5213114,-5.0749683,76.66668,-27.553175,86.97695
0.36052698,1.1700327,-4.661315,71.73257,-35.658855,79.23404
0.5615208,1.7232316,-4.2473245,66.52681,-40.73837,71.58848
0.71489376,2.2334976,-3.8796356,59.622005,-43.999344,64.018715
0.80758667,2.666768,-3.5426629,51.81279,-45.86398,56.123505
0.84099364,3.0063016,-3.2410283,43.254467,-47.132923,47.99167
0.867102,3.243629,-2.9219494,33.97485,-47.75696,39.719597
0.9423682,3.3529758,-2.5753179,24.857939,-46.871204,31.368513
1.0300645,3.2761157,-2.3003678,16.32665,-44.675537,23.621391
1.1001127,2.9750938,-2.1239922,10.051606,-41.681145,17.48998
1.1576412,2.492559,-2.0298548,5.1320467,-38.553577,12.568122
1.2117621,1.9065298,-1.9625453,1.6542906,-35.136196,9.070231
1.2432059,1.2247355,-1.9403243,0.24352078,-31.570362,7.7213798
1.2605717,0.51504713,-1.9482048,0.9786701,-27.720387,8.929586
1.2622297,-0.13084826,-1.9920192,4.6889997,-23.560102,13.599214
1.2321157,-0.6052029,-2.119058,10.2571,-20.209867,20.052404
1.1831402,-0.91377926,-2.2783575,17.875158,-18.306211,27.811539
1.1176645,-1.0237732,-2.438361,25.848736,-17.93928,35.848732
1.042978,-0.90414965,-2.5741675,32.29519,-19.873995,43.526
1.0159966,-0.54952586,-2.6440833,34.165287,-24.45963,50.42792
0.98181474,-0.16160509,-2.6965172,34.27407,-30.520653,55.65334
0.9660251,0.29749995,-2.7189863,33.672485,-37.383324,57.727077
0.9563573,0.8730069,-2.6971185,32.2346,-45.185123,55.117737
0.97646815,1.3909845,-2.6594138,30.235376,-53.020287,49.56534
1.025133,1.8395734,-2.5905552,26.481943,-60.409023,42.845604
1.1444129,2.242024,-2.472168,20.2328,-66.439384,35.741623
1.2463912,2.536696,-2.359004,12.867946,-71.20429,28.846558
1.305522,2.7127843,-2.2487772,5.6379523,-75.19253,21.593643
1.398697,2.758698,-2.1227672,-0.7250288,-77.74172,14.323904
1.5435815,2.6778684,-1.98284,-5.655171,-78.024925,8.387774
1.7242619,2.4643738,-1.84507,-9.959308,-76.9171,4.399762
1.9091682,2.1836996,-1.7015498,-13.930059,-74.53897,2.4088626
2.092504,1.8789499,-1.5620015,-17.301504,-70.999794,2.6466784
2.022276,1.815889,-1.5095779,-16.720835,-68.61691,2.557851
1.9547174,1.7552253,-1.4591472,-16.16224,-66.32462,2.4724007
1.8896983,1.6968417,-1.410612,-15.62464,-64.118484,2.390162
1.827097,1.6406294,-1.3638817,-15.107033,-61.99439,2.3109815
1.7668003,1.5864863,-1.3188717,-14.6084795,-59.94849,2.234716
1.708702,1.5343174,-1.2755029,-14.128104,-57.977184,2.161231
1.6527029,1.4840335,-1.233701,-13.665086,-56.077106,2.0904012
1.59871,1.4355508,-1.1933966,-13.218655,-54.245094,2.0221088
1.5466355,1.3887908,-1.1545243,-12.788086,-52.47818,1.9562432
1.4963973,1.3436798,-1.1170228,-12.3727,-50.773567,1.8926998
1.4479177,1.3001479,-1.0808339,-11.971854,-49.128628,1.8313811
1.4011235,1.2581295,-1.0459033,-11.584946,-47.540882,1.7721941
1.355946,1.2175624,-1.0121794,-11.211402,-46.007977,1.7150518
1.3123193,1.1783882,-0.97961324,-10.850683,-44.527702,1.6598711
1.2701819,1.1405513,-0.94815874,-10.502277,-43.09796,1.6065742
1.2294751,1.1039989,-0.9177721,-10.165701,-41.716755,1.5550867
1.1901432,1.0686811,-0.8884119,-9.840491,-40.382206,1.5053383
1.1521335,1.0345504,-0.8600385,-9.526215,-39.09251,1.457262
1.1153955,1.0015619,-0.8326146,-9.222453,-37.845974,1.4107945
1.0798815,0.9696724,-0.80610436,-8.928812,-36.64097,1.3658751
1.045546,0.93884104,-0.78047377,-8.644916,-35.475945,1.3224463
1.0123456,0.9090289,-0.7556904,-8.370403,-34.349434,1.2804531
0.9802387,0.88019866,-0.7317234,-8.104932,-33.26003,1.239843
0.94918567,0.85231483,-0.7085431,-7.848176,-32.206383,1.2005659
0.9191488,0.82534343,-0.68612134,-7.5998216,-31.187216,1.1625742
0.89009184,0.799252,-0.6644311,-7.359569,-30.201298,1.1258218
0.8619802,0.7740093,-0.64344645,-7.127133,-29.247454,1.0902652
0.83478063,0.7495856,-0.62314266,-6.902238,-28.324558,1.0558622
0.80846137,0.72595245,-0.603496,-6.684622,-27.431532,1.0225726
0.78299195,0.7030823,-0.58448374,-6.4740324,-26.56734,0.9903579
0.7583431,0.68094903,-0.56608397,-6.2702274,-25.730991,0.9591811
0.7344867,0.65952736,-0.54827577,-6.072975,-24.921532,0.9290066
0.7113958,0.63879305,-0.531039,-5.882052,-24.138044,0.89980036
0.68904454,0.61872286,-0.51435435,-5.697244,-23.379652,0.8715296
0.6674079,0.59929436,-0.4982031,-5.5183454,-22.64551,0.8441627
0.64646184,0.58048606,-0.48256743,-5.3451567,-21.9348,0.8176694
0.62618345,0.5622772,-0.46743014,-5.177489,-21.246744,0.79202056
0.60655046,0.5446479,-0.4527746,-5.0151567,-20.580585,0.767188
0.5875415,0.5275789,-0.4385849,-4.8579845,-19.9356,0.74314475
0.56913596,0.5110518,-0.4248456,-4.705801,-19.31109,0.7198647
0.55131394,0.49504864,-0.41154194,-4.558443,-18.70638,0.6973228
0.5340564,0.47955233,-0.39865962,-4.415752,-18.120823,0.67549473
0.51734483,0.46454626,-0.38618484,-4.277575,-17.55379,0.6543573
0.5011614,0.4500145,-0.37410432,-4.1437654,-17.004677,0.63388795
0.485489,0.43594158,-0.3624053,-4.014181,-16.472904,0.6140649
0.47031108,0.42231265,-0.35107535,-3.888685,-15.95791,0.5948672
0.4556116,0.40911335,-0.34010255,-3.767145,-15.459147,0.5762748
0.4413751,0.3963298,-0.32947537,-3.649433,-14.976096,0.55826795
0.42758673,0.38394862,-0.3191827,-3.5354261,-14.508249,0.5408279
0.41423208,0.37195688,-0.3092138,-3.4250054,-14.055118,0.5239364
0.40129718,0.3603421,-0.29955822,-3.3180559,-13.616231,0.50757587
0.38876867,0.3490922,-0.290206,-3.2144659,-13.191132,0.49172935
0.37663352,0.33819553,-0.28114742,-3.1141286,-12.779379,0.47638035
0.3648792,0.3276408,-0.2723731,-3.0169399,-12.3805485,0.461513
0.35349354,0.31741711,-0.263874,-2.9227996,-11.994226,0.447112
0.34246483,0.30751398,-0.25564134,-2.8316107,-11.620017,0.43316248
0.33178174,0.29792115,-0.24766669,-2.7432795,-11.257534,0.4196501
0.32143328,0.28862885,-0.23994182,-2.6577148,-10.9064045,0.406561
0.31140885,0.27962747,-0.23245884,-2.5748298,-10.566271,0.3938817
0.3016982,0.27090785,-0.22521009,-2.494539,-10.236783,0.3815993
0.2922914,0.2624611,-0.21818815,-2.4167604,-9.917605,0.36970124
0.28317884,0.25427854,-0.21138586,-2.341415,-9.608412,0.35817534
0.27435124,0.24635184,-0.20479627,-2.2684255,-9.308886,0.34700984
0.2657996,0.23867296,-0.1984127,-2.1977177,-9.018724,0.3361934
0.25751525,0.23123407,-0.19222863,-2.1292198,-8.737632,0.32571504
0.24948974,0.22402762,-0.18623778,-2.0628624,-8.465322,0.31556407
0.24171492,0.21704628,-0.1804341,-1.9985776,-8.201518,0.3057302
0.23418294,0.21028298,-0.17481165,-1.9363008,-7.945954,0.29620343
0.22688614,0.20373087,-0.16936477,-1.8759685,-7.6983695,0.2869742
0.21981715,0.19738331,-0.16408794,-1.8175197,-7.458514,0.27803305
0.21296878,0.19123389,-0.15897582,-1.7608953,-7.226146,0.26937097
0.20633416,0.18527636,-0.15402324,-1.706038,-7.0010295,0.26097926
0.19990656,0.17950474,-0.14922519,-1.6528925,-6.7829375,0.25284937
0.19367948,0.17391318,-0.14457685,-1.601405,-6.5716496,0.24497315
0.18764666,0.16849604,-0.1400735,-1.5515237,-6.366953,0.2373426
0.181802,0.16324787,-0.1357106,-1.5031981,-6.16864,0.22995006
0.17613961,0.15816337,-0.13148378,-1.4563797,-5.9765124,0.22278805
0.17065379,0.15323742,-0.12738875,-1.4110211,-5.790375,0.21584937
0.16533901,0.14846505,-0.12342139,-1.3670768,-5.610042,0.20912704
0.16018993,0.14384146,-0.119577736,-1.3245025,-5.435331,0.20261429
0.15520136,0.139362,-0.11585389,-1.2832553,-5.266066,0.19630454
0.15036827,0.13502218,-0.11224612,-1.2432938,-5.102077,0.19019149
0.14568582,0.1308176,-0.10875079,-1.2045778,-4.9431987,0.18426895
0.14114931,0.12674406,-0.1053644,-1.1670685,-4.7892723,0.17853099
0.13675416,0.122797474,-0.10208353,-1.1307279,-4.6401424,0.17297184
0.13249597,0.11897386,-0.09890489,-1.0955198,-4.49566,0.16758591
0.12837045,0.11526938,-0.0958253,-1.0614086,-4.355679,0.1623678
0.12437347,0.111680314,-0.092841655,-1.0283604,-4.220059,0.15731227
0.12050102,0.10820307,-0.089950964,-0.9963416,-4.0886645,0.15241425
0.1167492,0.104834154,-0.08715033,-0.96532035,-3.9613633,0.14766881
0.11311425,0.10157018,-0.08443693,-0.9352655,-3.8380277,0.14307119
0.109592535,0.09840788,-0.08180806,-0.90614676,-3.718534,0.13861679
0.10618052,0.095344074,-0.07926107,-0.87793505,-3.6027622,0.13430114
0.10287477,0.0923757,-0.07679342,-0.8506021,-3.4905965,0.1301199
0.09967198,0.08949978,-0.074402615,-0.8241204,-3.3819242,0.12606889
0.09656894,0.08671343,-0.072086275,-0.79846346,-3.2766366,0.12214406
0.09356254,0.08401386,-0.06984208,-0.7736056,-3.1746278,0.11834145
0.090649776,0.08139835,-0.06766777,-0.74952185,-3.075796,0.11465727
0.08782771,0.0788643,-0.06556117,-0.7261881,-2.9800417,0.111087814
0.08509353,0.07640916,-0.06352017,-0.703581,-2.8872695,0.107629515
0.08244449,0.074030474,-0.061542727,-0.6816779,-2.7973862,0.10427891
0.079877935,0.07172585,-0.059626862,-0.6604568,-2.7103016,0.10103264
0.077391304,0.069492996,-0.05777065,-0.63989645,-2.6259286,0.09788745
0.07498209,0.06732966,-0.05597224,-0.61997634,-2.544183,0.09484019
0.0726479,0.06523369,-0.054229822,-0.6006765,-2.4649825,0.09188782
0.07038639,0.06320298,-0.052541662,-0.58197755,-2.3882482,0.08902737
0.06819529,0.061235495,-0.05090606,-0.56386083,-2.3139029,0.08625598
0.066072404,0.05932927,-0.049321383,-0.54630816,-2.2418725,0.08357088
0.06401562,0.057482395,-0.047786046,-0.529302,-2.1720846,0.08096938
0.062022872,0.05569302,-0.046298508,-0.5128253,-2.1044695,0.07844888
0.060092166,0.05395935,-0.044857282,-0.49686158,-2.0389597,0.076006845
0.058221567,0.052279662,-0.043460928,-0.48139486,-1.9754893,0.07364084
0.056409206,0.050652266,-0.042108048,-0.46640965,-1.9139948,0.071348496
0.05465327,0.049075533,-0.040797282,-0.451891,-1.8544149,0.06912752
0.052951995,0.047547884,-0.039527327,-0.4378243,-1.7966897,0.06697569
0.051303685,0.046067797,-0.038296904,-0.42419556,-1.7407618,0.06489085
0.04970669,0.044633787,-0.03710479,-0.4109911,-1.6865749,0.062870905
0.048159413,0.043244418,-0.035949785,-0.3981977,-1.6340749,0.06091385
0.046660304,0.041898303,-0.034830738,-0.38580257,-1.5832093,0.059017718
0.04520786,0.040594094,-0.033746526,-0.3737933,-1.5339272,0.057180617
0.043800637,0.039330482,-0.03269607,-0.3621579,-1.4861792,0.055400703
0.042437218,0.03810621,-0.03167831,-0.3508847,-1.4399177,0.0536762
0.04111624,0.03692005,-0.030692235,-0.33996245,-1.3950963,0.052005377
0.039836384,0.03577081,-0.029736856,-0.3293802,-1.3516701,0.05038657
0.038596373,0.03465735,-0.028811216,-0.31912738,-1.3095958,0.048818152
0.03739496,0.033578552,-0.027914394,-0.3091937,-1.2688313,0.04729856
0.036230948,0.032533333,-0.027045486,-0.29956925,-1.2293357,0.045826275
0.03510317,0.031520654,-0.026203629,-0.29024443,-1.1910695,0.044399817
0.034010496,0.030539496,-0.025387976,-0.28120986,-1.1539946,0.043017764
