ax,ay,az,gx,gy,gz
0.51364106,0.6700061,-2.988209,26.079329,40.672188,-24.470222
0.2436553,0.35077032,-3.3221126,35.87152,34.05969,-29.648836
0.25766283,0.41224608,-3.224157,39.66403,26.189083,-32.63171
0.503777,0.68857366,-2.8693924,32.65836,20.898525,-31.591105
0.65081537,0.88024366,-2.5883486,20.446117,19.713589,-28.127739
0.6397581,0.8241023,-2.5345066,12.012071,21.663128,-25.230385
0.52932173,0.5726023,-2.6604626,11.029384,22.500061,-25.139984
0.51332176,0.37736776,-2.7145662,15.135084,22.403166,-26.613417
0.5529717,0.2881732,-2.630521,19.95913,21.634272,-28.507061
0.59117603,0.2558626,-2.4829593,22.24713,21.189985,-29.072538
0.5610317,0.21903168,-2.3834383,22.045082,19.925081,-28.512743
0.5101986,0.18000156,-2.3170626,20.266788,17.687935,-27.2184
0.5053727,0.14753404,-2.2394567,18.314272,15.1348,-25.731201
0.5371006,0.124972045,-2.1306415,16.045845,13.040955,-23.758266
0.54988927,0.0968374,-2.0050418,13.509178,11.868763,-21.638529
0.53618246,0.050353672,-1.8997405,11.772475,11.352388,-19.811222
0.5252348,0.009130306,-1.8111877,10.3952675,11.305821,-18.082043
0.5099333,-0.002464392,-1.7439609,9.25738,11.490068,-16.563017
0.4803152,0.0034869718,-1.6910502,8.241092,11.577768,-15.203949
0.43243298,0.01104674,-1.6442426,7.178693,11.466488,-13.964213
0.3755045,0.009915796,-1.6060241,6.179617,11.066782,-12.715349
0.32399902,0.009401221,-1.5798162,5.4851856,10.479815,-11.5803995
0.28441218,0.0060654115,-1.556214,5.344562,9.637498,-10.75026
0.25539187,0.0013344547,-1.526521,5.423201,8.670961,-9.982351
0.23400353,0.0012712242,-1.4936599,5.4728017,7.673029,-9.249082
0.22274274,-0.00031039852,-1.4587399,5.4540277,6.6738763,-8.481416
0.21897203,0.000784229,-1.4298892,5.30188,5.708275,-7.6982856
0.21923728,-0.000306323,-1.4143614,5.0981126,4.8689275,-6.9271407
0.21349956,-0.010585403,-1.4241213,5.033641,4.041587,-6.231954
0.20529085,-0.031747214,-1.4537014,5.225643,3.1085536,-5.5619216
0.1991494,-0.052216653,-1.4931822,5.8130455,1.9788147,-4.9296436
0.2089494,-0.04931891,-1.5317073,6.388591,0.7410194,-4.2770863
0.23392431,-0.024573376,-1.5749813,6.748473,-0.5490475,-3.5978522
0.2678938,0.01749358,-1.6273898,6.626853,-1.8453674,-2.9245572
0.28816986,0.05118334,-1.6985595,6.013962,-3.0868359,-2.282396
0.2824553,0.049950425,-1.8012065,5.5637927,-4.4019175,-1.8372288
0.26507762,0.006267477,-1.9290761,5.6765494,-5.8583083,-1.3429954
0.26070225,-0.015081649,-2.0563605,6.2787333,-7.623839,-0.74538785
0.2804095,0.016590554,-2.158265,6.7323847,-9.669741,-0.20585184
0.3035772,0.04991692,-2.2411866,6.861155,-11.655087,0.22572821
0.31666276,0.045502838,-2.3301733,7.616001,-13.686004,0.3943478
0.33895078,0.0025112866,-2.418912,9.142493,-15.763225,0.5246907
0.37760615,-0.034169167,-2.4924886,11.454439,-17.850584,0.65577555
0.4196624,-0.025204511,-2.5355365,13.713354,-20.010946,0.79626554
0.4416548,0.0036434145,-2.5501132,15.314109,-22.397488,1.0396878
0.4411108,0.03510447,-2.5446534,16.014212,-25.296932,1.3683631
0.42291707,0.07286132,-2.5162933,16.276768,-28.597145,1.6603211
0.4087549,0.12534177,-2.4596918,16.12463,-32.10869,1.8545731
0.40753585,0.18502939,-2.3676817,15.589429,-35.50883,1.9141164
0.41545135,0.22676486,-2.249603,14.93465,-38.44778,1.7809355
0.42595902,0.24009506,-2.1209466,14.54211,-40.804955,1.4676787
0.42773917,0.23572885,-1.9898562,14.535428,-42.960865,0.992354
0.42464104,0.23296511,-1.848248,14.722728,-45.206066,0.5024594
0.42930976,0.25225863,-1.6788661,14.527385,-47.628784,0.18122633
0.44821537,0.28749788,-1.4790115,13.556798,-50.03823,0.090316564
0.47827253,0.3217369,-1.2612349,11.953234,-52.064907,-0.07984905
0.52298486,0.33272856,-1.0416324,10.291731,-53.423615,-0.39030537
0.567327,0.3103864,-0.83923936,9.092319,-54.10914,-0.8835924
0.6064871,0.26633525,-0.65876514,8.55202,-54.335403,-1.4389548
0.63474447,0.22681351,-0.4934332,8.410621,-54.416462,-1.9388186
0.6588871,0.20810978,-0.32944858,8.101727,-54.393547,-2.2287288
0.6821846,0.19718824,-0.17661484,7.5722947,-54.23102,-2.3502932
0.7032824,0.18076453,-0.04024451,7.0810165,-53.871,-2.418346
0.716719,0.162909,0.089125834,6.7542887,-53.391533,-2.476148
0.7226159,0.15351704,0.2184946,6.566446,-52.808743,-2.5005636
0.7227567,0.15995437,0.3505434,6.3595204,-52.044006,-2.4849403
0.71907896,0.17966536,0.4819228,6.0833464,-51.062664,-2.5050685
0.7145977,0.1968871,0.6019867,5.781342,-49.796227,-2.6319096
0.70780796,0.20311844,0.7090085,5.481697,-48.35403,-2.8129642
0.6983756,0.20273203,0.80616754,5.133693,-46.794666,-3.0113018
0.6909131,0.20481014,0.8996438,4.632099,-45.1648,-3.2030313
0.68964404,0.21321023,0.99078137,3.9666774,-43.5211,-3.4019754
0.69568866,0.22727066,1.0799541,3.0809674,-41.87553,-3.60406
0.71079504,0.23798189,1.1665069,1.9069595,-40.21448,-3.6930199
0.73617643,0.23272374,1.2492998,0.51241916,-38.455204,-3.4638848
0.7660436,0.2076381,1.3253013,-0.5177933,-36.506287,-2.9950063
0.7418268,0.20107405,1.2834047,-0.5014244,-35.352215,-2.9003255
0.71839774,0.19472356,1.242871,-0.48558795,-34.23569,-2.8087249
0.6957289,0.18857911,1.2036526,-0.47026536,-33.15539,-2.7200963
0.67379373,0.18263352,1.1657034,-0.45543867,-32.110058,-2.6343362
0.6525668,0.17687991,1.1289797,-0.4410907,-31.098476,-2.551345
0.63202375,0.17131168,1.093439,-0.42720503,-30.119486,-2.4710279
0.6121412,0.16592245,1.0590409,-0.41376576,-29.17197,-2.393293
0.59289664,0.16070616,1.0257467,-0.40075773,-28.254858,-2.3180523
0.57426846,0.15565693,0.99351877,-0.38816634,-27.367119,-2.2452216
0.55623585,0.15076916,0.9623213,-0.37597755,-26.507765,-2.1747193
0.5387789,0.1460374,0.9321197,-0.36417782,-25.675842,-2.1064677
0.52187836,0.14145647,0.9028807,-0.3527542,-24.870436,-2.0403914
0.5055157,0.13702132,0.87457234,-0.34169418,-24.090664,-1.9764183
0.48967308,0.13272715,0.84716374,-0.33098564,-23.335674,-1.9144784
0.47433338,0.12856929,0.8206251,-0.32061705,-22.604652,-1.8545047
0.45948005,0.12454325,0.794928,-0.3105772,-21.896809,-1.7964325
0.44509712,0.120644726,0.7700447,-0.30085534,-21.21138,-1.7401994
0.43116924,0.11686953,0.7459486,-0.29144105,-20.547638,-1.6857455
0.41768155,0.11321366,0.7226141,-0.28232428,-19.904875,-1.6330127
0.40461975,0.109673224,0.7000164,-0.2734954,-19.282406,-1.5819448
0.39197004,0.10624449,0.67813164,-0.26494506,-18.679577,-1.5324881
0.37971908,0.10292383,0.65693676,-0.25666425,-18.095749,-1.4845905
0.36785403,0.09970778,0.63640946,-0.24864426,-17.530312,-1.4382015
0.35636243,0.09659295,0.61652833,-0.24087672,-16.982672,-1.3932728
0.34523228,0.093576096,0.5972725,-0.23335351,-16.45226,-1.3497572
0.334452,0.090654075,0.578622,-0.22606677,-15.938518,-1.3076094
0.3240104,0.08782385,0.56055737,-0.21900895,-15.440917,-1.2667857
0.31389663,0.085082486,0.54305995,-0.21217275,-14.958939,-1.2272439
0.30410025,0.08242715,0.5261116,-0.20555106,-14.492086,-1.1889429
0.29461113,0.07985511,0.5096949,-0.19913706,-14.039877,-1.1518433
0.2854195,0.07736369,0.49379283,-0.19292414,-13.601844,-1.1159067
0.27651593,0.07495035,0.47838908,-0.18690594,-13.177538,-1.0810963
0.26789123,0.07261261,0.46346787,-0.18107623,-12.766523,-1.0473763
0.25953662,0.07034807,0.44901386,-0.17542908,-12.368379,-1.0147122
0.2514435,0.0681544,0.43501228,-0.16995868,-11.982696,-0.98307043
0.2436036,0.066029385,0.42144883,-0.16465944,-11.609081,-0.9524188
0.23600896,0.063970834,0.4083096,-0.15952598,-11.247153,-0.9227259
0.22865179,0.061976656,0.39558128,-0.15455304,-10.8965435,-0.89396155
0.22152463,0.06004482,0.38325086,-0.14973556,-10.556894,-0.86609644
0.21462022,0.058173362,0.37130582,-0.14506865,-10.2278595,-0.8391022
0.20793153,0.056360375,0.359734,-0.14054756,-9.909106,-0.81295145
0.2014518,0.054604027,0.34852365,-0.13616769,-9.60031,-0.78761756
0.19517443,0.05290253,0.33766344,-0.13192463,-9.301159,-0.7630749
0.18909308,0.051254164,0.32714236,-0.12781404,-9.011349,-0.7392986
0.18320158,0.04965726,0.3169497,-0.12383179,-8.730585,-0.71626455
0.17749399,0.048110202,0.3070752,-0.119973846,-8.458586,-0.6939495
0.17196451,0.04661142,0.2975089,-0.11623629,-8.195075,-0.67233086
0.16660756,0.04515941,0.28824106,-0.11261537,-7.939787,-0.6513868
0.16141775,0.043752696,0.27926236,-0.109107405,-7.6924634,-0.6310962
0.15638983,0.042389866,0.27056378,-0.105708875,-7.4528546,-0.61143845
0.15151873,0.04106954,0.2621365,-0.102416344,-7.2207193,-0.5923939
0.14679955,0.039790396,0.253972,-0.0992265,-6.995824,-0.57394326
0.14222752,0.038551133,0.24606211,-0.09613611,-6.7779408,-0.55606794
0.13779803,0.03735051,0.23839884,-0.093142085,-6.566851,-0.53875
0.13350664,0.03618732,0.23097448,-0.090241395,-6.3623424,-0.5219719
0.12934904,0.035060387,0.22378157,-0.08743113,-6.1642084,-0.50571686
0.12532102,0.033968583,0.21681285,-0.08470847,-5.9722505,-0.48996848
0.121418536,0.032910805,0.21006133,-0.082070656,-5.786276,-0.4747109
0.11763768,0.031885993,0.20352022,-0.079515055,-5.6060967,-0.45992887
0.11397464,0.030893119,0.19718295,-0.07703909,-5.4315324,-0.44560748
0.11042575,0.029931182,0.19104315,-0.07464028,-5.2624073,-0.43173233
0.106987424,0.028999217,0.18509465,-0.072316214,-5.098552,-0.4182895
0.10365623,0.028096288,0.1793315,-0.07006455,-4.939802,-0.40526554
0.10042883,0.027221492,0.17374788,-0.067883044,-4.7859983,-0.3926473
0.09730196,0.026373945,0.16833821,-0.06576949,-4.6369853,-0.38042217
0.094272494,0.025552804,0.16309705,-0.06372178,-4.4926143,-0.36857787
0.091337405,0.024757238,0.15801917,-0.06173786,-4.352741,-0.3571025
0.08849373,0.023986453,0.15309945,-0.059815735,-4.2172236,-0.34598458
0.08573863,0.023239676,0.14833297,-0.057953477,-4.085928,-0.33521295
0.08306934,0.02251616,0.14371493,-0.05614922,-3.9587212,-0.3247768
0.08048318,0.021815175,0.13924073,-0.05440115,-3.8354762,-0.3146657
0.077977575,0.021136021,0.13490586,-0.052707527,-3.7160697,-0.30486947
0.07554999,0.02047802,0.130706,-0.05106665,-3.6003816,-0.29537833
0.073198006,0.019840507,0.12663692,-0.049476866,-3.4882965,-0.28618276
0.07091926,0.019222848,0.12269457,-0.047936592,-3.3797016,-0.27727357
0.06871148,0.018624423,0.118874975,-0.046444282,-3.2744882,-0.26864177
0.06657244,0.018044632,0.115174316,-0.044998437,-3.1725512,-0.26027876
0.06450002,0.017482895,0.11158889,-0.043597616,-3.0737884,-0.2521762
0.062492117,0.01693865,0.1081151,-0.042240415,-2.9781008,-0.24432589
0.060546737,0.01641135,0.10474948,-0.040925473,-2.8853924,-0.23672003
0.05866193,0.015900467,0.10148865,-0.03965147,-2.7955709,-0.22935098
0.056835808,0.015405492,0.09832935,-0.038417134,-2.7085457,-0.22221138
0.05506654,0.014925928,0.09526841,-0.03722123,-2.6242304,-0.21529406
0.05335236,0.014461295,0.09230278,-0.03606256,-2.5425398,-0.20859212
0.05169155,0.014011128,0.089429475,-0.034939967,-2.463393,-0.20209883
0.050082445,0.013574976,0.086645626,-0.03385232,-2.3867102,-0.1958077
0.048523437,0.013152403,0.08394845,-0.03279854,-2.3124146,-0.18971244
0.047012966,0.012742985,0.08133525,-0.031777564,-2.240432,-0.18380694
0.04554952,0.012346314,0.0788034,-0.030788373,-2.1706908,-0.17808528
0.044131633,0.011961993,0.07635037,-0.029829979,-2.1031203,-0.17254177
0.042757887,0.011589635,0.07397371,-0.02890142,-2.0376537,-0.16717082
0.04142691,0.011228871,0.07167103,-0.028001769,-1.9742252,-0.16196708
0.040137365,0.010879336,0.069440044,-0.027130125,-1.9127711,-0.15692535
0.038887966,0.010540684,0.06727851,-0.026285617,-1.8532302,-0.15204057
0.037677463,0.010212573,0.065184265,-0.025467398,-1.795543,-0.14730784
0.03650464,0.0098946765,0.06315521,-0.024674652,-1.7396514,-0.14272246
0.03536833,0.009586677,0.061189327,-0.023906583,-1.6854998,-0.13827983
0.034267392,0.009288265,0.059284642,-0.023162425,-1.633034,-0.13397548
0.033200726,0.008999143,0.057439245,-0.02244143,-1.5822014,-0.12980513
0.032167267,0.0087190205,0.055651296,-0.021742882,-1.5329511,-0.1257646
0.031165978,0.008447618,0.053919006,-0.021066079,-1.485234,-0.12184985
0.030195856,0.008184665,0.05224064,-0.020410342,-1.4390024,-0.11805696
0.029255936,0.007929897,0.05061452,-0.01977502,-1.3942099,-0.11438215
0.028345274,0.007683059,0.049039017,-0.019159473,-1.3508116,-0.110821724
