ax,ay,az,gx,gy,gz
2.236384,-0.50455004,-6.038237,40.89401,37.95307,-39.173992
2.399629,-0.7496685,-6.7499657,47.757034,34.293774,-42.11618
2.4281876,-0.97146744,-7.2932186,52.22544,29.128685,-41.385765
2.4638836,-1.1845804,-7.773233,55.42815,23.701132,-39.487095
2.4950812,-1.3304738,-8.203318,55.197662,15.291451,-37.69335
2.612731,-1.5078005,-8.654391,52.588108,5.1448593,-34.819065
2.7432222,-1.7296271,-9.123194,48.906586,-7.689584,-30.833824
2.89814,-1.9488349,-9.561869,43.359,-21.656748,-24.734789
3.0693479,-2.14987,-9.961443,38.079514,-35.464058,-16.711472
3.2246652,-2.2779343,-10.308675,34.46774,-48.489834,-7.96441
3.3541625,-2.2564871,-10.613342,33.063133,-62.765446,-0.49796528
3.514135,-2.211301,-10.819046,33.01212,-76.13043,5.0452123
3.669727,-2.1690292,-10.941457,34.59315,-88.038315,9.210802
3.780405,-2.0762367,-11.002682,36.26209,-99.23048,12.936465
3.8460522,-1.9321436,-10.972446,35.04047,-111.282814,17.519096
3.8787622,-1.7542503,-10.780685,31.977684,-123.5966,22.288097
3.8846903,-1.5718187,-10.457901,28.644438,-135.62677,25.667519
3.903333,-1.4642727,-9.9985,26.07736,-146.98973,27.657564
4.014309,-1.4356223,-9.408878,25.491522,-157.07446,29.060915
4.220143,-1.3571521,-8.639201,25.540361,-165.16963,30.534794
4.4453917,-1.1381743,-7.5907693,26.093166,-170.39049,31.30461
4.6368623,-0.84568816,-6.4486365,27.418697,-172.3901,30.557455
4.7827578,-0.5325253,-5.3376093,29.073776,-171.8399,28.40296
4.878982,-0.23533261,-4.3080473,29.176872,-170.04184,26.146988
4.921912,-0.003566329,-3.388103,27.536999,-167.49696,24.211105
4.91384,0.09928238,-2.5955153,25.67747,-163.28792,22.299423
4.872287,0.15127599,-1.9147719,24.757633,-157.77133,20.149313
4.8014755,0.1882254,-1.3098005,24.167805,-151.67776,17.981636
4.714035,0.23183943,-0.7579883,23.024553,-145.15645,16.190065
4.619285,0.27818644,-0.2697704,22.467562,-137.98698,14.927185
4.509607,0.3641561,0.16250898,22.993052,-130.75562,13.907045
4.4059467,0.4836943,0.57177985,24.295101,-123.53542,13.085368
4.314662,0.6225382,0.95354575,26.258871,-116.058426,12.349173
4.2304287,0.7799765,1.3008336,27.951487,-108.356255,11.797625
4.1700234,0.93271613,1.6192107,28.015583,-99.51189,11.725833
4.0102735,0.8969846,1.5571802,26.942331,-95.69967,11.276627
3.8585956,0.8630585,1.498284,25.92331,-92.080086,10.850118
3.714394,0.8308047,1.4422909,24.954515,-88.638916,10.444633
3.5771341,0.80010355,1.3889931,24.032358,-85.36339,10.058666
3.4463334,0.77084714,1.3382035,23.153597,-82.24201,9.690864
3.3215568,0.74293816,1.289753,22.315306,-79.26439,9.34
3.202409,0.71628815,1.2434882,21.514833,-76.42109,9.004964
3.0885317,0.69081706,1.1992699,20.749767,-73.70357,8.684749
2.9795978,0.66645163,1.1569711,20.017914,-71.10401,8.378434
2.875309,0.6431252,1.116476,19.317268,-68.6153,8.08518
2.7753923,0.62077665,1.0776786,18.645994,-66.23093,7.8042216
2.6795971,0.59935,1.0404814,18.00241,-63.944904,7.534851
2.5876927,0.5787935,1.0047952,17.384966,-61.75173,7.276422
2.499467,0.5590599,0.97053736,16.792236,-59.646343,7.028337
2.4147236,0.5401053,0.9376317,16.222904,-57.62406,6.790045
2.3332815,0.521889,0.906008,15.67575,-55.68056,6.5610347
2.2549725,0.5043735,0.87560076,15.149644,-53.81182,6.3408346
2.1796403,0.48752376,0.8463494,14.643537,-52.014122,6.1290054
2.1071396,0.47130743,0.81819755,14.156453,-50.283993,5.9251385
2.037335,0.4556941,0.7910926,13.687484,-48.618202,5.7288523
1.9701,0.44065556,0.76498544,13.235778,-47.013733,5.539792
1.9053166,0.42616537,0.73983014,12.800541,-45.467766,5.3576255
1.8428739,0.4121987,0.7155838,12.381031,-43.977657,5.1820407
1.7826681,0.39873236,0.692206,11.976549,-42.540928,5.012746
1.7246016,0.38574454,0.66965896,11.586439,-41.15525,4.849467
1.6685827,0.37321466,0.6479069,11.210085,-39.81843,4.691945
1.6145247,0.36112344,0.6269163,10.846906,-38.528416,4.5399375
1.5623462,0.34945258,0.6066555,10.496353,-37.283245,4.393215
1.51197,0.33818486,0.58709455,10.15791,-36.08109,4.2515607
1.4633235,0.327304,0.56820524,9.831087,-34.920204,4.11477
1.4163375,0.31679457,0.5499607,9.515419,-33.79895,3.9826484
1.3709468,0.30664194,0.5323355,9.210469,-32.71576,3.8550124
1.3270891,0.29683223,0.5153057,8.915819,-31.669159,3.7316875
1.2847056,0.28735226,0.49884832,8.631073,-30.657736,3.612508
1.2437403,0.27818948,0.4829416,8.355855,-29.680157,3.4973164
1.20414,0.269332,0.46756485,8.089807,-28.735146,3.3859627
1.1658536,0.2607684,0.45269832,7.8325863,-27.821495,3.2783039
1.1288328,0.25248793,0.43832326,7.5838685,-26.938046,3.1742039
1.0930314,0.24448016,0.42442164,7.3433433,-26.083694,3.0735328
1.0584053,0.23673528,0.41097638,7.1107135,-25.25739,2.9761662
1.0249121,0.22924381,0.3979711,6.885696,-24.458122,2.881986
0.99251175,0.22199675,0.38539007,6.668019,-23.684929,2.790878
0.96116537,0.21498546,0.37321836,6.4574237,-22.936892,2.702734
0.930836,0.20820166,0.36144155,6.2536616,-22.213123,2.61745
0.90148836,0.2016374,0.3500459,6.0564938,-21.512781,2.5349262
0.87308824,0.1952851,0.3390182,5.8656926,-20.835052,2.455067
0.8456031,0.18913746,0.32834578,5.681039,-20.179157,2.3777804
0.8190016,0.18318747,0.3180165,5.5023212,-19.54435,2.302979
0.7932538,0.1774284,0.30801865,5.3293386,-18.92991,2.2305777
0.7683306,0.17185378,0.29834104,5.161896,-18.335154,2.1604953
0.7442042,0.1664574,0.28897282,4.999808,-17.75941,2.0926535
0.720848,0.16123329,0.27990368,4.842893,-17.20205,2.0269775
0.6982363,0.15617567,0.2711236,4.69098,-16.66245,1.9633948
0.6763442,0.15127903,0.26262292,4.543902,-16.140026,1.9018356
0.6551479,0.14653803,0.25439247,4.4014983,-15.634206,1.8422331
0.63462454,0.14194752,0.24642327,4.2636156,-15.144443,1.7845225
0.6147518,0.13750257,0.23870674,4.130104,-14.670208,1.7286419
0.59550846,0.13319838,0.2312346,4.000821,-14.210992,1.6745309
0.57687396,0.12903036,0.22399886,3.8756282,-13.766305,1.6221317
0.55882835,0.12499408,0.2169918,3.7543921,-13.335671,1.5713888
0.5413526,0.12108524,0.210206,3.636984,-12.918636,1.5222481
0.5244282,0.11729973,0.20363429,3.5232804,-12.514759,1.4746578
0.50803727,0.11363355,0.19726974,3.4131608,-12.123612,1.4285675
0.49216267,0.11008284,0.19110565,3.30651,-11.744786,1.3839291
0.47678772,0.1066439,0.18513559,3.203216,-11.377884,1.3406959
0.46189636,0.10331313,0.17935331,3.103171,-11.022522,1.2988223
0.4474731,0.10008706,0.1737528,3.006271,-10.678331,1.2582651
0.43350297,0.09696234,0.16832824,2.912415,-10.344954,1.218982
0.4199715,0.09393572,0.16307399,2.821506,-10.022042,1.1809323
0.4068646,0.09100409,0.15798461,2.7334497,-9.709266,1.1440766
0.39416885,0.088164404,0.15305488,2.6481555,-9.406299,1.108377
0.3818711,0.08541375,0.1482797,2.5655353,-9.112829,1.0737965
0.36995876,0.08274929,0.14365415,2.4855042,-8.828557,1.0402998
0.35841954,0.08016829,0.1391735,2.4079797,-8.55319,1.0078522
0.34724164,0.077668115,0.13483314,2.3328831,-8.286445,0.9764207
0.33641362,0.07524619,0.13062865,2.2601368,-8.0280485,0.94597304
0.3259244,0.07290006,0.12655571,2.1896667,-7.777738,0.91647804
0.3157633,0.0706273,0.122610174,2.1214013,-7.5352573,0.88790566
0.30591992,0.06842562,0.11878802,2.0552702,-7.300359,0.8602268
0.29638427,0.06629277,0.11508535,1.9912066,-7.072804,0.8334132
0.28714666,0.064226575,0.1114984,1.9291453,-6.8523607,0.8074376
0.27819768,0.06222494,0.10802353,1.8690232,-6.6388054,0.78227365
0.26952824,0.060285836,0.10465721,1.8107791,-6.4319215,0.75789577
0.2611296,0.05840729,0.10139603,1.7543541,-6.2314987,0.7342793
0.25299317,0.056587406,0.09823668,1.6996909,-6.0373344,0.7114002
0.24511077,0.054824334,0.09517596,1.6467344,-5.8492317,0.6892354
0.2374744,0.053116295,0.09221077,1.5954307,-5.6670003,0.66776246
0.23007634,0.05146156,0.089338124,1.5457282,-5.490456,0.6469596
0.22290914,0.04985846,0.086555116,1.4975766,-5.3194203,0.6268059
0.21596554,0.048305374,0.08385893,1.4509273,-5.153721,0.6072809
0.20923853,0.046800733,0.08124685,1.405733,-4.9931903,0.5883651
0.20272134,0.045343023,0.07871624,1.3619484,-4.8376665,0.57003915
0.19640741,0.043930773,0.07626455,1.3195293,-4.686993,0.5522848
0.19029035,0.04256256,0.073889315,1.278433,-4.541018,0.535084
0.18436402,0.041237008,0.071588136,1.2386179,-4.3995943,0.51841956
0.17862244,0.03995278,0.06935869,1.2000442,-4.2625794,0.50227463
0.17305985,0.038708586,0.06719875,1.1626728,-4.1298356,0.48663297
0.16767065,0.037503175,0.06510614,1.1264663,-4.00123,0.47147888
0.1624494,0.03633533,0.06307874,1.0913883,-3.876632,0.4567971
0.15739089,0.03520388,0.061114527,1.0574036,-3.7559173,0.44257286
0.15249,0.034107693,0.059211526,1.0244778,-3.6389647,0.4287919
0.14774184,0.033045664,0.057367824,0.992578,-3.525656,0.41544035
0.14314161,0.032016724,0.055581566,0.96167225,-3.415878,0.40250483
0.1386847,0.03101984,0.05385096,0.9317293,-3.3095202,0.38997233
0.13436666,0.030054016,0.052174274,0.90271926,-3.206476,0.37783027
0.13018313,0.02911828,0.05054982,0.874613,-3.1066418,0.36606646
0.12612993,0.028211692,0.04897597,0.8473822,-3.0099175,0.3546691
0.122202985,0.027333345,0.047451142,0.8209997,-2.9162064,0.3436268
0.11839835,0.026482357,0.045973815,0.79543895,-2.8254142,0.33292842
0.11471222,0.025657875,0.0445425,0.7706743,-2.7374496,0.32256326
0.11114091,0.02485907,0.043155763,0.746681,-2.652225,0.31252095
0.10768081,0.024085147,0.041812215,0.7234349,-2.5696547,0.3027914
0.104328476,0.023335325,0.040510513,0.7009129,-2.4896557,0.29336485
0.101080544,0.022608854,0.039249346,0.67909217,-2.4121482,0.28423187
0.097933754,0.021905007,0.038027454,0.65795106,-2.3370545,0.2753833
0.094884954,0.021223078,0.036843617,0.6374682,-2.2642992,0.26681027
0.0919311,0.020562382,0.03569664,0.61762327,-2.1938095,0.25850424
0.089069225,0.019922262,0.03458538,0.59839624,-2.1255147,0.2504568
0.08629646,0.019302074,0.03350872,0.5797679,-2.0593464,0.24265999
0.083610035,0.018701196,0.03246559,0.5617196,-1.9952385,0.23510593
0.08100725,0.018119028,0.031454936,0.54423326,-1.9331268,0.22778709
0.07848551,0.017554985,0.030475749,0.5272914,-1.872949,0.22069612
0.076042295,0.017008506,0.02952705,0.510877,-1.8146448,0.21382594
0.07367514,0.016479041,0.02860789,0.49497372,-1.758156,0.20716967
0.07138169,0.015966062,0.027717348,0.47956553,-1.7034259,0.20072062
0.069159634,0.015469052,0.026854532,0.4646371,-1.6503998,0.19447237
0.06700677,0.014987516,0.026018579,0.45017344,-1.5990245,0.18841864
0.064920925,0.014520972,0.02520865,0.43616006,-1.5492488,0.1825534
0.06290002,0.014068954,0.024423938,0.42258295,-1.5010227,0.17687075
0.060942035,0.013631007,0.023663655,0.40942857,-1.454298,0.17136501
0.059045002,0.013206694,0.022927042,0.39668366,-1.4090279,0.16603068
0.05720703,0.012795592,0.02221336,0.38433555,-1.3651671,0.16086242
0.055426273,0.012397287,0.021521898,0.37237185,-1.3226719,0.15585504
0.053700957,0.012011383,0.02085196,0.36078063,-1.2814996,0.15100357
0.05202935,0.011637491,0.020202879,0.34955022,-1.241609,0.14630312
0.05040978,0.011275239,0.019574003,0.33866942,-1.2029601,0.141749
0.048840627,0.010924265,0.018964706,0.32812732,-1.1655145,0.13733664
0.047320325,0.010584217,0.018374376,0.31791344,-1.1292346,0.13306165
0.04584735,0.010254753,0.017802423,0.3080175,-1.094084,0.12891974
0.044420224,0.009935546,0.017248273,0.29842964,-1.0600277,0.12490676
0.043037526,0.009626276,0.016711375,0.28914022,-1.0270315,0.12101871
0.041697875,0.009326633,0.01619119,0.28013998,-0.9950625,0.11725169
0.04039992,0.0090363175,0.0156872,0.2714199,-0.9640886,0.11360193
0.039142374,0.00875504,0.015198896,0.26297128,-0.934079,0.11006579
0.03792397,0.008482518,0.014725792,0.25478566,-0.9050035,0.10663972
