ax,ay,az,gx,gy,gz
-0.104546405,0.20909281,-1.7354704,9.765543,-32.40484,-10.986464
0.17111185,-0.013461479,-2.0987904,7.5554304,-34.850143,-6.76951
0.5549968,-0.38656896,-2.2307098,8.723213,-32.700397,0.053333905
0.7155914,-0.5871719,-2.5421762,11.922062,-30.492624,1.8929814
0.7038335,-0.6970385,-2.9657614,18.252476,-30.70224,-0.6962858
0.6815199,-0.71308464,-3.4291725,24.807287,-33.53026,-3.3789952
0.65589756,-0.6748217,-3.9553833,28.174753,-37.656322,-4.2469206
0.6065238,-0.6303584,-4.4378915,29.151834,-42.941277,-4.019978
0.5453056,-0.5965906,-4.8514037,30.005274,-48.372173,-3.918011
0.4444226,-0.57870305,-5.202409,31.313467,-54.3379,-4.314694
0.3319865,-0.5332124,-5.453654,32.059067,-62.38066,-4.794624
0.2951141,-0.4629793,-5.539148,32.084045,-70.5151,-5.2386894
0.32556817,-0.4277879,-5.4782896,31.748064,-78.00953,-5.244406
0.40495276,-0.3705231,-5.2904353,30.867603,-84.46517,-4.3741293
0.5001116,-0.29463038,-5.027419,29.19025,-89.93264,-2.8912215
0.5697457,-0.21444353,-4.7365155,27.666214,-95.01844,-2.126153
0.64427954,-0.21479683,-4.333121,26.446577,-99.66839,-1.3972437
0.76425564,-0.18726777,-3.825539,24.234982,-102.99717,0.15746394
0.8802311,-0.08467894,-3.2779083,21.256872,-104.88135,1.9208726
0.9616661,0.057279244,-2.743202,18.02468,-105.67004,2.7296133
1.0305722,0.13980101,-2.2015972,15.2293,-105.27223,2.4845493
1.1121725,0.12611121,-1.6689217,12.674728,-104.13583,2.349284
1.2106286,0.08682015,-1.1797662,10.305556,-102.09019,2.6666682
1.3242106,0.06465227,-0.7313707,8.062959,-99.15209,3.2268517
1.4428478,0.04547861,-0.30244172,5.8097544,-95.214554,3.6552489
1.5540307,0.013336002,0.094654724,3.2515695,-89.82045,3.7344313
1.6210747,-0.026257975,0.41080576,0.6867084,-83.76712,3.6789384
1.6451404,-0.045739446,0.6622409,-1.4920305,-77.32841,3.7668128
1.5742942,-0.043769725,0.63372225,-1.4277778,-73.998344,3.604599
1.5078523,-0.041922458,0.60697645,-1.3675196,-70.875305,3.4524698
1.4454048,-0.040186245,0.5818386,-1.3108839,-67.94001,3.3094862
1.3865926,-0.038551103,0.5581641,-1.2575452,-65.17559,3.1748261
1.3311002,-0.037008263,0.535826,-1.2072173,-62.567223,3.0477674
1.2786492,-0.03554998,0.51471215,-1.1596478,-60.101807,2.9276724
1.2289926,-0.034169387,0.49472323,-1.1146127,-57.767742,2.8139758
1.181911,-0.03286039,0.47577083,-1.0719129,-55.55471,2.7061749
1.1372083,-0.031617533,0.45777607,-1.0313706,-53.4535,2.6038208
1.0947092,-0.030435937,0.44066828,-0.99282676,-51.455864,2.5065122
1.0542557,-0.029311221,0.42438403,-0.9561383,-49.554386,2.4138877
1.0157062,-0.028239435,0.4088661,-0.9211764,-47.742393,2.325622
0.97893184,-0.027217008,0.39406285,-0.8878246,-46.013847,2.2414215
0.94381654,-0.026240705,0.3799274,-0.8559774,-44.363285,2.1610193
0.9102545,-0.025307588,0.3664172,-0.82553893,-42.78573,2.0841737
0.8781494,-0.024414979,0.3534935,-0.7964218,-41.276657,2.010664
0.84741336,-0.02356043,0.34112093,-0.7685463,-39.831936,1.9402888
0.8179658,-0.022741709,0.329267,-0.7418394,-38.44778,1.872864
0.78973293,-0.021956757,0.31790203,-0.7162341,-37.12072,1.8082203
0.7626468,-0.021203687,0.30699867,-0.6916688,-35.847557,1.7462022
0.73664486,-0.020480761,0.29653174,-0.66808677,-34.62536,1.6866665
0.71166927,-0.01978637,0.28647798,-0.64543563,-33.4514,1.629481
0.6876666,-0.01911903,0.27681586,-0.6236668,-32.323177,1.574523
0.66458726,-0.018477362,0.26752543,-0.60273546,-31.238354,1.5216792
0.6423853,-0.017860085,0.25858817,-0.58259976,-30.194769,1.4708441
0.6210178,-0.01726601,0.24998681,-0.5632209,-29.190409,1.42192
0.600445,-0.016694028,0.24170534,-0.54456276,-28.2234,1.374815
0.58062947,-0.016143102,0.23372872,-0.5265914,-27.291988,1.3294443
0.56153643,-0.015612263,0.22604296,-0.5092754,-26.394537,1.2857277
0.54313326,-0.015100605,0.21863487,-0.49258494,-25.529512,1.2435907
0.5253894,-0.014607275,0.21149218,-0.47649243,-24.695477,1.2029632
0.508276,-0.014131475,0.20460328,-0.46097174,-23.891075,1.1637794
0.491766,-0.013672452,0.1979573,-0.4459983,-23.115038,1.1259772
0.47583398,-0.013229499,0.19154398,-0.43154907,-22.366167,1.0894983
0.4604559,-0.012801945,0.18535362,-0.41760218,-21.643333,1.0542877
0.445609,-0.012389161,0.17937711,-0.40413707,-20.945469,1.0202934
0.43127185,-0.011990548,0.17360577,-0.39113426,-20.271563,0.9874661
0.4174241,-0.011605543,0.16803145,-0.3785753,-19.62066,0.95575947
0.4040465,-0.011233608,0.16264637,-0.3664427,-18.991858,0.92512923
0.39112073,-0.010874237,0.1574432,-0.3547199,-18.384295,0.8955337
0.37862945,-0.010526944,0.1524149,-0.34339118,-17.797152,0.86693287
0.36655614,-0.010191273,0.14755487,-0.3324415,-17.229656,0.83928907
0.35488507,-0.009866785,0.14285676,-0.32185665,-16.681068,0.8125663
0.3436013,-0.009553065,0.13831453,-0.311623,-16.150682,0.7867303
0.3326905,-0.009249714,0.13392247,-0.30172765,-15.637831,0.76174825
0.32213908,-0.008956356,0.12967506,-0.29215825,-15.141871,0.7375891
0.31193405,-0.008672628,0.12556708,-0.28290296,-14.662191,0.714223
0.30206293,-0.008398184,0.12159353,-0.27395055,-14.198208,0.69162154
0.29251385,-0.008132692,0.11774961,-0.26529017,-13.749362,0.66975737
0.28327543,-0.007875838,0.11403073,-0.25691155,-13.315118,0.6486045
0.27433673,-0.0076273186,0.11043253,-0.24880476,-12.894962,0.62813795
0.26568735,-0.0073868423,0.106950775,-0.24096036,-12.488406,0.6083338
0.25731725,-0.00715413,0.10358144,-0.23336925,-12.094976,0.58916914
0.24921681,-0.0069289156,0.10032066,-0.2260227,-11.714222,0.57062185
0.24137682,-0.006710942,0.09716471,-0.21891235,-11.34571,0.5526709
0.23378837,-0.0064999624,0.09411004,-0.21203016,-10.989021,0.53529596
0.226443,-0.00629574,0.0911532,-0.20536838,-10.643758,0.51847756
0.21933246,-0.006098048,0.0882909,-0.19891962,-10.309534,0.50219685
0.21244891,-0.005906666,0.08551997,-0.19267671,-9.985978,0.48643583
0.20578475,-0.005721384,0.08283736,-0.18663278,-9.672735,0.4711772
0.1993327,-0.0055419994,0.08024012,-0.1807812,-9.369462,0.45640418
0.19308572,-0.005368316,0.07772544,-0.17511562,-9.075829,0.44210073
0.18703704,-0.005200146,0.07529058,-0.16962987,-8.791515,0.4282513
0.18118013,-0.005037308,0.07293292,-0.16431807,-8.516216,0.414841
0.17550872,-0.0048796274,0.07064994,-0.15917449,-8.249637,0.40185538
0.17001675,-0.004726935,0.06843917,-0.15419362,-7.991491,0.38928062
0.16469835,-0.0045790686,0.06629828,-0.1493702,-7.7415037,0.37710327
0.15954787,-0.0044358713,0.06422499,-0.14469907,-7.4994106,0.36531043
0.1545599,-0.0042971917,0.062217113,-0.14017531,-7.264955,0.35388967
0.14972915,-0.004162884,0.060272526,-0.13579416,-7.03789,0.3428289
0.14505057,-0.0040328065,0.058389194,-0.131551,-6.8179774,0.33211654
0.14051925,-0.003906823,0.05656514,-0.1274414,-6.6049867,0.32174137
0.13613047,-0.0037848027,0.05479846,-0.12346107,-6.3986955,0.31169254
0.13187963,-0.003666618,0.053087316,-0.119605854,-6.198889,0.30195957
0.12776235,-0.0035521458,0.051429927,-0.11587176,-6.005359,0.29253238
0.12377433,-0.003441268,0.049824577,-0.112254895,-5.817906,0.28340116
0.11991146,-0.0033338696,0.048269603,-0.10875154,-5.6363354,0.27455652
0.11616976,-0.00322984,0.046763405,-0.10535807,-5.4604597,0.26598927
0.112545356,-0.0031290716,0.045304425,-0.10207099,-5.2900977,0.25769064
0.10903454,-0.003031461,0.043891165,-0.09888691,-5.1250744,0.24965206
0.10563369,-0.0029369083,0.042522177,-0.09580257,-4.9652205,0.24186526
0.10233933,-0.002845316,0.041196052,-0.09281481,-4.8103724,0.23432231
0.09914809,-0.0027565905,0.039911438,-0.08992057,-4.6603703,0.22701544
0.09605669,-0.0026706413,0.03866702,-0.08711689,-4.5150623,0.2199372
0.093062006,-0.0025873808,0.037461523,-0.08440091,-4.3742995,0.21308039
0.09016096,-0.0025067236,0.036293726,-0.08176986,-4.2379384,0.20643798
0.08735061,-0.0024285882,0.035162438,-0.07922106,-4.10584,0.20000324
0.08462809,-0.0023528945,0.034066506,-0.076751925,-3.9778707,0.19376959
0.08199064,-0.0022795661,0.033004817,-0.07435994,-3.8538995,0.18773071
0.07943558,-0.0022085283,0.031976294,-0.07204267,-3.7338011,0.1818805
0.07696032,-0.0021397094,0.03097989,-0.06979778,-3.6174536,0.176213
0.07456235,-0.002073039,0.030014602,-0.067622975,-3.504739,0.17072245
0.072239235,-0.0020084502,0.02907945,-0.06551608,-3.3955433,0.16540332
0.06998864,-0.0019458774,0.028173488,-0.06347494,-3.2897558,0.16025022
0.067808285,-0.0018852574,0.027295796,-0.061497502,-3.18727,0.15525794
0.06569596,-0.001826529,0.026445493,-0.059581764,-3.087982,0.15042143
0.063649535,-0.0017696328,0.02562172,-0.0577258,-2.9917915,0.14573582
0.061666947,-0.0017145114,0.024823641,-0.055927727,-2.8986018,0.14119637
0.059746195,-0.0016611093,0.024050456,-0.054185737,-2.8083186,0.1367985
0.057885345,-0.0016093724,0.023301382,-0.052498072,-2.720851,0.13253778
0.056082524,-0.001559249,0.022575667,-0.050863035,-2.6361108,0.12840994
0.05433591,-0.0015106883,0.021872578,-0.049278975,-2.5540128,0.12441078
0.05264375,-0.0014636415,0.021191409,-0.0477443,-2.4744742,0.120536305
0.051004335,-0.0014180614,0.020531476,-0.046257466,-2.397415,0.116782606
0.049416024,-0.001373902,0.01989211,-0.044816975,-2.3227577,0.11314592
0.04787722,-0.0013311189,0.019272672,-0.04342138,-2.2504275,0.10962257
0.04638637,-0.0012896691,0.01867254,-0.042069282,-2.1803513,0.106209025
0.044941977,-0.001249511,0.018091109,-0.040759314,-2.112459,0.10290186
0.04354259,-0.0012106042,0.017527796,-0.039490167,-2.0466821,0.09969775
0.042186808,-0.0011729097,0.016982034,-0.038260568,-1.9829546,0.09659346
0.040873267,-0.0011363897,0.016453277,-0.037069276,-1.9212128,0.0935859
0.039600648,-0.0011010075,0.015940992,-0.035915095,-1.8613945,0.09067204
0.038367677,-0.0010667273,0.015444667,-0.034796875,-1.8034397,0.087848954
0.037173115,-0.0010335152,0.014963803,-0.033713486,-1.7472903,0.08511381
0.03601576,-0.0010013375,0.014497917,-0.032663845,-1.6928898,0.08246386
0.034894455,-0.0009701622,0.014046543,-0.0316469,-1.6401839,0.07989645
0.03380808,-0.0009399579,0.013609229,-0.030661628,-1.5891197,0.077409014
0.032755535,-0.0009106943,0.013185535,-0.029707043,-1.5396458,0.07499905
0.031735774,-0.0008823421,0.012775036,-0.028782189,-1.4917127,0.07266414
0.030747771,-0.0008548729,0.012377322,-0.027886137,-1.4452726,0.07040195
0.029790537,-0.00082825916,0.0119919935,-0.027017992,-1.4002786,0.068210214
0.028863113,-0.0008024742,0.0116186645,-0.026176881,-1.3566858,0.066086724
0.02796457,-0.00077749224,0.011256961,-0.025361963,-1.3144505,0.064029366
0.027094007,-0.0007532882,0.010906521,-0.02457242,-1.2735305,0.06203607
0.026250552,-0.0007298378,0.010566995,-0.023807466,-1.2338846,0.060104847
0.025433362,-0.00070711767,0.010238039,-0.023066329,-1.1954732,0.058233757
0.024641614,-0.0006851049,0.009919327,-0.02234827,-1.158258,0.05642093
0.023874521,-0.00066377764,0.009610538,-0.021652568,-1.1222013,0.054664545
0.023131313,-0.0006431144,0.009311364,-0.020978527,-1.0872675,0.05296285
0.022411244,-0.00062309444,0.009021505,-0.020325474,-1.0534213,0.051314138
0.021713594,-0.0006036979,0.008740671,-0.019692754,-1.0206288,0.04971676
0.021037666,-0.0005849052,0.00846858,-0.019079734,-0.98885745,0.04816911
0.020382782,-0.0005666976,0.008204961,-0.018485798,-0.95807517,0.04666965
0.019748287,-0.0005490569,0.007949549,-0.017910354,-0.9282513,0.045216873
0.019133547,-0.00053196546,0.007702089,-0.017352827,-0.89935595,0.043809325
0.018537944,-0.000515406,0.007462333,-0.016812654,-0.8713601,0.042445596
0.017960886,-0.0004993622,0.007230041,-0.016289301,-0.84423596,0.041124325
0.01740179,-0.0004838178,0.007004981,-0.01578224,-0.8179562,0.03984419
0.016860101,-0.00046875735,0.0067869276,-0.015290965,-0.79249454,0.038603906
0.016335275,-0.00045416577,0.006575662,-0.014814984,-0.7678256,0.03740223
0.015826788,-0.0004400284,0.006370974,-0.014353821,-0.74392456,0.03623797
0.015334131,-0.0004263312,0.006172658,-0.013907013,-0.7207676,0.035109952
0.01485681,-0.00041306033,0.0059805154,-0.013474116,-0.6983316,0.03401705
0.0143943485,-0.00040020264,0.0057943542,-0.013054695,-0.67659396,0.03295817
0.013946284,-0.00038774518,0.0056139887,-0.012648331,-0.6555331,0.031932253
0.013512167,-0.00037567553,0.0054392377,-0.012254616,-0.6351278,0.030938273
0.013091564,-0.0003639816,0.0052699265,-0.011873159,-0.6153577,0.029975235
0.012684055,-0.00035265172,0.005105886,-0.011503574,-0.5962031,0.029042177
0.01228923,-0.00034167455,0.004946952,-0.011145496,-0.5776447,0.028138164
0.0119066965,-0.00033103905,0.004792966,-0.010798564,-0.5596641,0.027262291
0.011536071,-0.00032073463,0.0046437727,-0.010462432,-0.5422431,0.026413685
0.011176983,-0.00031075097,0.004499224,-0.010136764,-0.52536446,0.025591495
