ax,ay,az,gx,gy,gz
-0.16545604,0.48727718,-4.7636795,-0.8327348,5.215502,9.820999
0.191635,1.0393703,-4.773838,4.536922,1.5964961,3.1642792
0.6199478,0.94617885,-4.6969767,3.4259026,0.60712487,1.7076802
0.72229016,0.6266611,-4.826241,5.5905156,-1.4691192,1.7080033
0.7176948,0.33688274,-5.086245,10.870174,-6.0565033,0.60031635
0.7256888,0.13152918,-5.3610835,13.889343,-12.074129,-0.5495599
0.68562686,-0.051808145,-5.627258,15.086634,-18.783434,-1.4555125
0.65237236,-0.17938292,-5.8834577,16.036335,-26.286625,-1.9322238
0.6193899,-0.19744034,-6.188753,16.731197,-33.87807,-2.3119712
0.53337145,-0.16713992,-6.5049844,17.084871,-42.140987,-3.040145
0.42513746,-0.10687104,-6.804773,16.834812,-51.549107,-4.0375237
0.36912608,-0.045713402,-7.0215535,16.325665,-61.594814,-4.8833303
0.36719197,0.0062916204,-7.1468897,15.418127,-71.595184,-5.318768
0.39780733,0.013701955,-7.1333847,14.356885,-81.7536,-5.409774
0.44073284,-0.09620773,-6.994088,14.114268,-90.92942,-4.915137
0.45379597,-0.22550906,-6.7675633,14.297017,-99.18235,-3.1449876
0.43982098,-0.2181648,-6.455342,13.578163,-107.61516,0.26044258
0.48369178,-0.039196476,-6.0152655,9.011076,-116.515625,4.5138
0.6854294,0.0395164,-5.355436,3.9216712,-123.62707,7.729304
0.9658989,0.034355253,-4.6092696,0.88362443,-127.52396,8.952904
1.2639717,0.03428243,-3.8738399,-1.0201823,-128.52966,9.242539
1.537353,0.05409145,-3.2069526,-3.4377792,-127.70352,10.007695
1.7591827,0.046099145,-2.6134028,-6.45398,-125.445885,10.992058
1.9225498,-0.051531672,-2.106342,-8.629339,-122.33926,11.399325
2.0472834,-0.18105175,-1.6863699,-9.568124,-118.46853,11.582209
2.1199567,-0.28221053,-1.3537024,-10.368777,-114.32791,12.025102
2.1580968,-0.3296146,-1.0609044,-11.251274,-109.95231,13.107864
2.1768372,-0.30393448,-0.7895492,-12.413263,-105.18404,14.180108
2.176629,-0.26509368,-0.5435015,-13.064119,-99.70553,14.484135
2.1519973,-0.22360298,-0.34427646,-13.576642,-93.7897,14.130457
2.110624,-0.18261866,-0.19881581,-14.129132,-87.63546,13.851095
2.0481002,-0.1411313,-0.10601149,-14.696617,-81.653244,13.806537
1.954848,-0.06788823,-0.041257594,-15.090396,-76.22367,13.451852
1.8740358,-0.084994085,-0.033957653,-14.296148,-70.863205,12.815951
1.7880534,-0.09431476,-0.03209521,-13.563168,-66.03008,12.1689205
1.689482,-0.09070164,-0.052318778,-13.221291,-62.5746,11.370715
1.5845066,-0.05829917,-0.105711885,-13.282211,-60.630318,10.065741
1.463404,-0.022859802,-0.1611446,-13.773489,-60.458397,8.460121
1.4018984,-0.03953103,-0.15308338,-13.823875,-59.818867,7.3896465
1.3718085,-0.05731913,-0.13157967,-13.505868,-58.274296,6.7980623
1.3514317,-0.059226476,-0.11504891,-13.5163,-55.890434,6.8215213
1.3147919,-0.06395333,-0.11917233,-13.429912,-53.17186,6.7848063
1.2588636,-0.07800116,-0.13381688,-12.568192,-50.669014,6.604311
1.2018008,-0.076943,-0.15357478,-11.926863,-48.444897,6.5931196
1.1471713,-0.07473994,-0.165945,-11.603423,-46.495068,6.887893
1.1039712,-0.07047474,-0.17147215,-11.444116,-44.775433,7.278451
1.0698359,-0.0584468,-0.17249133,-11.485186,-43.04458,7.5265017
1.0303648,-0.048245016,-0.1719943,-11.583202,-41.371475,7.5405126
0.9983377,-0.050998308,-0.16203894,-11.664817,-39.54475,7.491535
0.95492846,-0.049269233,-0.1581725,-11.797017,-37.740463,7.5707183
0.8991459,-0.037286963,-0.16413641,-12.156684,-36.40171,7.731202
0.85564494,-0.029927304,-0.1547681,-12.432875,-35.32133,7.9223967
0.8241873,-0.012791855,-0.1316915,-12.651663,-34.133194,7.947272
0.7900868,0.002435534,-0.10948227,-12.801323,-32.943016,7.812848
0.7499663,0.019481847,-0.09333313,-12.785676,-31.859776,7.6005383
0.70798963,0.048210155,-0.08094662,-12.867299,-30.860731,7.4181876
0.66833276,0.07888337,-0.06838695,-12.907802,-29.84994,7.162218
0.62981373,0.10310634,-0.061426423,-12.880836,-28.871672,6.435407
0.5975096,0.097091675,-0.059256304,-12.575675,-27.934427,5.6030397
0.5716628,0.084255,-0.060290284,-12.275397,-27.078205,4.8837657
0.5538735,0.07001948,-0.058331918,-12.00354,-26.289852,4.314749
0.5427652,0.05550475,-0.05365592,-11.804472,-25.558743,3.8625197
0.53915316,0.037164025,-0.045878354,-11.714903,-24.819536,3.5246484
0.5425983,0.012814602,-0.033597358,-11.835079,-23.972021,3.4070663
0.54006946,-0.018066749,-0.025727611,-11.815611,-23.061327,3.3249233
0.5264209,-0.041600566,-0.023970358,-11.73214,-22.246387,3.3279119
0.5118576,-0.056675933,-0.020446027,-11.718035,-21.517796,3.3875241
0.5002175,-0.0698665,-0.0113783665,-11.755142,-20.684923,3.5661757
0.49082103,-0.07833411,0.0036441756,-11.890424,-19.749454,4.0039325
0.47912428,-0.08438197,0.016346501,-11.824628,-18.751858,4.345284
0.45823342,-0.08628019,0.019487606,-11.490895,-17.738913,4.4168186
0.42220157,-0.083536856,0.015211491,-10.828628,-17.064276,4.2259235
0.3911713,-0.07799458,0.014283903,-10.186315,-16.5515,3.9715748
0.37648162,-0.07307886,0.022489188,-9.816789,-16.080765,3.9191628
0.37652972,-0.07545229,0.034511715,-9.50387,-15.319969,3.9419665
0.37065867,-0.07822273,0.04038147,-9.104611,-14.603403,3.9311767
0.3631772,-0.08058665,0.042424247,-8.610324,-13.8774,3.8184712
0.351707,-0.078041494,0.041084368,-8.338386,-13.439112,3.6978729
0.340609,-0.07557891,0.039787963,-8.07527,-13.015044,3.5811875
0.32987016,-0.07319604,0.038533513,-7.82067,-12.604702,3.4682786
0.31947806,-0.0708901,0.03731957,-7.5742908,-12.207608,3.3590155
0.3094208,-0.068658456,0.036144737,-7.33585,-11.823309,3.2532723
0.29968685,-0.066498555,0.035007674,-7.1050744,-11.4513645,3.1509292
0.29026526,-0.06440797,0.0339071,-6.881704,-11.091355,3.0518699
0.28114542,-0.062384337,0.03284177,-6.665488,-10.742876,2.9559832
0.2723172,-0.06042541,0.03181051,-6.4561853,-10.4055395,2.8631625
0.26377076,-0.058529012,0.030812167,-6.2535634,-10.078971,2.7733047
0.25549674,-0.05669306,0.029845642,-6.0574,-9.762811,2.686311
0.24748604,-0.054915536,0.028909879,-5.8674803,-9.456714,2.6020858
0.23972996,-0.05319451,0.028003858,-5.683596,-9.160345,2.5205379
0.23222008,-0.051528122,0.0271266,-5.50555,-8.873384,2.4415786
0.22494832,-0.049914565,0.026277153,-5.3331485,-8.595523,2.3651228
0.21790685,-0.048352107,0.02545461,-5.166207,-8.32646,2.291088
0.21108815,-0.046839084,0.02465809,-5.004547,-8.06591,2.2193959
0.20448497,-0.04537388,0.023886744,-4.8479967,-7.8135953,2.1499696
0.19809029,-0.043954942,0.023139754,-4.696389,-7.5692472,2.0827353
0.19189735,-0.04258077,0.02241633,-4.549565,-7.3326087,2.0176225
0.18589963,-0.041249912,0.021715712,-4.407369,-7.103429,1.954562
0.18009083,-0.03996098,0.021037163,-4.2696524,-6.8814683,1.8934878
0.17446487,-0.038712613,0.02037997,-4.13627,-6.6664944,1.834336
0.16901587,-0.03750352,0.01974345,-4.0070834,-6.458282,1.7770449
0.16373815,-0.03633243,0.019126939,-3.8819578,-6.2566147,1.7215546
0.15862624,-0.035198126,0.018529793,-3.7607627,-6.061283,1.6678076
0.15367483,-0.03409944,0.0179514,-3.643373,-5.872084,1.6157482
0.1488788,-0.033035234,0.017391155,-3.5296674,-5.6888223,1.5653223
0.1442332,-0.032004405,0.016848482,-3.4195278,-5.511309,1.5164782
0.13973324,-0.031005895,0.016322825,-3.3128414,-5.3393607,1.4691653
0.13537431,-0.030038673,0.015813638,-3.2094982,-5.172801,1.4233351
0.1311519,-0.029101752,0.015320403,-3.1093922,-5.0114584,1.3789405
0.12706171,-0.028194165,0.01484261,-3.0124207,-4.855168,1.335936
0.12309956,-0.027314987,0.014379774,-2.9184844,-4.703769,1.2942775
0.11926137,-0.02646332,0.01393142,-2.8274877,-4.557108,1.2539226
0.115543246,-0.025638292,0.01349709,-2.7393372,-4.4150343,1.2148299
0.11194139,-0.024839064,0.013076342,-2.653943,-4.2774034,1.1769598
0.108452134,-0.02406482,0.012668747,-2.5712187,-4.1440754,1.1402735
0.105071925,-0.023314776,0.012273891,-2.4910796,-4.014914,1.1047338
0.10179734,-0.022588165,0.011891373,-2.4134448,-3.8897884,1.0703045
0.09862505,-0.021884255,0.011520804,-2.338235,-3.7685714,1.0369508
0.095551826,-0.021202328,0.011161809,-2.265374,-3.6511405,1.0046388
0.092574574,-0.020541694,0.010814023,-2.1947882,-3.5373762,0.9733357
0.08969027,-0.019901684,0.010477095,-2.1264062,-3.4271636,0.94300985
0.08689599,-0.019281652,0.010150683,-2.0601585,-3.3203912,0.9136306
0.08418891,-0.01868097,0.009834459,-1.9959782,-3.216951,0.88516825
0.081566304,-0.01809903,0.009528101,-1.9338007,-3.1167383,0.857594
0.07902552,-0.017535247,0.009231302,-1.8735629,-3.0196521,0.83088
0.076564,-0.01698905,0.008943761,-1.8152043,-2.9255946,0.80499935
0.07417925,-0.01645989,0.008665188,-1.7586658,-2.8344705,0.7799259
0.07186887,-0.015947232,0.008395303,-1.7038906,-2.7461884,0.7556344
0.069630526,-0.0154505605,0.008133833,-1.6508234,-2.660659,0.73210037
0.06746198,-0.014969373,0.007880516,-1.5994108,-2.5777965,0.7093001
0.06536104,-0.014503188,0.0076350966,-1.549601,-2.4975173,0.6872107
0.06332559,-0.014051536,0.007397327,-1.5013438,-2.4197404,0.6658098
0.06135359,-0.013613961,0.007166969,-1.4545909,-2.344388,0.64507604
0.059443045,-0.0131900245,0.0069437907,-1.4092952,-2.2713842,0.62498844
0.057592046,-0.012779299,0.006727568,-1.3654112,-2.2006555,0.6055269
0.055798728,-0.012381374,0.0065180827,-1.3228946,-2.1321309,0.5866718
0.05406129,-0.011995848,0.0063151256,-1.2817028,-2.0657413,0.5684043
0.05237799,-0.011622334,0.006118492,-1.2417946,-2.0014205,0.5507059
0.050747134,-0.011260457,0.005927985,-1.2031296,-1.9391037,0.533559
0.049167085,-0.010909855,0.0057434128,-1.1656693,-1.8787284,0.51694626
0.04763626,-0.010570175,0.005564591,-1.129376,-1.820234,0.50085104
0.046153124,-0.010241076,0.0053913393,-1.0942134,-1.7635616,0.48525724
0.044716183,-0.00992223,0.0052234842,-1.060146,-1.7086545,0.47014916
0.043324005,-0.009613314,0.005060858,-1.0271397,-1.6554579,0.4555117
0.041975185,-0.00931402,0.004903297,-0.9951615,-1.603918,0.4413301
0.04066838,-0.009024047,0.0047506434,-0.9641792,-1.5539834,0.42759025
0.03940227,-0.008743106,0.004602744,-0.9341619,-1.505604,0.4142783
0.038175594,-0.008470915,0.0044594505,-0.9050795,-1.4587314,0.40138093
0.03698712,-0.0082072,0.0043206196,-0.8769027,-1.4133184,0.3888852
0.035835654,-0.007951697,0.0041861124,-0.8496034,-1.3693197,0.37677863
0.034720045,-0.007704152,0.004055794,-0.8231542,-1.3266912,0.36504906
0.033639178,-0.0074643143,0.003929533,-0.7975287,-1.28539,0.35368472
0.03259197,-0.007231945,0.003807204,-0.7727011,-1.2453749,0.3426743
0.031577367,-0.0070068114,0.0036886842,-0.74864656,-1.2066059,0.3320067
0.030594356,-0.006788688,0.0035738547,-0.725341,-1.169044,0.32167125
0.029641954,-0.0065773563,0.0034626005,-0.7027612,-1.1326517,0.31165764
0.028719205,-0.0063726045,0.0033548106,-0.68088436,-1.0973924,0.3019558
0.027825188,-0.0061742277,0.0032503766,-0.6596887,-1.0632311,0.29255602
0.026959006,-0.005982028,0.0031491942,-0.63915294,-1.0301332,0.28344893
0.026119793,-0.0057958113,0.0030511622,-0.6192566,-0.998066,0.27462536
0.025306707,-0.005615393,0.0029561822,-0.5999797,-0.9669971,0.26607653
0.024518935,-0.005440592,0.0028641594,-0.58130294,-0.9368955,0.25779384
0.02375569,-0.0052712327,0.0027750013,-0.5632077,-0.907731,0.24976902
0.023016205,-0.0051071458,0.0026886193,-0.54567575,-0.8794745,0.24199404
0.022299744,-0.0049481676,0.0026049265,-0.5286896,-0.85209775,0.23446111
0.021605587,-0.004794139,0.002523839,-0.51223236,-0.82557327,0.22716269
0.020933041,-0.004644905,0.0024452761,-0.4962874,-0.7998745,0.22009149
0.020281432,-0.0045003174,0.002369159,-0.48083884,-0.77497584,0.21324043
0.01965011,-0.0043602306,0.0022954112,-0.4658712,-0.7508522,0.20660265
0.019038439,-0.0042245053,0.0022239597,-0.45136952,-0.72747964,0.2001715
0.01844581,-0.004093005,0.0021547321,-0.4373193,-0.7048347,0.19394056
0.01787163,-0.003965598,0.00208766,-0.42370647,-0.68289465,0.1879036
0.017315324,-0.0038421575,0.0020226755,-0.4105174,-0.6616376,0.18205456
0.016776338,-0.0037225597,0.001959714,-0.3977389,-0.6410423,0.17638761
0.016254129,-0.003606685,0.0018987127,-0.38535818,-0.6210881,0.17089707
0.015748175,-0.0034944173,0.0018396103,-0.3733629,-0.6017551,0.16557744
0.015257972,-0.0033856446,0.0017823476,-0.361741,-0.5830239,0.16042341
0.014783029,-0.0032802578,0.0017268675,-0.3504809,-0.56487584,0.15542983
0.014322871,-0.0031781516,0.0016731145,-0.33957133,-0.54729265,0.15059169
0.013877037,-0.003079224,0.0016210347,-0.32900134,-0.5302568,0.14590415
