ax,ay,az,gx,gy,gz
-0.5390958,-1.1791017,-0.9572814,-80.17891,-77.01616,-46.55315
-0.28223446,-1.99,-0.7246314,-69.283585,-70.91397,-52.69712
0.30858862,-2.636655,-0.37282288,-56.1244,-60.91652,-57.600803
0.9451891,-3.0842478,-0.10357784,-50.46827,-53.818195,-58.292187
1.6027789,-3.548267,0.16980754,-47.037624,-47.004917,-54.3896
2.273546,-4.057104,0.44190478,-44.283604,-39.044205,-46.984653
2.9066062,-4.4991155,0.6630029,-40.080055,-27.164558,-35.922913
3.2707093,-4.780969,0.63799506,-33.455708,-15.007088,-26.239
3.381818,-4.927238,0.4414763,-24.795063,-4.371987,-18.561255
3.345367,-4.967351,0.17809236,-16.374844,3.6527634,-11.671417
3.224821,-4.9017453,-0.093347326,-9.01777,9.642737,-4.525373
3.0323703,-4.756513,-0.38296434,-2.971991,13.134376,3.115756
2.7754874,-4.4787755,-0.6928905,1.7433163,14.606201,10.112459
2.5430248,-4.154402,-0.97712517,5.878389,14.856779,16.194313
2.3527827,-3.8082507,-1.2398897,9.669806,14.121496,21.180906
2.2088313,-3.456146,-1.4668175,13.506259,12.931803,25.259861
2.1043139,-3.1025593,-1.660753,17.323746,11.515853,28.869461
2.0028043,-2.7216172,-1.8206779,20.70856,10.006364,32.394367
1.8775902,-2.324531,-1.9689807,23.327341,7.744794,35.748886
1.7368084,-1.9575393,-2.088699,25.230024,5.188064,38.51126
1.5838356,-1.6414955,-2.1926923,26.953947,2.4986837,40.76451
1.4348551,-1.3447373,-2.2785416,28.291788,-0.6621904,42.47524
1.3101236,-1.0156468,-2.311671,28.98924,-4.1244264,43.99023
1.2171218,-0.65079725,-2.2927759,28.552082,-7.9751487,45.59147
1.1474155,-0.2902692,-2.211572,27.219429,-11.784928,47.141678
1.0756791,0.05130063,-2.0861094,25.481579,-15.342279,48.25045
1.00356,0.40105784,-1.9247272,23.443804,-18.279116,47.506943
0.96908194,0.7920998,-1.7162144,21.131165,-20.329641,45.029816
0.965461,1.1645551,-1.4984741,18.278776,-21.77768,41.374302
0.9889493,1.497523,-1.2655712,14.454831,-22.57413,37.327835
1.0242783,1.7507949,-1.0262936,9.591857,-22.53913,33.299618
1.0421702,1.8888613,-0.8110364,4.1129546,-21.689087,28.36352
1.0592523,1.8372002,-0.6531534,-0.87101734,-20.320337,22.61421
1.0980161,1.6296105,-0.5693345,-4.8483267,-18.891918,16.828825
1.1820936,1.2877597,-0.52528244,-8.284256,-17.58939,11.906359
1.2924587,0.83127743,-0.50021744,-10.77974,-16.062105,8.398876
1.3662705,0.34029496,-0.49812898,-11.914081,-14.494251,6.603794
1.3686895,-0.12020777,-0.5197623,-12.07328,-13.062988,5.9509964
1.3259088,-0.49561116,-0.55694634,-11.408364,-11.966762,6.3490973
1.252927,-0.78562826,-0.60675085,-10.203401,-11.189968,7.159171
1.1642619,-1.0056273,-0.65563744,-8.700344,-10.884285,8.5197735
1.0730684,-1.1350275,-0.69184434,-7.238838,-10.922979,10.41449
0.99629205,-1.1603452,-0.7065361,-5.770326,-10.94044,12.186352
0.94461054,-1.1347619,-0.70711684,-4.305287,-10.950653,13.41629
0.9251287,-1.0890241,-0.6927624,-2.9433205,-10.787421,14.226341
0.93071896,-1.0477057,-0.6818244,-1.4433298,-10.36589,15.131808
0.9377354,-1.0254184,-0.6956023,0.13806489,-9.835349,16.261177
0.9315022,-1.0360364,-0.7533049,2.0424845,-9.330542,17.415842
0.9038346,-1.0486842,-0.8367576,4.343055,-9.168507,18.4785
0.86783355,-1.0314714,-0.92128974,6.7307787,-9.4453535,19.542679
0.8409923,-0.97907704,-0.9928493,8.912268,-10.018132,20.865946
0.8223993,-0.9079906,-1.0557156,10.731239,-10.97447,22.500877
0.80387837,-0.8108429,-1.1125172,12.372993,-12.2798395,24.151129
0.7882822,-0.6691158,-1.1530141,13.863728,-13.828489,25.611456
0.77866584,-0.48969257,-1.1653701,15.064482,-15.479291,26.813278
0.7671924,-0.2807049,-1.1520253,15.912832,-17.147863,27.78351
0.7462065,-0.03293884,-1.1190097,15.935494,-19.148983,28.39325
0.74544597,0.27518958,-1.0351436,15.133199,-21.161795,28.650902
0.7909727,0.6196508,-0.90299076,13.442414,-22.711708,28.49654
0.8755652,0.9744777,-0.7346874,11.024424,-23.236336,27.166739
0.97676164,1.2852527,-0.5591308,8.44785,-22.457788,23.873499
1.0730225,1.5262173,-0.40893155,5.965426,-20.332193,18.747835
1.1054692,1.6680226,-0.31375667,3.275375,-17.89979,13.59325
1.0553148,1.7196121,-0.26646274,-0.11092222,-15.899774,9.155968
0.9633184,1.6947539,-0.25557294,-4.005429,-14.541833,5.4483647
0.8859895,1.6045352,-0.27363196,-8.241246,-14.01024,2.0515323
0.8720169,1.4570972,-0.27482954,-12.239388,-13.38911,-1.556642
0.91437215,1.2476184,-0.25410497,-15.522557,-12.068463,-5.1991234
0.9592958,1.0057387,-0.24126288,-18.020918,-10.154775,-8.50867
0.9828827,0.7515129,-0.2561457,-19.380833,-8.200052,-11.127486
0.9826635,0.51276195,-0.29552683,-20.153238,-6.8060093,-13.060495
0.9959966,0.28724325,-0.3345233,-20.876741,-6.0617375,-13.929931
1.0379122,0.06692479,-0.36311722,-21.384436,-5.3362575,-14.136875
1.0787644,-0.13992067,-0.39000818,-21.468912,-4.4430485,-14.017597
1.0994583,-0.31634358,-0.42086327,-21.167774,-3.374197,-13.801686
1.0885897,-0.45851317,-0.4581136,-20.602222,-2.2862396,-13.370725
1.0531329,-0.5514072,-0.49598226,-20.031952,-1.3109745,-12.616165
0.99116313,-0.5933996,-0.531103,-19.588182,-0.42719164,-11.770496
0.9216745,-0.59837264,-0.5658415,-19.01631,0.30466336,-11.006194
0.85806054,-0.58584416,-0.59280324,-18.360952,0.941641,-10.268551
0.8028329,-0.5663483,-0.61227864,-17.553705,1.5753467,-9.587395
0.76534504,-0.541279,-0.6198251,-16.697512,2.3750312,-8.812902
0.7542293,-0.51506525,-0.61464,-16.0167,3.385165,-7.71195
0.7541278,-0.4830906,-0.59968674,-15.72616,4.6468663,-6.3949456
0.7304339,-0.4679124,-0.58084524,-15.23206,4.5008664,-6.1940227
0.70749754,-0.4532195,-0.5626061,-14.753758,4.359535,-5.9995246
0.6852934,-0.43899563,-0.54494923,-14.290725,4.222715,-5.811235
0.6637969,-0.42522508,-0.5278551,-13.84245,4.0902557,-5.6289463
0.6429846,-0.41189283,-0.51130503,-13.408442,3.9620123,-5.45246
0.6228338,-0.3989843,-0.49528104,-12.988229,3.8378448,-5.281583
0.6033227,-0.38648558,-0.47976565,-12.581354,3.717619,-5.11613
0.58443016,-0.37438312,-0.4647422,-12.18738,3.601205,-4.9559226
0.56613594,-0.36266395,-0.4501946,-11.805883,3.488478,-4.8007894
0.54842055,-0.35131556,-0.4361072,-11.436456,3.3793173,-4.650564
0.5312651,-0.34032583,-0.42246503,-11.078705,3.2736065,-4.505087
0.51465124,-0.32968313,-0.40925366,-10.73225,3.171234,-4.364203
0.49856162,-0.31937617,-0.39645907,-10.396726,3.0720909,-4.227764
0.48297915,-0.30939412,-0.3840678,-10.071777,2.9760733,-4.095626
0.46788752,-0.2997265,-0.37206686,-9.757065,2.88308,-3.9676502
0.4532709,-0.29036316,-0.36044365,-9.452258,2.7930138,-3.8437023
0.43911406,-0.28129435,-0.34918603,-9.15704,2.7057805,-3.7236533
0.42540222,-0.27251062,-0.3382823,-8.8711,2.6212895,-3.607378
0.41212115,-0.2640028,-0.3277211,-8.594144,2.5394528,-3.4947555
0.39925706,-0.25576213,-0.3174915,-8.325884,2.4601855,-3.385669
0.38679665,-0.24778007,-0.30758294,-8.066042,2.3834057,-3.280006
0.3747271,-0.24004836,-0.29798514,-7.8143497,2.309034,-3.177657
0.36303592,-0.23255906,-0.28868827,-7.5705485,2.236994,-3.0785167
0.35171112,-0.22530444,-0.2796827,-7.3343873,2.1672118,-2.9824831
0.34074107,-0.21827708,-0.27095926,-7.1056237,2.099615,-2.889458
0.33011448,-0.21146974,-0.26250893,-6.884023,2.0341353,-2.7993455
0.31982055,-0.2048755,-0.25432312,-6.669359,1.9707049,-2.7120535
0.3098487,-0.19848758,-0.24639347,-6.4614115,1.9092593,-2.6274931
0.30018878,-0.19229947,-0.23871183,-6.2599688,1.8497356,-2.5455775
0.2908309,-0.18630488,-0.23127042,-6.0648255,1.7920734,-2.4662237
0.2817656,-0.18049768,-0.22406162,-5.8757825,1.7362138,-2.3893507
0.2729836,-0.17487198,-0.21707813,-5.692648,1.6821,-2.31488
0.26447603,-0.16942206,-0.21031286,-5.5152354,1.629677,-2.2427363
0.2562342,-0.16414239,-0.20375891,-5.3433647,1.5788916,-2.1728463
0.24824978,-0.1590276,-0.19740966,-5.1768622,1.5296924,-2.105139
0.24051468,-0.15407254,-0.19125865,-5.0155587,1.4820294,-2.039546
0.23302107,-0.14927217,-0.1852997,-4.859291,1.4358544,-1.9760007
0.22576135,-0.14462163,-0.17952672,-4.707901,1.3911208,-1.9144388
0.2187282,-0.14011623,-0.17393392,-4.5612354,1.3477831,-1.8547982
0.2119145,-0.1357514,-0.16851562,-4.4191465,1.3057977,-1.7970186
0.20531338,-0.13152276,-0.16326638,-4.2814903,1.2651223,-1.7410417
0.19891818,-0.12742603,-0.15818088,-4.1481285,1.2257156,-1.6868109
0.19272244,-0.12345707,-0.15325399,-4.018926,1.187538,-1.6342714
0.18671992,-0.11961188,-0.14848076,-3.893753,1.1505511,-1.5833706
0.18090458,-0.1158866,-0.14385636,-3.772483,1.1147175,-1.5340569
0.17527056,-0.11227747,-0.13937616,-3.6549942,1.0800011,-1.4862808
0.16981217,-0.10878086,-0.13503562,-3.5411685,1.046367,-1.4399942
0.16452396,-0.105393246,-0.13083039,-3.4308906,1.0137815,-1.3951504
0.15940057,-0.10211123,-0.12675624,-3.3240502,0.98221165,-1.3517045
0.15443686,-0.0989315,-0.122809075,-3.2205398,0.9516257,-1.3096126
0.14962783,-0.09585087,-0.118984915,-3.1202552,0.921993,-1.2688324
0.14496867,-0.092866234,-0.11527993,-3.0230958,0.8932837,-1.2293233
0.14045471,-0.089974605,-0.11169039,-2.928964,0.86546904,-1.191045
0.13608138,-0.087173074,-0.108212695,-2.837765,0.838521,-1.1539596
0.13184431,-0.08445883,-0.104843356,-2.7494075,0.81241256,-1.1180296
0.12773924,-0.08182914,-0.10157898,-2.6638029,0.78711754,-1.0832189
0.12376206,-0.079281375,-0.098416306,-2.580865,0.7626105,-1.0494927
0.11990877,-0.07681298,-0.09535215,-2.5005107,0.73886687,-1.0168172
0.11617552,-0.07442147,-0.09238344,-2.4226594,0.7158629,-0.9851594
0.11255854,-0.07210446,-0.0895072,-2.347233,0.69357544,-0.95448774
0.10905423,-0.06985961,-0.08672055,-2.2741559,0.67198217,-0.9247714
0.10565905,-0.06768468,-0.08402069,-2.2033548,0.6510614,-0.89598066
0.10236963,-0.065577485,-0.08140492,-2.134759,0.63079226,-0.8680865
0.09918264,-0.06353592,-0.07887061,-2.0682993,0.6111543,-0.8410611
0.09609491,-0.06155793,-0.07641522,-2.0039096,0.592128,-0.8148774
0.09310333,-0.05964154,-0.0740363,-1.9415247,0.57369417,-0.789509
0.09020491,-0.05778483,-0.07173146,-1.8810828,0.55583435,-0.76493067
0.08739675,-0.05598593,-0.0694984,-1.8225229,0.5385307,-0.74111766
0.08467603,-0.05424305,-0.06733486,-1.7657865,0.5217659,-0.7180462
0.08204003,-0.052554443,-0.0652387,-1.7108169,0.5055231,-0.6956931
0.0794861,-0.05091841,-0.063207805,-1.6575588,0.48978606,-0.674036
0.0770117,-0.049333323,-0.061240148,-1.6059589,0.47453904,-0.6530533
0.07461434,-0.047797587,-0.059333753,-1.5559658,0.45976675,-0.63272387
0.07229163,-0.046309665,-0.057486717,-1.5075291,0.4454544,-0.6130274
0.07004123,-0.044868074,-0.055697188,-1.4606006,0.43158764,-0.5939442
0.067860894,-0.043471362,-0.053963374,-1.4151332,0.41815263,-0.5754552
0.065748446,-0.04211814,-0.052283544,-1.3710815,0.4051359,-0.5575418
0.063701764,-0.040807042,-0.050656013,-1.3284011,0.39252445,-0.54018605
0.061718807,-0.03953677,-0.04907915,-1.2870495,0.38030562,-0.5233707
0.05979758,-0.03830604,-0.04755138,-1.2469853,0.3684672,-0.5070789
0.057936165,-0.03711363,-0.04607117,-1.2081685,0.35699734,-0.49129423
0.056132704,-0.03595834,-0.044637047,-1.17056,0.34588456,-0.476001
0.054385383,-0.034839015,-0.04324757,-1.1341224,0.33511776,-0.46118385
0.05269246,-0.033754535,-0.04190135,-1.0988191,0.3246861,-0.446828
0.051052243,-0.03270382,-0.040597036,-1.0646149,0.31457925,-0.43291909
0.049463086,-0.031685814,-0.03933333,-1.0314755,0.30478698,-0.41944313
0.047923397,-0.030699497,-0.03810896,-0.9993678,0.2952996,-0.4063867
0.046431642,-0.029743886,-0.03692271,-0.9682595,0.2861075,-0.39373675
0.044986326,-0.028818022,-0.035773385,-0.9381197,0.27720162,-0.38148057
0.043586,-0.027920982,-0.03465984,-0.90891814,0.26857296,-0.36960593
0.04222927,-0.027051866,-0.03358096,-0.8806256,0.2602129,-0.35810095
0.04091477,-0.026209803,-0.03253566,-0.8532138,0.25211307,-0.3469541
0.039641194,-0.025393955,-0.031522904,-0.82665527,0.24426539,-0.33615425
0.03840726,-0.024603505,-0.030541673,-0.8009235,0.23666202,-0.3256906
0.03721174,-0.02383766,-0.029590989,-0.7759928,0.22929531,-0.31555265
0.03605343,-0.023095654,-0.028669896,-0.75183815,0.22215794,-0.3057303
