ax,ay,az,gx,gy,gz
0.08727352,1.8881989,-1.2791024,41.725834,-1.7200156,-29.630268
0.6064922,1.5450479,-1.209966,32.604904,6.776828,-26.854244
0.41663477,1.5809039,-1.5163382,28.379864,12.279429,-18.728159
-0.16689722,1.6658757,-1.9476064,22.164476,10.304216,-9.167647
-0.70043796,1.6968775,-2.3148742,17.947716,3.490147,-4.805832
-1.0050324,1.7486961,-2.6041713,14.199748,-5.541654,-5.4347215
-1.0288632,1.8870422,-2.8225195,9.864587,-13.636337,-9.328361
-0.90195805,2.03771,-2.9639537,4.5444565,-18.733671,-11.615305
-0.845188,2.0991268,-3.0954964,-0.99624866,-21.115213,-11.695542
-0.9614032,2.0822034,-3.2705615,-4.8429575,-23.391184,-11.368381
-1.123478,2.0879674,-3.4582722,-8.524444,-27.300985,-11.452293
-1.1767657,2.1282039,-3.6026413,-11.665463,-32.321133,-13.846808
-1.1230729,2.165545,-3.6974268,-14.967561,-37.563683,-17.517162
-0.9844827,2.136601,-3.7237453,-18.577179,-42.148342,-21.755623
-0.8434827,2.0427463,-3.7009997,-21.971376,-45.9042,-25.757906
-0.76979494,1.9329824,-3.6727016,-24.935833,-49.337765,-27.538088
-0.76255965,1.8438421,-3.62478,-28.461254,-53.37623,-26.28387
-0.73140514,1.7752409,-3.508804,-32.15906,-57.543457,-25.204063
-0.62805325,1.672131,-3.3456042,-35.264893,-61.09278,-25.44179
-0.48546055,1.5545819,-3.1709595,-38.01343,-63.95312,-26.426374
-0.32106084,1.4700257,-2.9979892,-40.509933,-66.23314,-27.016846
-0.16407698,1.4103976,-2.8294885,-43.19677,-68.42764,-26.143782
0.047525868,1.321508,-2.6049037,-46.13812,-70.279305,-25.679752
0.2917358,1.1500652,-2.335182,-48.556877,-71.28046,-26.275513
0.53368616,0.91712695,-2.0481267,-50.090958,-71.27219,-27.430876
0.73874587,0.7078301,-1.7687739,-50.736877,-70.475815,-28.224018
0.89486635,0.58892107,-1.5083472,-51.104393,-69.26198,-27.906801
1.0441705,0.52763,-1.2383806,-51.264763,-67.75052,-27.514093
1.1861018,0.45895898,-0.95961154,-51.464718,-66.04461,-27.93254
1.3387923,0.31196344,-0.6672793,-51.340565,-63.87288,-29.1905
1.5170094,0.12307152,-0.3780674,-50.64502,-60.83833,-30.458769
1.722611,-0.006933037,-0.10487809,-49.965145,-56.463017,-30.314657
1.959869,-0.023144087,0.18678765,-50.505898,-51.174404,-29.743856
2.2290053,-0.08275708,0.4916669,-52.169,-44.48252,-30.079784
2.4524238,-0.2558937,0.7307103,-52.835682,-36.912205,-30.727291
2.5363047,-0.50165075,0.8653013,-51.07114,-29.362694,-30.321777
2.527594,-0.6444812,0.947667,-48.389263,-22.871029,-29.43349
2.5241709,-0.62450683,1.0075486,-45.930805,-16.932022,-29.302933
2.5688045,-0.58409786,1.0548289,-43.71024,-10.915764,-29.97708
2.6265855,-0.5790117,1.0757507,-41.520527,-4.4349694,-30.775745
2.66592,-0.61503583,1.0593224,-38.996323,2.6688318,-31.332127
2.582989,-0.6444847,0.96314055,-34.757824,8.847913,-30.834375
2.3796933,-0.6033602,0.83682674,-31.661806,13.078123,-29.920223
2.2125576,-0.53566355,0.742167,-28.92839,16.354,-30.156563
2.0841897,-0.49279916,0.6487087,-26.347828,19.141966,-31.282207
2.0079417,-0.5076096,0.55034184,-23.873327,22.006054,-32.68092
1.9559627,-0.5667144,0.4353919,-21.724215,25.360865,-33.297237
1.8342409,-0.67119545,0.2756877,-19.18092,28.386797,-33.051178
1.6622266,-0.77149445,0.104135424,-17.111904,30.353128,-32.10744
1.4987991,-0.86295205,-0.06308628,-15.387388,31.403723,-31.318907
1.3627163,-0.95651317,-0.22976364,-13.890592,31.915241,-31.125147
1.2255924,-1.0766472,-0.40496406,-12.496449,31.71675,-31.303455
1.063314,-1.2377816,-0.5906089,-11.120626,30.852915,-31.054958
0.8956928,-1.4102228,-0.78394467,-9.593515,29.164835,-30.166113
0.75093514,-1.5824128,-0.97118396,-8.189913,26.742878,-29.005018
0.6374125,-1.7158899,-1.1534116,-6.7251825,23.956873,-27.904818
0.5261218,-1.7763659,-1.3459955,-5.8396945,20.612118,-26.80057
0.4212119,-1.8597609,-1.5178238,-5.274242,16.972162,-25.76021
0.32914227,-2.0358574,-1.6475602,-3.8118155,13.315034,-24.721247
0.24874797,-2.2748811,-1.7550648,-1.4967746,9.760037,-23.257938
0.19775897,-2.5387387,-1.849911,1.886508,6.6475835,-21.07107
0.15059596,-2.731966,-1.9623657,6.9389205,3.8181252,-17.463861
0.09825355,-2.815962,-2.0845168,11.4842825,0.76747787,-13.252223
0.059133537,-2.829925,-2.193968,15.638447,-2.549756,-9.28841
0.03644637,-2.8275466,-2.2717986,19.18259,-6.1537023,-5.8141537
0.05187651,-2.8811831,-2.3125515,22.935001,-9.587586,-2.8876941
0.08793448,-2.9504972,-2.347306,27.538057,-12.517589,0.6142463
0.13915381,-2.8773823,-2.4072468,31.753288,-15.381832,5.358855
0.24137971,-2.6164756,-2.4503222,34.417477,-18.317436,11.18956
0.4308076,-2.2101896,-2.4182656,35.096905,-20.84535,16.599407
0.6887477,-1.8672374,-2.2829063,34.90447,-22.05697,20.00227
0.9311337,-1.70698,-2.1193209,35.85756,-21.349836,21.629084
1.0684029,-1.502039,-2.01268,37.409054,-20.388927,25.02783
1.189765,-0.91228986,-1.9479274,36.89431,-20.00362,29.663866
1.3730989,-0.17000982,-1.8616676,33.71658,-19.814634,32.952785
1.5738825,0.38111782,-1.7217445,29.729273,-18.994442,34.245136
1.6996107,0.7237978,-1.5683985,25.690687,-17.674274,33.922775
1.7514188,0.7854223,-1.4188094,21.361315,-16.105986,33.437416
1.8011044,0.67941666,-1.2607893,17.470922,-14.446051,32.63847
1.8709048,0.5292971,-1.0976368,14.401137,-12.3202505,31.628666
1.937979,0.4642329,-0.9552836,12.138073,-9.60936,30.268824
1.9708136,0.52208644,-0.85831517,9.78652,-6.643773,28.359074
1.9527622,0.5760981,-0.80152255,7.374229,-3.89449,26.190098
1.891371,0.5579866,-0.77632415,7.142397,-3.7720544,25.36673
1.8319461,0.5404553,-0.75193286,6.9179907,-3.6535406,24.569733
1.7744212,0.52348447,-0.72832143,6.700759,-3.5388157,23.79822
1.7187326,0.5070554,-0.7054637,6.4904613,-3.4277532,23.051334
1.664819,0.49114993,-0.6833345,6.286867,-3.3202305,22.328255
1.6126212,0.4757507,-0.6619097,6.089752,-3.21613,21.628187
1.5620825,0.46084094,-0.6411658,5.898903,-3.1153383,20.95037
1.5131481,0.44640446,-0.6210804,5.7141113,-3.017746,20.294071
1.4657652,0.43242568,-0.6016318,5.535179,-2.9232478,19.65858
1.419883,0.41888964,-0.58279914,5.3619137,-2.8317425,19.043217
1.3754523,0.40578184,-0.5645623,5.1941295,-2.7431324,18.447319
1.3324258,0.3930883,-0.5469019,5.0316486,-2.6573226,17.870256
1.290758,0.3807956,-0.5297991,4.874298,-2.5742223,17.311417
1.2504048,0.3688907,-0.51323587,4.721912,-2.493744,16.770205
1.2113236,0.35736108,-0.49719477,4.5743294,-2.4158025,16.246056
1.1734735,0.34619462,-0.48165894,4.4313955,-2.3403158,15.738416
1.1368146,0.33537966,-0.46661213,4.2929606,-2.2672055,15.246754
1.1013088,0.32490486,-0.4520386,4.15888,-2.1963947,14.770557
1.0669192,0.31475934,-0.43792316,4.029014,-2.1278098,14.30933
1.03361,0.30493253,-0.42425117,3.9032283,-2.0613794,13.862592
1.0013466,0.29541427,-0.41100848,3.7813916,-1.9970348,13.42988
0.9700956,0.2861947,-0.39818132,3.6633785,-1.9347094,13.010748
0.9398248,0.2772643,-0.38575652,3.5490668,-1.874339,12.604762
0.91050303,0.2686139,-0.37372124,3.4383388,-1.8158611,12.211504
0.88210016,0.26023456,-0.3620631,3.3310807,-1.7592158,11.830569
0.85458696,0.2521177,-0.35077015,3.2271824,-1.7043449,11.461567
0.8279353,0.24425499,-0.33983082,3.1265376,-1.6511922,11.104119
0.8021178,0.2366384,-0.32923388,3.0290427,-1.5997031,10.75786
0.77710813,0.22926013,-0.31896853,2.9345987,-1.5498251,10.422436
0.7528808,0.22211266,-0.30902427,2.843109,-1.5015073,10.097503
0.72941107,0.21518868,-0.299391,2.75448,-1.4547005,9.782731
0.70667505,0.20848116,-0.29005885,2.6686218,-1.409357,9.477799
0.68464965,0.20198329,-0.28101838,2.5854468,-1.3654305,9.182398
0.6633124,0.19568844,-0.2722604,2.504871,-1.3228766,8.896227
0.64264166,0.18959023,-0.26377597,2.4268122,-1.281652,8.618996
0.6226166,0.18368249,-0.25555655,2.351191,-1.241715,8.350422
0.60321677,0.1779592,-0.24759379,2.2779315,-1.2030249,8.090235
0.5844226,0.1724146,-0.23987961,2.2069588,-1.1655427,7.838171
0.56621504,0.16704306,-0.23240623,2.1382015,-1.1292305,7.5939746
0.5485757,0.16183917,-0.22516607,2.0715902,-1.0940516,7.357399
0.5314868,0.15679765,-0.21815182,2.0070572,-1.0599703,7.1282053
0.514931,0.1519134,-0.2113564,1.9445374,-1.0269523,6.9061627
0.49889168,0.14718154,-0.20477298,1.883968,-0.9949643,6.6910458
0.48335263,0.14259724,-0.19839488,1.8252878,-0.963974,6.482639
0.46829817,0.13815592,-0.19221568,1.7684375,-0.9339501,6.280731
0.45371315,0.1338531,-0.18622918,1.71336,-0.9048625,6.0851197
0.43958288,0.12968443,-0.18042932,1.6599997,-0.8766818,5.895607
0.42589313,0.12564571,-0.17481029,1.6083031,-0.84937966,5.7120023
0.4126301,0.121732906,-0.16936642,1.5582179,-0.8229286,5.5341215
0.39978054,0.11794206,-0.16409223,1.5096939,-0.797302,5.361785
0.38733143,0.11426936,-0.15898241,1.4626822,-0.77247417,5.19482
0.3752703,0.11071112,-0.15403186,1.4171357,-0.74842006,5.033058
0.36358503,0.107263766,-0.14923556,1.3730085,-0.72511554,4.876337
0.35226387,0.103923835,-0.14458874,1.3302563,-0.7025372,4.7244997
0.34129545,0.100687966,-0.14008668,1.2888362,-0.68066233,4.5773935
0.33066878,0.09755292,-0.1357249,1.2487067,-0.659469,4.4348702
0.32037318,0.09451553,-0.13149902,1.2098273,-0.638936,4.2967877
0.3103983,0.09157278,-0.12740478,1.1721592,-0.61904263,4.1630063
0.30073416,0.08872169,-0.12343807,1.1356645,-0.59976894,4.033393
0.29137105,0.08595942,-0.11959493,1.1003065,-0.58109564,3.9078164
0.2822996,0.083283186,-0.1158715,1.0660498,-0.563004,3.7861516
0.2735107,0.08069031,-0.11226404,1.0328603,-0.54547584,3.6682763
0.26499552,0.07817818,-0.10876894,1.0007043,-0.52849364,3.5540724
0.25674555,0.0757443,-0.10538269,0.9695499,-0.5120403,3.4434252
0.2487525,0.07338622,-0.1021019,0.93936574,-0.49609938,3.336224
0.24100839,0.071101576,-0.09892328,0.91012156,-0.4806549,3.2323613
0.23350543,0.068888076,-0.09584365,0.88178813,-0.4656914,3.1317332
0.22623613,0.06674351,-0.092859924,0.85433704,-0.45119387,3.0342383
0.21919319,0.06466572,-0.089969106,0.8277407,-0.43714777,2.9397798
0.21236956,0.06265263,-0.087168306,0.80197257,-0.42353907,2.8482625
0.2057584,0.06070223,-0.08445472,0.7770068,-0.4103541,2.759595
0.1993531,0.058812555,-0.08182563,0.75281847,-0.3975797,2.6736882
0.19314724,0.05698172,-0.0792784,0.72938323,-0.38520306,2.5904562
0.18713461,0.055207893,-0.07681048,0.7066777,-0.37321177,2.5098157
0.18130918,0.053489294,-0.0744194,0.6846791,-0.36159384,2.4316862
0.17566513,0.0518242,-0.07210276,0.6633654,-0.35033762,2.3559892
0.1701968,0.050210953,-0.06985826,0.64271533,-0.33943188,2.282649
0.16489872,0.04864793,-0.06768364,0.62270814,-0.32886565,2.2115922
0.1597656,0.047133572,-0.06557671,0.60332394,-0.3186284,2.1427476
0.15479228,0.04566636,-0.063535385,0.58454317,-0.3087099,2.0760465
0.14997381,0.044244822,-0.061557613,0.56634706,-0.29910016,2.0114217
0.14530534,0.042867545,-0.059641413,0.5487175,-0.2897896,1.9488091
0.1407822,0.041533146,-0.057784867,0.5316368,-0.28076887,1.8881457
0.13639988,0.040240288,-0.055986118,0.5150878,-0.272029,1.8293707
0.13215399,0.038987678,-0.054243367,0.499054,-0.26356122,1.7724257
0.12804028,0.03777406,-0.052554872,0.48351938,-0.25535706,1.7172533
0.12405463,0.036598228,-0.05091894,0.46846834,-0.24740827,1.6637986
0.120193064,0.035458997,-0.049333934,0.45388585,-0.23970695,1.6120079
0.1164517,0.034355234,-0.047798272,0.43975735,-0.23224537,1.5618293
0.11282681,0.03328583,-0.046310417,0.42606863,-0.22501607,1.513213
0.10931476,0.032249715,-0.044868875,0.41280606,-0.21801183,1.46611
0.105912045,0.031245856,-0.04347221,0.39995638,-0.21122561,1.4204733
0.10261525,0.030273246,-0.042119022,0.38750666,-0.20465066,1.3762574
0.099421084,0.029330913,-0.04080796,0.3754445,-0.19828038,1.3334178
0.09632635,0.028417913,-0.039537705,0.36375785,-0.1921084,1.2919118
0.093327954,0.027533336,-0.038306996,0.352435,-0.18612854,1.2516978
0.09042289,0.026676292,-0.037114598,0.34146458,-0.18033484,1.2127357
