ax,ay,az,gx,gy,gz
2.9409356,1.118192,-0.3172756,66.75061,30.795734,-4.9382267
3.0010011,1.5088034,-0.7497763,58.443596,43.92443,-4.7375264
2.2893894,2.2615204,-1.5545317,48.077534,46.12053,-1.8653806
1.3962358,3.0256824,-2.2516136,31.556314,38.326214,1.4452461
0.686473,3.1914837,-2.6731396,23.379026,27.548822,1.148052
0.48102173,3.202657,-2.8730283,19.944445,19.020163,-3.0519252
0.5127041,3.1921442,-3.008615,18.265194,13.204147,-8.1828375
0.6659277,3.2197723,-3.1458902,16.552849,10.1566105,-13.098774
0.7513791,3.2688153,-3.331854,12.056869,7.443383,-16.868643
0.67239076,3.2214644,-3.5729966,7.060742,3.9244292,-19.446615
0.5663936,3.127213,-3.7962978,2.234796,-0.398267,-21.116932
0.49984944,2.9983957,-3.9883077,-2.0908506,-5.2857995,-22.946917
0.51268816,2.8627224,-4.115507,-5.9159226,-10.351932,-25.471846
0.6056519,2.74623,-4.1665187,-9.458248,-14.413462,-28.215025
0.68902594,2.6968687,-4.194336,-13.579114,-17.700748,-29.948395
0.7078897,2.6461012,-4.225555,-18.34631,-20.820251,-30.89291
0.6577308,2.5277693,-4.251715,-22.620564,-24.471537,-31.761631
0.6268086,2.3918357,-4.2225533,-25.95807,-28.455784,-33.230145
0.6512723,2.3046057,-4.142135,-28.651283,-32.47509,-35.45486
0.75853413,2.2646847,-3.9889944,-31.176323,-35.791245,-37.56967
0.8668887,2.2584684,-3.7972686,-34.115604,-38.512096,-39.2963
0.9544923,2.2356105,-3.5572429,-37.688557,-40.615322,-40.817204
1.0048554,2.1427917,-3.2922297,-41.375736,-42.29428,-42.283615
1.0396141,1.9658275,-3.0221508,-44.336014,-43.978184,-43.801445
1.1456757,1.7507166,-2.7050562,-45.95438,-45.494953,-45.491436
1.330199,1.5840353,-2.3348832,-46.999664,-46.119183,-46.898903
1.5437087,1.4498078,-1.9183874,-48.15107,-45.512882,-47.964157
1.7322254,1.277593,-1.4884722,-49.23096,-43.687473,-48.764896
1.8665751,1.0550563,-1.0870533,-49.978466,-40.86513,-49.151356
1.9202768,0.7645623,-0.7408499,-49.687782,-37.86795,-49.253647
1.9616388,0.49091068,-0.4037801,-48.37059,-34.820892,-49.2689
2.0403056,0.25385967,-0.06277377,-46.591194,-31.457006,-49.293198
2.1610756,0.022305699,0.27122965,-44.369957,-27.279089,-49.10361
2.300288,-0.21728435,0.55847776,-41.459953,-21.446976,-48.2534
2.4016366,-0.4504397,0.74844086,-38.062614,-14.650395,-46.68285
2.420537,-0.61595654,0.8521268,-34.542175,-7.6684284,-44.45721
2.3789499,-0.7432304,0.91725206,-30.922607,-1.1569909,-42.173225
2.319718,-0.8236453,0.9525213,-27.182632,4.928548,-40.48309
2.2607136,-0.8690743,0.9521695,-23.76252,10.869992,-39.384052
2.2074478,-0.90954983,0.90949106,-20.574774,16.824211,-38.298817
2.1079383,-0.9223467,0.7979237,-17.64875,22.444551,-36.978474
1.9480274,-0.91139364,0.6618317,-15.156869,27.261799,-35.52722
1.7489265,-0.9322533,0.52123374,-12.744844,31.10633,-34.18792
1.5424207,-0.99608386,0.3751001,-9.791692,33.856144,-32.95413
1.3602961,-1.0091363,0.21174727,-6.7871523,35.867046,-31.792164
1.2001235,-0.9680919,0.02897157,-4.230979,37.312187,-30.67255
1.0387917,-0.9100674,-0.16908003,-2.4817452,38.072018,-29.565397
0.86892164,-0.891167,-0.36498654,-1.2599279,38.208557,-28.37134
0.6887014,-0.9418596,-0.561848,0.0024823118,37.371998,-26.944138
0.5331237,-1.0299822,-0.75307465,1.7137629,35.87108,-25.459454
0.41072315,-1.0815856,-0.94282186,3.613629,33.879005,-23.904982
0.30924162,-1.0902585,-1.1337608,5.159799,31.367445,-22.141981
0.2194685,-1.0904503,-1.3153702,6.208791,28.472197,-20.162575
0.1345,-1.118642,-1.4861617,6.9503565,25.005653,-18.139816
0.058223587,-1.1720887,-1.653153,7.644137,21.130192,-16.204407
0.0018168312,-1.2396727,-1.8138316,8.437255,17.071081,-14.253614
-0.035532586,-1.3136052,-1.9678626,9.283762,12.971319,-11.9163475
-0.05868554,-1.3822117,-2.1105273,9.959644,8.861657,-8.861414
-0.04549733,-1.4350641,-2.2147913,10.732944,5.2880483,-5.0425625
-0.017663956,-1.4169841,-2.2802694,11.116945,2.169461,-1.4289824
0.013540604,-1.381384,-2.318265,10.660669,-0.4704216,1.1352985
0.017281204,-1.4432832,-2.3512046,10.252017,-3.0554402,2.876203
-0.016209532,-1.5581006,-2.3831606,10.433548,-6.0082097,4.258704
-0.02710121,-1.6792699,-2.3907006,11.372408,-9.116804,6.1031604
0.038119324,-1.7773607,-2.353034,12.375267,-11.886951,8.740514
0.12692924,-1.8158479,-2.2899387,13.283111,-14.397916,12.220673
0.2259278,-1.7450907,-2.2076414,13.473568,-16.690634,15.827207
0.32801268,-1.6523786,-2.112992,13.351058,-18.677433,18.81792
0.40967557,-1.5908874,-2.0228977,13.092301,-20.622807,20.866022
0.46284133,-1.5915926,-1.9304608,13.385204,-22.71134,22.818327
0.5501829,-1.5781054,-1.8140081,14.36599,-24.57093,25.135075
0.6784406,-1.4567382,-1.6877156,15.12988,-25.95932,27.962973
0.8279889,-1.2515508,-1.5532774,15.135917,-26.66419,30.918339
0.95272595,-1.0350441,-1.4261533,14.452611,-26.637352,33.234344
1.0125763,-0.8549158,-1.3217027,14.012158,-26.67713,34.561684
1.0515445,-0.69672567,-1.2155119,13.7560835,-27.049744,34.94941
1.0999899,-0.5712312,-1.0987177,13.656942,-27.483513,34.94051
1.170578,-0.44830334,-0.9777326,13.667051,-27.600542,35.226826
1.2607747,-0.2671696,-0.86458576,13.438025,-27.139826,35.746536
1.3541057,-0.013739481,-0.7621948,12.831545,-26.289923,35.654804
1.4201338,0.22019789,-0.6711118,11.915845,-25.20595,34.612293
1.4570875,0.3946243,-0.5811374,10.7491255,-24.022417,32.809845
1.4907454,0.4860862,-0.48200718,9.483575,-22.631147,30.481634
1.5192364,0.49142796,-0.39149657,8.822759,-20.998625,28.026672
1.5275865,0.4857591,-0.32085115,8.817864,-19.520027,25.830593
1.5346018,0.5131797,-0.25742584,8.402967,-18.136625,24.185791
1.5394475,0.5500818,-0.19272986,7.359636,-16.697771,23.15665
1.4911577,0.53282666,-0.18668427,7.128777,-16.17399,22.430265
1.4444048,0.51612073,-0.18083107,6.9052653,-15.666882,21.727001
1.399138,0.4999458,-0.17516392,6.688858,-15.175889,21.04609
1.355308,0.48428428,-0.16967668,6.47932,-14.700483,20.386791
1.3128678,0.46911934,-0.1643634,6.276426,-14.24015,19.748396
1.2717716,0.4544347,-0.15921839,6.0799575,-13.794397,19.13022
1.2319756,0.4402146,-0.15423617,5.8897047,-13.362745,18.5316
1.1934373,0.42644396,-0.1494114,5.705465,-12.9447365,17.951902
1.156116,0.41310814,-0.14473899,5.527043,-12.5399275,17.390507
1.1199721,0.40019307,-0.14021398,5.35425,-12.147889,16.846825
1.0849675,0.3876851,-0.13583162,5.1869035,-11.7682085,16.32028
1.0510656,0.37557113,-0.1315873,5.024829,-11.400488,15.810321
1.0182308,0.36383843,-0.12747656,4.867855,-11.044341,15.316413
0.9864287,0.3524748,-0.12349513,4.7158194,-10.699397,14.83804
0.9556263,0.34146836,-0.11963885,4.568562,-10.365296,14.374705
0.9257916,0.33080772,-0.11590372,4.4259315,-10.041692,13.925926
0.8968937,0.32048178,-0.11228587,4.287779,-9.728247,13.491239
0.86890256,0.31047988,-0.10878154,4.153962,-9.424639,13.070191
0.8417894,0.30079168,-0.10538714,4.024342,-9.130553,12.66235
0.8155263,0.29140723,-0.10209914,3.898786,-8.845687,12.267295
0.79008615,0.28231686,-0.09891419,3.7771645,-8.569749,11.884621
0.76544297,0.27351126,-0.095829,3.6593525,-8.302453,11.513932
0.74157137,0.26498136,-0.09284042,3.5452297,-8.043528,11.154852
0.71844697,0.25671846,-0.089945376,3.434679,-7.7927065,10.807011
0.6960461,0.24871409,-0.087140925,3.3275874,-7.549734,10.470053
0.674346,0.2409601,-0.08442419,3.2238455,-7.314361,10.143636
0.6533245,0.23344861,-0.08179242,3.1233478,-7.086349,9.827426
0.6329601,0.22617193,-0.079242915,3.025992,-6.8654647,9.521101
0.6132322,0.21912266,-0.0767731,2.9316788,-6.651484,9.22435
0.5941207,0.21229367,-0.07438045,2.8403122,-6.444189,8.936872
0.57560617,0.20567799,-0.072062545,2.7518,-6.24337,8.658373
0.55766994,0.19926894,-0.06981703,2.6660523,-6.048823,8.388573
0.54029375,0.19306001,-0.06764163,2.582982,-5.86035,8.127197
0.52346003,0.18704492,-0.06553415,2.502505,-5.6777616,7.8739815
0.5071518,0.18121758,-0.06349245,2.4245403,-5.500872,7.6286693
0.49135244,0.1755721,-0.061514467,2.3490083,-5.3295035,7.391013
0.47604612,0.17010278,-0.0595982,2.2758334,-5.1634817,7.1607723
0.4612173,0.16480409,-0.057741724,2.2049413,-5.00264,6.937715
0.4468511,0.15967068,-0.055943154,2.1362607,-4.846815,6.721616
0.43293294,0.1546974,-0.054200683,2.0697224,-4.6958504,6.5122566
0.41944885,0.1498792,-0.052512556,2.005259,-4.549594,6.3094263
0.40638524,0.14521126,-0.050877064,1.9428056,-4.407898,6.1129208
0.39372894,0.14068885,-0.049292568,1.8822997,-4.2706203,5.9225426
0.3814672,0.13630743,-0.04775747,1.8236799,-4.137622,5.738099
0.3695877,0.1320626,-0.046270225,1.7668877,-4.0087695,5.5594053
0.35807845,0.12795009,-0.04482934,1.7118655,-3.8839338,5.3862815
0.34692794,0.12396573,-0.04343336,1.6585582,-3.7629886,5.2185535
0.33612496,0.12010556,-0.042080887,1.6069124,-3.6458127,5.0560527
0.3256586,0.11636568,-0.04077056,1.5568758,-3.5322883,4.898616
0.31551838,0.112742335,-0.039501064,1.5083985,-3.4223015,4.7460847
0.3056941,0.10923188,-0.03827112,1.4614316,-3.3157415,4.5983067
0.29617593,0.10583081,-0.037079502,1.415928,-3.2125018,4.455132
0.28695428,0.10253569,-0.035925005,1.3718421,-3.1124783,4.3164186
0.2780199,0.099343225,-0.034806475,1.3291296,-3.0155706,4.1820264
0.26936385,0.09625021,-0.033722784,1.2877476,-2.921682,4.0518203
0.26097745,0.09325354,-0.032672856,1.2476547,-2.8307178,3.9256704
0.25285223,0.09035021,-0.03165563,1.2088106,-2.742587,3.8034496
0.24498013,0.08753732,-0.030670086,1.1711763,-2.6572015,3.6850357
0.23735319,0.08481203,-0.029715238,1.1347142,-2.574475,3.57031
0.2299638,0.08217162,-0.028790127,1.0993878,-2.4943254,3.4591575
0.22280453,0.07961344,-0.02789383,1.0651615,-2.4166715,3.3514664
0.21586822,0.07713493,-0.027025444,1.0320011,-2.3414361,3.2471292
0.20914792,0.0747336,-0.026184103,0.99987334,-2.2685437,3.1460412
0.2026369,0.07240705,-0.025368959,0.96874607,-2.1979213,3.0481012
0.19632863,0.07015295,-0.024579199,0.93858814,-2.129498,2.9532108
0.19021678,0.06796905,-0.023814034,0.90936923,-2.0632052,2.8612754
0.18429525,0.06585314,-0.023072692,0.8810602,-1.9989768,2.7722027
0.1785581,0.06380312,-0.022354433,0.85363257,-1.9367483,2.6859035
0.17299959,0.06181693,-0.02165854,0.82705903,-1.8764572,2.6022913
0.16761415,0.05989258,-0.020984314,0.80131286,-1.8180436,2.5212824
0.16239639,0.05802815,-0.020331081,0.7763683,-1.7614486,2.442796
0.15734108,0.056221765,-0.019698186,0.75220037,-1.7066157,2.366753
0.15244316,0.054471623,-0.019084996,0.7287849,-1.65349,2.293078
0.14769775,0.05277597,-0.018490897,0.7060985,-1.6020184,2.2216964
0.14310007,0.051133107,-0.017915295,0.6841184,-1.5521492,2.1525373
0.13864553,0.049541395,-0.017357612,0.6628226,-1.5038326,2.0855315
0.13432968,0.047999237,-0.016817292,0.6421898,-1.4570203,2.0206115
0.13014819,0.04650509,-0.016293794,0.62219936,-1.4116653,1.9577128
0.12609687,0.045057457,-0.015786594,0.60283124,-1.3677223,1.8967721
0.122171685,0.043654893,-0.015295183,0.5840661,-1.3251474,1.8377287
0.11836869,0.042295992,-0.014819071,0.5658851,-1.2838979,1.7805234
0.11468409,0.040979397,-0.01435778,0.54827017,-1.2439325,1.725099
0.1111142,0.039703786,-0.0139108505,0.53120357,-1.2052112,1.6714
0.107655436,0.038467888,-0.013477833,0.5146683,-1.1676954,1.6193727
0.10430434,0.03727046,-0.013058296,0.49864772,-1.1313475,1.568965
0.101057574,0.03611031,-0.01265182,0.4831259,-1.0961311,1.5201265
0.09791188,0.03498628,-0.012257997,0.46808726,-1.062011,1.4728084
0.09486411,0.033897236,-0.011876433,0.45351678,-1.028953,1.4269632
0.09191121,0.032842096,-0.011506748,0.43939987,-0.9969241,1.3825451
0.08905023,0.031819798,-0.011148571,0.4257224,-0.96589226,1.3395098
0.08627832,0.030829327,-0.0108015435,0.4124707,-0.9358264,1.2978142
0.08359269,0.029869687,-0.010465318,0.39963153,-0.9066965,1.2574165
0.080990665,0.02893992,-0.010139559,0.387192,-0.87847334,1.2182764
