ax,ay,az,gx,gy,gz
-1.961836,3.6718516,-3.4718497,-25.191137,14.870135,73.46521
-1.920938,3.2402432,-3.6096203,-30.811476,2.2012906,63.354958
-0.72039664,3.4347105,-3.2099867,-25.312008,2.5747766,47.141415
0.20923501,3.6272001,-3.0263844,-14.363964,11.791104,30.430988
0.5598047,3.8254552,-3.2526205,-5.616919,20.074265,17.189068
0.49331006,3.8995192,-3.6415846,-3.424853,20.499529,8.021413
0.4822758,3.758145,-3.8648694,-1.132817,18.078943,0.49977005
0.56241584,3.6442738,-3.9901745,1.287481,13.973955,-6.64241
0.72729695,3.5783617,-4.0451307,1.9318485,10.433577,-13.121205
0.8886297,3.513637,-4.059074,1.6604807,7.8971443,-18.72967
0.93073136,3.4818642,-4.092459,-0.78869313,4.7637343,-23.33041
0.83779526,3.389692,-4.1343765,-3.8652492,-0.1320687,-27.083637
0.8323603,3.2307467,-4.0986724,-6.1829205,-5.205314,-31.092226
0.90027434,3.0489388,-4.036311,-8.417624,-9.974003,-34.618538
0.9980262,2.8743265,-3.954919,-10.85161,-14.153351,-37.3059
1.0573636,2.7252543,-3.872171,-13.20025,-18.183908,-39.779423
1.0351505,2.601254,-3.778377,-15.935069,-22.604362,-42.019566
1.0167602,2.4393876,-3.6226301,-18.974627,-27.157282,-44.13949
1.0266482,2.2482162,-3.4441648,-22.00962,-31.301668,-45.897205
1.0782701,2.057917,-3.259782,-24.942606,-35.04422,-47.344345
1.1694436,1.8786621,-3.0344834,-26.990248,-37.56905,-48.778618
1.2254666,1.7903552,-2.7540727,-29.067413,-39.347416,-50.26038
1.2276034,1.6718279,-2.4291852,-31.295815,-40.777298,-51.84419
1.2116361,1.4704431,-2.0824406,-32.80778,-41.794434,-53.181652
1.2286165,1.2440733,-1.735481,-33.552418,-42.208683,-53.921078
1.2883064,1.0555003,-1.3762721,-33.62924,-41.67479,-54.07194
1.3839301,0.9019803,-0.9781749,-33.527603,-40.073135,-54.20135
1.4502,0.72606176,-0.57739836,-33.228626,-37.78882,-54.228134
1.4961406,0.5299461,-0.1906674,-32.57041,-34.794724,-54.000835
1.5008615,0.3102754,0.14412461,-31.587332,-31.530788,-53.17976
1.4999561,0.09428521,0.4352249,-29.801382,-27.770487,-51.71037
1.5063053,-0.07991639,0.68504673,-27.411615,-23.737366,-50.490456
1.5004101,-0.2119079,0.8920318,-24.648684,-19.460463,-49.53234
1.4739143,-0.3149931,1.0588288,-22.231993,-14.934547,-48.338142
1.4120144,-0.4222561,1.172506,-20.223747,-10.381918,-46.68609
1.3148236,-0.5508883,1.2390295,-17.943178,-6.2804704,-44.722206
1.237597,-0.6570977,1.2802926,-15.152259,-2.3724196,-42.924503
1.1856283,-0.69655836,1.3052459,-12.200088,1.3657929,-41.320347
1.1561531,-0.6913273,1.3127013,-9.367484,5.2308087,-40.070824
1.1248838,-0.696142,1.2876282,-6.7708235,9.250926,-38.993935
1.0770603,-0.7230739,1.2196836,-4.2363257,13.112443,-37.87384
1.0073607,-0.7570411,1.1079566,-1.527153,16.44725,-36.626934
0.9514477,-0.7825361,0.99029046,1.0296458,19.233042,-35.37875
0.9339378,-0.80777085,0.876392,3.770347,21.816069,-34.389244
0.9304049,-0.8109989,0.7495699,6.310878,24.241947,-33.444073
0.91120887,-0.79713374,0.6016198,7.974985,26.137695,-32.423985
0.85217935,-0.8318867,0.42294377,9.155432,27.245323,-31.403868
0.7553504,-0.91938436,0.22281781,10.206303,27.14403,-30.328875
0.663045,-1.031951,0.033804767,11.454419,26.172783,-29.186615
0.6133055,-1.1379381,-0.12794709,13.085755,24.813591,-27.793524
0.60051256,-1.2055972,-0.27452767,14.186252,23.509405,-25.699211
0.5989851,-1.2685726,-0.4068105,14.746657,22.413128,-23.427374
0.5614025,-1.3582517,-0.5558128,15.21644,20.995558,-21.137901
0.50660545,-1.445325,-0.72083527,15.727441,18.882128,-18.9893
0.46143243,-1.5046128,-0.88478947,16.164843,16.083002,-16.94485
0.45867905,-1.5533357,-1.0163399,16.547863,13.308378,-14.719869
0.45428324,-1.5924228,-1.128954,16.429192,10.442224,-12.0782585
0.4434589,-1.660511,-1.2200642,16.042793,7.565611,-9.464089
0.42897132,-1.7943413,-1.2921311,16.088963,4.720272,-7.0133505
0.43105692,-1.9458588,-1.3468491,16.813416,2.2165873,-4.057259
0.43479052,-2.0149207,-1.4101944,17.668953,-0.15915336,0.11500112
0.46288598,-1.9835949,-1.466657,17.565151,-2.8452284,4.740333
0.5213856,-2.0011568,-1.4743276,17.212492,-5.5385222,9.603306
0.5629033,-2.0349112,-1.4516172,16.899548,-7.62117,14.906415
0.52600247,-2.0732014,-1.4361538,16.265472,-9.441843,20.526253
0.4447343,-2.0934558,-1.4325848,15.972493,-12.33507,25.23501
0.4240398,-2.0941463,-1.395871,15.965267,-15.538907,28.9604
0.45993218,-2.082273,-1.3316376,16.637768,-18.37678,32.101112
0.5115767,-2.0377758,-1.2689247,17.47092,-20.598814,35.24542
0.5564551,-1.9792067,-1.219598,18.206106,-22.47597,38.802227
0.6117144,-1.8779496,-1.1658335,19.045082,-24.13705,42.450386
0.66758835,-1.6425047,-1.0943941,19.326406,-25.989462,45.253635
0.7509245,-1.4037606,-0.994451,19.02476,-27.62174,47.055256
0.8615819,-1.219026,-0.87261784,18.833683,-28.545967,48.330997
0.9819437,-1.0051601,-0.7652381,18.834517,-28.736042,49.276775
1.0895698,-0.75664777,-0.6800109,18.53593,-28.699713,49.69522
1.2092698,-0.50688547,-0.5848558,17.922958,-28.660711,49.525043
1.3410882,-0.28006086,-0.47176206,16.95403,-28.33769,48.73967
1.471217,-0.096820615,-0.35224023,15.816228,-27.458902,47.638893
1.5837034,0.06191891,-0.245793,14.95578,-26.044733,46.14269
1.6682683,0.23153673,-0.1611809,14.20197,-24.370483,43.6238
1.7404758,0.3507989,-0.085622355,13.512803,-22.486967,40.513546
1.685723,0.33976325,-0.0829288,13.087709,-21.77956,39.239048
1.6327269,0.32908174,-0.08032167,12.676256,-21.09485,38.005444
1.5814284,0.31874233,-0.077798046,12.277982,-20.432072,36.811356
1.53177,0.30873352,-0.07535511,11.892441,-19.790485,35.65544
1.4836967,0.2990442,-0.072990164,11.519207,-19.169378,34.536427
1.4371557,0.2896637,-0.070700586,11.15787,-18.56807,33.45308
1.392096,0.28058174,-0.06848388,10.808033,-17.985897,32.404213
1.3484684,0.27178848,-0.06633764,10.469315,-17.422228,31.388681
1.3062258,0.2632743,-0.064259514,10.141349,-16.876453,30.405386
1.2653226,0.25503013,-0.062247287,9.823781,-16.34798,29.453268
1.2257146,0.247047,-0.060298786,9.516272,-15.8362465,28.531305
1.1873598,0.23931646,-0.058411926,9.218491,-15.340702,27.63851
1.1502172,0.23183025,-0.056584705,8.93012,-14.86082,26.773932
1.1142474,0.22458042,-0.05481518,8.650857,-14.3960905,25.936653
1.0794126,0.21755932,-0.05310148,8.380403,-13.946022,25.12579
1.0456756,0.21075954,-0.051441804,8.118475,-13.510141,24.340488
1.0130014,0.20417394,-0.049834404,7.864797,-13.087991,23.579922
0.9813557,0.19779563,-0.048277598,7.6191044,-12.679128,22.843294
0.9507054,0.19161795,-0.04676976,7.3811393,-12.283125,22.129837
0.92101854,0.18563446,-0.04530932,7.150655,-11.8995695,21.438808
0.8922643,0.17983894,-0.04389476,6.927411,-11.528065,20.769487
0.86441284,0.17422539,-0.042524617,6.711177,-11.168224,20.121181
0.8374354,0.168788,-0.041197468,6.501728,-10.819675,19.493221
0.8113042,0.16352116,-0.03991195,6.2988486,-10.4820595,18.884956
0.7859922,0.15841943,-0.038666725,6.1023297,-10.155028,18.295761
0.76147336,0.15347758,-0.03746053,5.911969,-9.838244,17.72503
0.7377226,0.14869054,-0.036292113,5.727572,-9.531384,17.172176
0.7147155,0.14405337,-0.035160284,5.548948,-9.234133,16.636635
0.6924286,0.13956137,-0.034063883,5.3759155,-8.946185,16.117855
0.67083895,0.1352099,-0.033001788,5.208297,-8.667247,15.615308
0.6499247,0.13099457,-0.031972915,5.045922,-8.397035,15.128481
0.6296645,0.12691104,-0.030976215,4.888624,-8.135272,14.6568775
0.61003757,0.12295517,-0.030010676,4.7362437,-7.8816924,14.200017
0.5910241,0.119122945,-0.029075311,4.588626,-7.6360383,13.757435
0.5726047,0.115410455,-0.028169174,4.4456205,-7.3980594,13.328682
0.55476075,0.11181394,-0.027291343,4.307082,-7.167515,12.913322
0.53747404,0.10832974,-0.026440928,4.172871,-6.944171,12.510935
0.52072716,0.10495435,-0.025617067,4.0428505,-6.7278004,12.121113
0.5045031,0.10168433,-0.024818925,3.916889,-6.518185,11.74346
0.4887854,0.098516375,-0.024045698,3.7948592,-6.3151126,11.377595
0.47355822,0.095447294,-0.023296602,3.6766376,-6.1183777,11.023149
0.45880622,0.09247398,-0.022570878,3.5621052,-5.9277816,10.679762
0.44451442,0.08959342,-0.021867799,3.451146,-5.7431316,10.347088
0.43066847,0.08680271,-0.02118665,3.343648,-5.564242,10.024792
0.4172544,0.08409906,-0.020526744,3.2395027,-5.390931,9.712548
0.4042586,0.08147972,-0.019887421,3.1386056,-5.223026,9.410042
0.39166808,0.07894205,-0.019268032,3.0408545,-5.060356,9.116968
0.3794701,0.07648351,-0.018667957,2.9461513,-4.902758,8.833033
0.36765245,0.07410162,-0.018086588,2.8544004,-4.750074,8.557949
0.35620314,0.07179397,-0.017523343,2.7655098,-4.6021485,8.291441
0.3451107,0.069558255,-0.016977653,2.67939,-4.4588346,8.033239
0.33436403,0.06739222,-0.01644897,2.5959542,-4.3199873,7.783086
0.32395226,0.06529369,-0.015936766,2.5151186,-4.185467,7.540728
0.31386495,0.06326056,-0.015440523,2.4368021,-4.0551386,7.3059225
0.30409193,0.06129078,-0.014959741,2.360926,-3.9288714,7.078434
0.29462346,0.05938237,-0.014493941,2.287414,-3.8065383,6.858033
0.28544998,0.057533424,-0.014042654,2.2161925,-3.688017,6.6444993
0.27656227,0.05574208,-0.013605426,2.1471896,-3.5731878,6.4376183
0.2679515,0.054006543,-0.013181819,2.0803366,-3.4619362,6.237182
0.2596089,0.05232507,-0.012771408,2.015566,-3.35415,6.0429897
0.2515262,0.050695974,-0.012373781,1.9528131,-3.2497213,5.8548465
0.24369526,0.04911762,-0.011988539,1.8920147,-3.1485455,5.672563
0.23610823,0.047588427,-0.011615297,1.8331102,-3.050521,5.495958
0.2287575,0.046106864,-0.011253679,1.7760402,-2.9555495,5.324853
0.22163571,0.044671442,-0.010903324,1.7207476,-2.863536,5.1590767
0.21473572,0.043280724,-0.01056388,1.6671771,-2.7743878,4.9984636
0.20805061,0.041933317,-0.010235008,1.6152748,-2.6880162,4.8428526
0.20157367,0.04062787,-0.009916376,1.564989,-2.604334,4.692087
0.19529845,0.039363075,-0.009607668,1.516269,-2.5232582,4.546017
0.18921863,0.038137667,-0.009308572,1.469066,-2.4447067,4.4044952
0.18332812,0.036950413,-0.00901879,1.423333,-2.3686013,4.26738
0.17762104,0.035800133,-0.008738031,1.379024,-2.2948658,4.134535
0.17209165,0.034685668,-0.008466015,1.3360947,-2.223426,4.005826
0.16673444,0.033605903,-0.008202467,1.2945021,-2.1542108,3.8811247
0.16154404,0.032559756,-0.007947126,1.2542045,-2.0871508,3.7603061
0.15651523,0.031546183,-0.0076997355,1.2151617,-2.0221786,3.6432493
0.15164301,0.03056417,-0.007460047,1.1773344,-1.9592294,3.529837
0.14692247,0.02961273,-0.0072278213,1.1406848,-1.89824,3.4199557
0.1423489,0.028690912,-0.0070028254,1.1051763,-1.8391495,3.3134956
0.13791773,0.027797794,-0.006784835,1.0707734,-1.7818986,3.2103498
0.13362451,0.026932482,-0.006573631,1.0374414,-1.7264302,3.1104155
0.12946495,0.026094109,-0.006369002,1.0051472,-1.6726887,3.0135922
0.12543489,0.025281835,-0.0061707445,0.9738584,-1.6206203,2.9197834
0.1215303,0.024494851,-0.005978659,0.94354373,-1.5701729,2.828895
0.11774726,0.023732366,-0.0057925526,0.9141727,-1.5212959,2.7408361
0.11408199,0.022993619,-0.0056122406,0.88571614,-1.4739407,2.6555188
0.11053083,0.02227787,-0.0054375418,0.8581454,-1.4280596,2.5728574
0.10709022,0.021584403,-0.005268282,0.831433,-1.3836069,2.4927692
0.10375672,0.020912524,-0.005104291,0.8055522,-1.3405379,2.4151742
0.10052699,0.02026156,-0.004945405,0.780477,-1.2988098,2.339995
0.0973978,0.019630862,-0.004791465,0.75618243,-1.2583807,2.267156
0.09436602,0.019019797,-0.0046423175,0.73264414,-1.21921,2.1965845
0.09142862,0.018427754,-0.0044978126,0.7098386,-1.1812588,2.1282098
0.088582665,0.017854141,-0.0043578064,0.687743,-1.144489,2.0619636
0.0858253,0.017298386,-0.0042221583,0.6663352,-1.1088638,1.9977797
0.08315377,0.016759928,-0.004090733,0.6455939,-1.0743476,1.9355937
0.0805654,0.016238235,-0.0039633987,0.6254981,-1.040906,1.8753436
0.0780576,0.01573278,-0.003840028,0.60602796,-1.0085051,1.8169689
