ax,ay,az,gx,gy,gz
-3.2754843,-4.576405,-6.7691526,80.67801,-146.15315,-34.73486
-2.344237,-4.819687,-6.918214,91.123116,-156.80927,-24.495651
-1.3546264,-4.8333607,-6.6757703,99.94066,-161.38197,-10.169173
-0.5123348,-4.4807496,-6.4214716,111.7084,-166.31168,4.1991186
0.21559992,-3.5712097,-6.084377,119.400955,-172.46735,13.546752
0.9330649,-2.5122051,-5.61995,122.75164,-177.79341,18.496597
1.6481192,-1.3258269,-5.0419116,121.19083,-181.25206,21.100855
2.3339875,0.027193712,-4.29107,115.44139,-182.71983,23.15865
3.007079,1.4723985,-3.4116719,102.943146,-179.27739,23.196913
3.5865107,2.8437395,-2.5059743,87.20851,-173.3004,21.02657
4.06254,3.908128,-1.7361757,71.04115,-165.76643,17.40865
4.4545765,4.7632732,-1.1046579,54.677464,-156.93275,12.7801
4.7503443,5.405304,-0.6278555,39.309444,-147.21935,6.5788193
4.9778647,5.8199844,-0.29116392,24.238731,-136.30917,-1.2647195
5.1377864,5.975161,-0.09433739,9.921382,-125.16261,-8.437244
5.2508597,5.9467854,-0.019522052,-2.9469464,-113.98426,-15.042874
5.3389926,5.7418118,-0.055730373,-14.219333,-103.33744,-21.060055
5.4081497,5.3658895,-0.17313126,-24.164724,-93.11787,-26.43238
5.4639583,4.770204,-0.37013867,-31.350853,-83.253235,-31.122269
5.5198026,3.8655624,-0.63165706,-35.291546,-74.182434,-34.5207
5.575214,2.857681,-0.8725689,-36.97987,-66.00477,-35.565
5.6032257,1.8822377,-1.0835422,-36.714176,-58.702606,-33.83655
5.5924134,1.0025728,-1.2461829,-35.372635,-51.67545,-29.98725
5.538584,0.21602933,-1.3900055,-32.62226,-44.765915,-24.44717
5.417635,-0.43112984,-1.5222987,-29.509039,-38.214172,-18.146732
5.260603,-0.94057554,-1.639091,-25.214901,-32.138077,-11.303874
5.0821333,-1.2864931,-1.7439101,-20.003916,-26.717033,-4.4107213
4.881039,-1.4730833,-1.8371099,-14.176711,-22.033958,2.1242018
4.669206,-1.5153685,-1.9109167,-7.683807,-18.193823,7.744247
4.470922,-1.4033428,-1.9451901,-1.4966773,-14.904139,12.530659
4.2663355,-1.1823387,-1.9554117,3.9317696,-11.933524,16.407482
4.0461936,-0.8758547,-1.9529536,8.433254,-9.135843,19.460121
3.8034608,-0.52884126,-1.9523551,11.727985,-6.6206703,21.585653
3.516146,-0.17653391,-1.9616011,13.586725,-4.7772727,22.78659
3.198391,0.17374124,-1.9867041,14.66616,-3.5535657,23.556164
2.8575397,0.52309203,-2.0339506,15.299134,-3.076059,23.843899
2.513109,0.8727184,-2.112661,15.288388,-3.6522806,23.316053
2.181358,1.2006265,-2.2188087,14.571065,-5.4295096,21.73759
1.8723023,1.4835566,-2.3543243,13.66947,-8.900759,18.999126
1.5844091,1.7370832,-2.5284386,12.560341,-13.652632,15.594997
1.3170518,1.9626414,-2.7366052,11.00287,-19.997723,11.461507
1.1154906,2.1497216,-2.9499803,8.142912,-27.952566,6.575243
1.00826,2.2914379,-3.1448848,4.5803804,-37.007557,1.3777258
1.0442619,2.382773,-3.3202183,-0.084711544,-47.21512,-4.332547
1.3341305,2.2888384,-3.4023228,-4.847789,-57.27795,-9.728831
1.8556178,2.0568187,-3.3654072,-9.655098,-65.086395,-13.611479
2.5154724,1.7066952,-3.2335422,-13.349821,-69.688705,-15.412678
3.1749694,1.3005506,-3.0218716,-14.960214,-70.82377,-14.58052
3.737596,0.95389426,-2.7682478,-13.728069,-68.21348,-10.818392
4.1115427,0.7487755,-2.524805,-11.137388,-64.460464,-6.55085
4.3961825,0.59215355,-2.2879448,-6.7681737,-59.857315,-2.5812883
4.632955,0.45071906,-2.0728827,-1.2314476,-54.04444,0.79926497
4.478181,0.4356618,-2.0036337,-1.1903085,-52.238968,0.7725638
4.3292246,0.4211705,-1.9369874,-1.1507156,-50.501358,0.7468662
4.1858077,0.40721813,-1.8728195,-1.1125951,-48.82837,0.72212434
4.0476704,0.39377937,-1.8110139,-1.0758779,-47.216965,0.6982932
3.9145694,0.3808306,-1.7514617,-1.0404994,-45.664314,0.675331
3.7862778,0.36834967,-1.6940613,-1.0063993,-44.167763,0.6531985
3.662582,0.35631588,-1.6387172,-0.9735207,-42.724823,0.6318588
3.5432813,0.34470966,-1.5853395,-0.9418104,-41.333157,0.6112774
3.4281874,0.33351272,-1.5338441,-0.9112182,-39.990562,0.5914217
3.3171225,0.3227077,-1.4841514,-0.881697,-38.694965,0.5722611
3.2099192,0.3122784,-1.4361862,-0.85320216,-37.444416,0.55376667
3.1064188,0.30220932,-1.389878,-0.82569164,-36.23706,0.5359111
3.006472,0.29248595,-1.3451596,-0.79912555,-35.07116,0.51866853
2.909937,0.2830945,-1.3019679,-0.7734664,-33.945057,0.5020145
2.8166792,0.2740219,-1.2602423,-0.7486783,-32.857185,0.48592597
2.7265716,0.26525572,-1.2199262,-0.7247275,-31.806057,0.47038084
2.6394928,0.2567842,-1.1809653,-0.7015818,-30.790262,0.4553582
2.5553274,0.24859615,-1.1433079,-0.67921054,-29.808458,0.44083825
2.4739664,0.2406809,-1.1069053,-0.6575846,-28.859364,0.42680207
2.3953052,0.23302831,-1.0717106,-0.6366763,-27.941763,0.41323164
2.3192441,0.22562867,-1.0376792,-0.6164592,-27.054493,0.4001098
2.2456884,0.21847278,-1.0047688,-0.5969079,-26.19645,0.38742015
2.1745472,0.21155177,-0.9729387,-0.57799846,-25.366571,0.37514704
2.1057339,0.20485725,-0.94215024,-0.55970776,-24.563848,0.36327556
2.0391655,0.19838111,-0.9123661,-0.54201376,-23.787315,0.35179138
1.9747628,0.19211566,-0.883551,-0.5248954,-23.036043,0.3406808
1.9124497,0.18605351,-0.85567075,-0.5083325,-22.309147,0.3299307
1.8521533,0.18018755,-0.82869285,-0.49230564,-21.605778,0.31952855
1.7938039,0.174511,-0.8025861,-0.47679624,-20.925117,0.30946225
1.7373343,0.16901733,-0.7773204,-0.4617865,-20.266388,0.29972026
1.6826802,0.16370028,-0.752867,-0.44725937,-19.628836,0.2902915
1.6297799,0.15855385,-0.7291983,-0.4331984,-19.011742,0.28116527
1.578574,0.15357226,-0.7062876,-0.41958773,-18.414413,0.27233136
1.5290052,0.14874993,-0.6841095,-0.40641227,-17.836182,0.26377988
1.4810188,0.14408156,-0.6626393,-0.3936574,-17.27641,0.2555014
1.4345617,0.13956197,-0.6418535,-0.38130903,-16.734478,0.24748676
1.3895833,0.13518623,-0.6217292,-0.3693537,-16.209797,0.2397272
1.3460345,0.13094956,-0.60224456,-0.35777834,-15.70179,0.23221427
1.3038682,0.12684739,-0.5833784,-0.34657046,-15.209909,0.22493984
1.2630386,0.122875266,-0.56511045,-0.33571792,-14.733624,0.21789604
1.2235023,0.119028956,-0.547421,-0.32520905,-14.272424,0.21107534
1.1852167,0.11530432,-0.5302912,-0.3150327,-13.825813,0.20447041
1.1481411,0.11169741,-0.5137028,-0.30517793,-13.393319,0.19807424
1.1122363,0.108204395,-0.49763823,-0.29563436,-12.974482,0.19188003
1.0774642,0.10482158,-0.48208046,-0.28639188,-12.568858,0.18588124
1.0437883,0.1015454,-0.46701312,-0.27744076,-12.176021,0.18007156
1.011173,0.098372415,-0.45242038,-0.2687716,-11.795557,0.17444487
0.97958446,0.0952993,-0.43828696,-0.26037526,-11.427069,0.16899529
0.94898945,0.09232285,-0.4245981,-0.25224307,-11.07017,0.16371712
0.9193561,0.089439966,-0.41133952,-0.24436648,-10.724492,0.15860486
0.8906538,0.086647645,-0.3984975,-0.23673734,-10.389672,0.1536532
0.86285263,0.083942994,-0.38605866,-0.22934775,-10.065366,0.14885703
0.8359239,0.08132322,-0.37401018,-0.22219005,-9.751237,0.14421135
0.80983984,0.07878562,-0.3623396,-0.21525685,-9.44696,0.1397114
0.7845735,0.07632758,-0.3510349,-0.20854102,-9.152223,0.13535252
0.76009893,0.07394656,-0.34008446,-0.20203564,-8.866722,0.13113023
0.73639107,0.07164013,-0.32947704,-0.19573404,-8.590164,0.1270402
0.71342546,0.06940591,-0.31920177,-0.18962975,-8.322266,0.12307826
0.69117874,0.06724163,-0.30924812,-0.18371654,-8.062753,0.119240314
0.66962814,0.06514507,-0.2996059,-0.17798834,-7.81136,0.11552245
0.6487516,0.063114084,-0.2902653,-0.17243932,-7.5678306,0.11192089
0.62852794,0.061146617,-0.2812168,-0.16706383,-7.331917,0.10843196
0.6089365,0.059240654,-0.27245116,-0.16185638,-7.1033783,0.10505209
0.58995736,0.05739426,-0.2639595,-0.1568117,-6.8819823,0.10177786
0.5715712,0.055605553,-0.25573313,-0.15192463,-6.667504,0.09860593
0.5537594,0.053872727,-0.24776377,-0.14719023,-6.4597254,0.095533095
0.5365039,0.052194018,-0.2400433,-0.1426037,-6.2584367,0.09255622
0.51978725,0.05056773,-0.2325639,-0.13816036,-6.0634327,0.089672305
0.50359243,0.048992213,-0.225318,-0.13385576,-5.874517,0.08687842
0.48790315,0.047465872,-0.21829827,-0.12968552,-5.691498,0.08417174
0.4727035,0.045987163,-0.2114976,-0.12564541,-5.51419,0.08154954
0.4579781,0.0445546,-0.20490916,-0.121731386,-5.3424153,0.07900915
0.44371212,0.043166727,-0.19852625,-0.11793946,-5.1759996,0.076548025
0.42989114,0.041822147,-0.19234246,-0.11426582,-5.014775,0.07416367
0.41650125,0.040519506,-0.18635154,-0.11070677,-4.8585787,0.07185368
0.40352896,0.03925749,-0.18054745,-0.10725871,-4.707254,0.06961574
0.39096114,0.038034827,-0.17492434,-0.10391816,-4.560648,0.06744757
0.3787852,0.036850285,-0.16947657,-0.100681774,-4.418613,0.06534701
0.36698884,0.03570267,-0.16419862,-0.09754628,-4.281006,0.063311934
0.3555602,0.034590833,-0.15908521,-0.09450853,-4.1476884,0.0613403
0.34448782,0.033513647,-0.15413119,-0.09156547,-4.018526,0.059430115
0.33376053,0.03247004,-0.14933157,-0.08871414,-3.89339,0.057579473
0.32336754,0.03145895,-0.14468153,-0.08595166,-3.7721536,0.0557865
0.31329843,0.030479373,-0.14017639,-0.08327527,-3.654695,0.054049406
0.30354306,0.02953032,-0.13581164,-0.080682285,-3.5408967,0.05236644
0.29409167,0.028610837,-0.13158289,-0.07817008,-3.430644,0.05073591
0.28493476,0.027720002,-0.12748587,-0.07573616,-3.3238266,0.04915618
0.2760631,0.02685692,-0.123516515,-0.07337806,-3.220337,0.04762567
0.26746783,0.026020726,-0.11967081,-0.071093425,-3.1200712,0.046142835
0.2591403,0.02521058,-0.1159449,-0.068879955,-3.022929,0.044706196
0.2510722,0.024425669,-0.112335056,-0.06673543,-2.9288125,0.043314304
0.24325539,0.023665208,-0.10883765,-0.06465771,-2.837628,0.04196577
0.23568206,0.022928433,-0.10544918,-0.062644705,-2.749283,0.040659238
0.2283446,0.022214605,-0.10216624,-0.060694396,-2.66369,0.0393934
0.22123566,0.021523008,-0.09898555,-0.05880483,-2.5807629,0.038166985
0.21434812,0.020852951,-0.09590392,-0.05697411,-2.5004182,0.036978766
0.20767508,0.020203762,-0.092918254,-0.0552004,-2.4225755,0.035827547
0.20120984,0.019574787,-0.090025574,-0.053481933,-2.3471572,0.034712184
0.19494593,0.0189654,-0.08722297,-0.051816974,-2.2740874,0.033631552
0.18887709,0.01837499,-0.08450764,-0.050203864,-2.2032928,0.03258457
0.18299721,0.017802965,-0.08187686,-0.048640985,-2.134703,0.03157019
0.17730044,0.01724875,-0.07932799,-0.04712677,-2.0682487,0.030587398
0.17178103,0.016711794,-0.0768585,-0.045659702,-2.0038636,0.029635204
0.1664335,0.016191555,-0.07446589,-0.044238318,-1.9414834,0.028712662
0.16125245,0.015687516,-0.07214779,-0.042861186,-1.8810455,0.027818842
0.15623273,0.0151991695,-0.069901854,-0.041526936,-1.8224893,0.026952852
0.15136929,0.014726028,-0.067725845,-0.040234227,-1.7657561,0.026113825
0.14665727,0.014267618,-0.06561759,-0.03898176,-1.7107894,0.025300922
0.14209197,0.013823479,-0.06357498,-0.037768297,-1.6575341,0.024513327
0.13766879,0.013393169,-0.061595954,-0.036592606,-1.6059368,0.023750251
0.13338332,0.012976255,-0.059678543,-0.035453524,-1.5559459,0.023010934
0.12923127,0.012572321,-0.057820827,-0.0343499,-1.5075113,0.022294635
0.1252085,0.012180963,-0.05602095,-0.033280637,-1.4605846,0.021600634
0.12131094,0.011801789,-0.0542771,-0.032244664,-1.4151189,0.02092824
0.117534734,0.011434418,-0.052587543,-0.031240938,-1.3710686,0.020276777
0.11387608,0.011078484,-0.050950587,-0.030268462,-1.3283895,0.019645596
0.11033133,0.010733631,-0.04936459,-0.029326262,-1.2870393,0.019034065
0.10689693,0.010399514,-0.047827963,-0.02841339,-1.2469761,0.01844157
0.10356944,0.010075798,-0.046339173,-0.02752894,-1.2081603,0.017867522
0.10034554,0.00976216,-0.044896733,-0.02667202,-1.1705528,0.017311344
0.097222,0.009458285,-0.043499194,-0.025841778,-1.134116,0.016772479
0.094195694,0.00916387,-0.042145163,-0.025037382,-1.0988135,0.016250389
0.0912636,0.008878619,-0.04083328,-0.024258025,-1.06461,0.015744552
0.088422775,0.0086022485,-0.039562237,-0.02350293,-1.0314711,0.015254461
0.08567039,0.008334481,-0.038330756,-0.02277134,-0.99936396,0.014779626
0.08300368,0.008075049,-0.037137616,-0.022062525,-0.96825624,0.014319573
0.08041998,0.007823694,-0.035981614,-0.021375773,-0.93811685,0.013873841
0.07791671,0.0075801616,-0.0348616,-0.0207104,-0.90891564,0.013441984
