ax,ay,az,gx,gy,gz
-3.3627577,-4.0018544,-8.926445,19.920181,-76.349785,-56.430515
-3.5386896,-4.409303,-10.090718,16.710613,-105.20091,-74.35734
-2.8792083,-5.30082,-9.841971,26.12327,-115.66247,-77.78408
-1.9471747,-5.8223042,-9.590317,37.822803,-115.51278,-66.39218
-1.150411,-6.1813445,-9.545859,43.85987,-123.682945,-47.150684
-0.44998974,-6.572671,-9.388336,54.59092,-133.40565,-24.489542
0.12919602,-6.497786,-8.924567,67.27111,-141.79721,-3.2840483
0.5735252,-5.9590845,-8.187342,79.18897,-147.92401,12.323007
0.981345,-5.104643,-7.18076,87.32418,-151.28227,22.993961
1.3805406,-4.181019,-5.9467244,92.48034,-152.24847,32.02367
1.7115241,-3.2969542,-4.7555313,95.069534,-151.08464,39.910404
1.9627016,-2.384596,-3.6124053,94.493126,-148.82686,46.667965
2.1260245,-1.5167469,-2.5827956,92.16324,-145.7277,50.87294
2.1988435,-0.7483186,-1.7038563,89.72095,-141.11998,49.729733
2.2683477,-0.0942964,-0.97415245,87.537674,-135.08298,45.45468
2.3586378,0.41074184,-0.38944748,85.01749,-128.2347,40.617256
2.477304,0.79599917,0.06792345,81.47469,-121.04764,36.924866
2.579868,1.0978018,0.4022465,77.0764,-113.66742,33.785095
2.6354024,1.3244504,0.63264453,72.6386,-105.934494,30.755693
2.5972779,1.5031086,0.7396067,68.174385,-97.98866,26.969774
2.5078483,1.6442643,0.7752003,63.5271,-90.64393,23.34612
2.3754733,1.7623105,0.74960595,58.941288,-84.40383,20.164467
2.2025332,1.8725655,0.68235815,54.171154,-79.553444,17.345434
2.0230958,1.9951675,0.6031384,48.8178,-76.259094,14.741875
1.8581034,2.1380196,0.5246655,43.008175,-73.87771,12.120176
1.7268475,2.2710233,0.45937845,36.809414,-72.03439,9.490485
1.6305413,2.3913348,0.41131744,30.44427,-70.17327,6.8947845
1.5539544,2.5040529,0.37319788,24.122774,-68.04163,4.311269
1.4732115,2.615672,0.3387813,17.819263,-65.56883,1.1239691
1.3678186,2.72318,0.31076694,11.562435,-63.450695,-2.6251144
1.2762992,2.7937024,0.3177343,5.011903,-61.57614,-6.618957
1.2052846,2.787489,0.34744814,-1.6937368,-59.60711,-10.444873
1.1522458,2.69182,0.3699218,-8.164969,-57.36815,-14.172083
1.1349376,2.519394,0.37496865,-14.132433,-54.895958,-17.942715
1.1978918,2.2260566,0.3548144,-19.1159,-51.69505,-21.9083
1.3221325,1.8168747,0.31850448,-23.003859,-48.068554,-25.046305
1.4822673,1.3320725,0.27404413,-25.718904,-44.276726,-26.446741
1.6307343,0.8443343,0.22426364,-27.515469,-40.74935,-26.311466
1.7499563,0.38184837,0.18696776,-27.786541,-37.52485,-25.40908
1.8502578,-0.03053453,0.18064307,-27.071808,-34.35391,-24.138527
1.9447451,-0.38648915,0.20408104,-25.541403,-30.904709,-22.195024
2.0277598,-0.6656201,0.25648573,-23.745073,-27.127247,-19.594805
2.0902472,-0.8568748,0.33754507,-21.893644,-22.982943,-16.34563
2.131787,-0.96149135,0.4407271,-20.572496,-18.243587,-12.893056
2.1585002,-0.9960201,0.53733927,-19.209402,-12.977851,-9.876114
2.1604984,-1.0008148,0.602136,-17.434746,-7.5850186,-7.4713473
2.1420841,-0.9869113,0.6401679,-15.621632,-2.222929,-5.1573505
2.1027415,-0.961431,0.6467816,-13.888437,2.8543837,-2.6861107
2.0439377,-0.9203326,0.6245595,-12.393179,7.68684,-0.04328098
1.945108,-0.85976785,0.5556805,-11.559121,11.908467,2.3669333
1.834951,-0.79589623,0.46027678,-10.815194,15.772148,4.4877076
1.7057399,-0.72629255,0.3315916,-10.097838,18.946417,6.068041
1.5691466,-0.66000295,0.18351129,-9.458732,21.553465,7.2967215
1.4333967,-0.60096157,0.020307513,-8.778685,23.693005,8.345204
1.2922267,-0.55600864,-0.1764478,-8.109749,25.350613,9.354696
1.1425248,-0.51729774,-0.3964533,-7.4674506,26.461782,10.274653
0.9820699,-0.49006057,-0.6378676,-6.7723155,26.914265,11.048672
0.81187814,-0.47399986,-0.894549,-5.886258,26.662298,11.680707
0.6335719,-0.4545942,-1.1560832,-4.950203,25.53202,12.078762
0.4459991,-0.43278363,-1.4262719,-3.8565643,23.68247,12.347365
0.25851136,-0.39650795,-1.6880053,-2.6428778,21.198309,12.435998
0.08503836,-0.34786278,-1.9387298,-1.4894645,18.225662,12.298081
-0.0817894,-0.29764473,-2.1794767,-0.251889,14.719246,11.829626
-0.24578859,-0.24932261,-2.4139388,1.2420956,10.550684,10.966019
-0.39244577,-0.21128222,-2.6538966,3.207137,5.0897207,9.719683
-0.51075345,-0.19544338,-2.8994703,5.4460993,-1.1843224,8.120018
-0.59773964,-0.21879217,-3.1511283,8.056984,-8.076685,6.187362
-0.632362,-0.27715,-3.3834412,11.155675,-15.329804,4.280924
-0.59488815,-0.34105143,-3.5700357,14.397784,-23.150036,3.4482932
-0.4527719,-0.38983673,-3.6498156,17.48664,-31.148445,3.9572303
-0.25078765,-0.40057194,-3.62349,20.420115,-39.014446,5.6482654
-0.03146828,-0.32879105,-3.472668,23.036955,-46.559277,7.5083003
0.2102279,-0.15151392,-3.1516433,24.398607,-53.28297,8.81069
0.5033027,0.045867324,-2.7122061,24.534616,-58.226894,9.08101
0.86890054,0.180539,-2.2104673,24.190498,-61.38824,8.760449
1.2660154,0.25371656,-1.6969826,23.564074,-61.975815,8.811574
1.6091728,0.30240935,-1.2358145,22.502699,-61.07201,9.493919
1.8568403,0.3412118,-0.855973,21.55298,-59.025597,9.994068
2.0137038,0.36682755,-0.5660805,20.869032,-56.107647,9.936794
2.0781572,0.37276033,-0.389204,20.638275,-52.68567,9.534972
2.0867212,0.37535116,-0.2830305,20.495712,-49.139603,9.100003
2.0374632,0.3694218,-0.23691082,20.436539,-45.653984,8.617536
1.9370958,0.36261347,-0.2336734,20.385025,-42.449394,8.104524
1.8047382,0.36130524,-0.25370976,20.173979,-39.77359,7.512024
1.6536212,0.3594105,-0.28256148,19.758747,-37.559353,7.078473
1.5133336,0.3658662,-0.29818153,18.879559,-35.640144,6.9271054
1.3925571,0.3729946,-0.29874074,17.748772,-33.80329,7.0296025
1.2844759,0.38322082,-0.28802094,16.621498,-31.97329,7.1958356
1.2442033,0.37120554,-0.2789905,16.100357,-30.970818,6.9702215
1.2052106,0.35957217,-0.27024707,15.595781,-30.000208,6.7517786
1.1674557,0.34830806,-0.26178122,15.107222,-29.06041,6.54027
1.1308979,0.3374011,-0.25358376,14.634152,-28.15041,6.335467
1.0954978,0.32683957,-0.24564594,14.176065,-27.269228,6.1371503
1.0612177,0.31661218,-0.23795924,13.7324705,-26.415924,5.945108
1.0280211,0.306708,-0.23051548,13.3028965,-25.58959,5.7591352
0.9958727,0.2971166,-0.22330676,12.886886,-24.78935,5.579035
0.9647385,0.2878278,-0.21632548,12.484001,-24.014355,5.404616
0.93458575,0.27883178,-0.20956427,12.093816,-23.26379,5.235696
0.90538275,0.27011913,-0.20301601,11.71592,-22.536867,5.0720963
0.877099,0.26168072,-0.19667388,11.34992,-21.832825,4.913646
0.84970486,0.25350773,-0.19053124,10.995432,-21.150928,4.76018
0.82317185,0.24559167,-0.18458168,10.652087,-20.490467,4.611538
0.7974724,0.23792428,-0.17881903,10.319529,-19.850754,4.467565
0.77257985,0.23049764,-0.17323731,9.997411,-19.231125,4.328113
0.74846846,0.22330405,-0.16783077,9.685403,-18.630941,4.1930375
0.7251133,0.21633609,-0.16259378,9.38318,-18.049583,4.062198
0.7024904,0.20958659,-0.157521,9.090433,-17.486452,3.935461
0.6805764,0.20304859,-0.15260717,8.806859,-16.940968,3.8126955
0.65934885,0.1967154,-0.14784727,8.532168,-16.412569,3.6937754
0.63878596,0.1905805,-0.14323641,8.266079,-15.900716,3.578579
0.6188667,0.18463764,-0.13876988,8.008318,-15.404884,3.4669883
0.59957075,0.17888072,-0.13444309,7.7586226,-14.924568,3.3588893
0.5808784,0.17330389,-0.13025166,7.5167375,-14.459275,3.2541716
0.5627705,0.16790144,-0.12619129,7.2824163,-14.008533,3.1527286
0.5452287,0.1626679,-0.122257866,7.055421,-13.571881,3.0544567
0.5282352,0.15759791,-0.11844736,6.8355193,-13.148877,2.9592564
0.51177263,0.15268634,-0.11475593,6.622489,-12.73909,2.8670306
0.49582437,0.1479282,-0.111179814,6.4161134,-12.342104,2.7776856
0.48037416,0.14331867,-0.107715376,6.2161837,-11.957516,2.6911314
0.46540642,0.13885306,-0.10435913,6.022496,-11.584937,2.6072795
0.45090592,0.13452688,-0.10110765,5.834856,-11.22399,2.5260456
0.43685806,0.13033572,-0.09795766,5.6530724,-10.87431,2.4473474
0.4232486,0.12627538,-0.09490599,5.476962,-10.535542,2.371105
0.4100638,0.12234171,-0.09194953,5.306347,-10.207344,2.2972417
0.39729035,0.11853078,-0.08908531,5.1410546,-9.889386,2.2256827
0.38491535,0.11483872,-0.08631043,4.9809184,-9.5813465,2.156356
0.37292632,0.11126182,-0.08362211,4.825777,-9.282915,2.0891917
0.3613112,0.10779647,-0.08101762,4.6754737,-8.993791,2.024122
0.35005826,0.10443918,-0.07849435,4.529857,-8.713681,1.9610813
0.33915618,0.101186566,-0.07604975,4.388781,-8.442306,1.900006
0.32859397,0.09803535,-0.07368137,4.252103,-8.17939,1.840835
0.318361,0.09498237,-0.07138681,4.1196856,-7.9246707,1.7835083
0.30844703,0.09202456,-0.06916377,3.9913957,-7.677891,1.7279687
0.29884204,0.08915892,-0.06701002,3.8671043,-7.4388027,1.67416
0.2895364,0.0863826,-0.0649234,3.7466865,-7.2071652,1.6220282
0.2805207,0.08369279,-0.062901795,3.6300209,-6.9827466,1.571521
0.27178597,0.0810868,-0.060943183,3.516991,-6.765321,1.5225877
0.2633234,0.07856201,-0.059045598,3.4074826,-6.5546694,1.475179
0.25512448,0.07611588,-0.057207137,3.301386,-6.350581,1.4292474
0.24718101,0.07374596,-0.055425953,3.1985953,-6.1528516,1.3847468
0.239485,0.07144987,-0.053700257,3.0990064,-5.9612813,1.3416325
0.23202871,0.0692253,-0.05202832,3.00252,-5.775679,1.2998612
0.2248047,0.06707003,-0.05040846,2.909039,-5.595858,1.2593911
0.2178057,0.06498189,-0.04883906,2.81847,-5.4216385,1.2201816
0.21102469,0.06295879,-0.04731854,2.7307217,-5.2528453,1.1821934
0.20445488,0.060998704,-0.04584538,2.6457067,-5.0893087,1.1453882
0.19808969,0.059099663,-0.044418097,2.563339,-4.9308662,1.1097295
0.19192274,0.05725976,-0.043035265,2.483537,-4.7773576,1.0751812
0.18594784,0.05547716,-0.0416955,2.40622,-4.6286297,1.041709
0.180159,0.053750075,-0.040397458,2.3313107,-4.484534,1.0092789
0.17455043,0.05207677,-0.039139837,2.2587342,-4.344925,0.97785884
0.16911651,0.05045557,-0.037921377,2.1884177,-4.2096634,0.9474172
0.1638518,0.048884857,-0.036740858,2.1202908,-4.0786138,0.91792345
0.15875103,0.04736305,-0.0355971,2.054285,-3.9516444,0.88934815
0.15380907,0.04588863,-0.034488954,1.9903349,-3.828629,0.8616625
0.149021,0.044460114,-0.033415314,1.9283757,-3.7094438,0.834839
0.144382,0.04307608,-0.0323751,1.8683457,-3.5939696,0.80885065
0.13988745,0.04173514,-0.031367276,1.810185,-3.4820907,0.78367144
0.13553284,0.040435947,-0.030390833,1.7538348,-3.3736954,0.75927615
0.1313138,0.03917721,-0.029444788,1.6992393,-3.2686746,0.73564047
0.12722611,0.037957657,-0.028528199,1.6463435,-3.1669238,0.71274066
0.1232657,0.036776073,-0.027640145,1.5950946,-3.0683405,0.6905538
0.11942858,0.035631277,-0.02677974,1.5454412,-2.9728267,0.6690576
0.11571093,0.034522124,-0.025946122,1.4973335,-2.8802867,0.64823073
0.11210901,0.033447497,-0.025138455,1.4507236,-2.7906272,0.62805223
0.10861923,0.03240633,-0.024355933,1.4055649,-2.7037594,0.6085019
0.10523809,0.031397574,-0.023597773,1.361812,-2.6195958,0.5895603
0.101962216,0.030420221,-0.022863217,1.3194212,-2.5380523,0.5712083
0.09878831,0.029473295,-0.022151526,1.27835,-2.4590476,0.55342764
0.09571323,0.028555848,-0.021461992,1.2385575,-2.382502,0.53620046
0.09273387,0.027666962,-0.020793922,1.2000036,-2.3083396,0.5195097
0.08984725,0.026805747,-0.020146651,1.16265,-2.2364857,0.5033384
0.087050505,0.025971342,-0.01951953,1.1264592,-2.1668687,0.48767054
0.08434081,0.025162913,-0.01891193,1.091395,-2.0994189,0.47249046
0.08171548,0.024379648,-0.018323245,1.0574224,-2.0340688,0.4577829
0.079171866,0.023620768,-0.017752886,1.0245073,-1.9707531,0.4435332
0.07670744,0.022885509,-0.017200282,0.9926169,-1.9094083,0.42972708
0.07431972,0.02217314,-0.01666488,0.96171916,-1.8499731,0.41635072
0.07200634,0.021482946,-0.016146142,0.93178326,-1.7923881,0.40339077
0.069764964,0.020814236,-0.015643554,0.9027792,-1.7365956,0.39083424
