ax,ay,az,gx,gy,gz
-2.2618387,-5.2200475,-7.012791,-48.606804,-14.70377,-23.360212
-2.7255177,-6.3306694,-7.7137737,-22.277332,-23.43085,-18.976614
-2.5375912,-7.368462,-8.182437,2.0626626,-35.93839,-16.236616
-1.995932,-8.745147,-8.487116,18.591423,-53.52772,-15.713311
-1.1167415,-10.67913,-8.369497,31.10855,-64.20963,-10.02368
-0.13211936,-12.313817,-8.120022,40.7782,-70.88605,4.0993414
0.78820306,-13.307939,-7.783325,46.221786,-75.13375,26.651625
1.5581311,-13.574861,-7.40591,50.913544,-77.227745,52.8781
2.1355324,-13.12034,-7.0150175,56.456833,-81.51433,77.70889
2.6979055,-11.64634,-6.2638226,61.393703,-85.900734,97.64793
3.2161517,-9.490158,-5.2323074,63.318653,-88.79053,111.84723
3.5884066,-7.066828,-4.0782595,60.28764,-90.29049,119.98455
3.8063464,-4.8454304,-2.9446056,53.898647,-90.083466,123.10715
3.8999364,-3.063015,-1.9288974,47.171757,-85.501724,121.97999
3.7984228,-1.802875,-1.263099,40.631,-80.225204,118.556015
3.6531575,-0.9594244,-0.82323325,34.756557,-75.311485,113.67081
3.541371,-0.41558394,-0.5336042,30.109596,-70.864555,107.80554
3.4844458,-0.08584056,-0.33289158,26.020756,-66.78409,102.08024
3.4571793,0.13706991,-0.19570756,22.66954,-62.625046,96.576584
3.3932383,0.30079874,-0.11779044,19.579844,-58.855618,91.26726
3.3096678,0.41397524,-0.064657904,17.396227,-55.066578,85.903854
3.1995132,0.50126296,-0.04516335,16.141874,-51.369587,80.79979
3.0539,0.577761,-0.06283863,15.186822,-48.14197,76.08137
2.8903825,0.6401109,-0.10456783,14.434726,-45.57835,71.76334
2.7400653,0.6862094,-0.15813117,13.941623,-43.473675,67.7759
2.622241,0.7431029,-0.20602898,13.430619,-41.509632,64.09312
2.5216396,0.8244623,-0.25857434,12.595023,-39.871426,60.437675
2.4382718,0.92485416,-0.3162795,11.616465,-38.514477,56.738937
2.3715973,1.0416497,-0.37806416,10.532699,-37.557663,52.857807
2.3563364,1.2121695,-0.4127955,9.052652,-36.552162,48.934597
2.3469212,1.4374182,-0.44167018,7.1206193,-35.703148,44.721474
2.3230805,1.6873543,-0.46048197,4.764655,-35.117138,39.943985
2.2998254,1.9511163,-0.4525786,2.3609076,-33.975544,34.64233
2.2482522,2.2438066,-0.46378604,-0.7961596,-32.870037,28.380583
2.1741447,2.4998934,-0.48146433,-4.4913588,-31.908787,21.542269
2.1020415,2.673591,-0.4921731,-8.305937,-31.018414,14.305665
2.0071435,2.7896454,-0.5101322,-12.260191,-30.325378,6.6197968
1.8700969,2.8379426,-0.52754235,-16.594345,-30.191126,-1.3486978
1.7147037,2.7638528,-0.5434123,-21.382957,-31.085066,-8.805047
1.6920804,2.4029543,-0.50394285,-26.553282,-32.51943,-14.176407
1.8156835,1.8275758,-0.37689927,-30.43582,-32.95522,-17.923677
1.9630531,1.1332711,-0.20307179,-31.340782,-31.678919,-21.731758
2.0950496,0.4550272,-0.019402284,-30.096087,-29.51062,-25.362719
2.232814,-0.16693257,0.17283575,-28.067997,-27.100641,-26.648901
2.356304,-0.72852486,0.35789144,-25.690594,-24.693008,-26.235298
2.4884126,-1.1900896,0.53202695,-23.09472,-22.233585,-24.772179
2.627981,-1.541459,0.7006365,-20.458437,-19.34054,-22.722649
2.7252846,-1.7933608,0.8459689,-17.82668,-16.00396,-20.392122
2.780985,-1.9619453,0.9800973,-14.322197,-11.325529,-18.002954
2.7806466,-1.9736103,1.0747215,-11.425795,-6.3868766,-15.757765
2.7457843,-1.9348032,1.1457943,-8.868667,-1.5026639,-13.740037
2.7069607,-1.8645651,1.1964794,-6.659809,3.2387314,-11.76714
2.7007816,-1.77879,1.2313071,-4.9957376,7.7060804,-9.753017
2.7250707,-1.6858943,1.2508221,-3.142482,12.620674,-7.970935
2.7460713,-1.563458,1.196863,-1.6270417,17.504131,-6.6412926
2.7451448,-1.4622606,1.0769736,-0.59643996,22.332691,-5.7151318
2.6971962,-1.4094415,0.88309443,0.11559685,26.754389,-4.8688755
2.6164703,-1.3930405,0.63224787,0.7099131,30.630291,-4.0192103
2.5169108,-1.4080346,0.33677667,0.86816704,33.495953,-3.062379
2.4131043,-1.4530491,0.008319778,1.0207977,35.72501,-1.9964215
2.3020763,-1.5073578,-0.33499587,1.2116703,37.363968,-0.9105575
2.1836286,-1.5630052,-0.68472743,1.6015205,38.5481,0.29351518
2.054594,-1.6013991,-1.0472171,2.1632261,39.18412,1.6214207
1.9065754,-1.6228929,-1.4227868,2.9534843,38.875153,3.0195665
1.723453,-1.6281085,-1.8259697,4.0602965,37.516365,4.194939
1.5299813,-1.649586,-2.2299674,5.1253777,34.88697,5.2243586
1.3598069,-1.6878005,-2.616275,6.066295,31.247568,6.2090545
1.2224766,-1.756875,-2.984928,7.004703,26.885607,7.0843205
1.1213803,-1.8485386,-3.3259232,7.8004584,21.748274,8.460386
1.0770774,-1.9510378,-3.6158092,8.748664,16.31962,10.088167
1.0580347,-2.0382137,-3.8591666,10.483401,10.654031,11.061217
1.0551401,-2.1025932,-4.03709,13.064938,4.55738,11.285878
1.0989883,-2.1459823,-4.1123443,15.5960045,-2.1168597,11.679507
1.2142425,-2.1589546,-4.059781,16.795164,-8.942938,14.872819
1.3575189,-2.071902,-3.8603685,16.945633,-15.539143,19.964434
1.4824998,-1.86384,-3.5515027,16.341797,-21.728308,25.157915
1.6150368,-1.5559356,-3.1375794,15.10163,-27.24089,29.070581
1.7795509,-1.2101367,-2.634667,13.967343,-31.535122,31.61068
1.9722383,-0.8234607,-2.099604,12.417269,-34.12229,32.75294
2.1570184,-0.47130617,-1.5976852,10.257318,-35.503853,32.974964
2.3075104,-0.21180156,-1.1771224,7.9017534,-35.75633,32.13996
2.4096165,-0.052674618,-0.8460082,5.5836425,-35.132187,30.743904
2.4397974,0.01356689,-0.6207017,3.2671075,-34.050007,29.277529
2.4106293,0.0062239836,-0.4712227,1.2071835,-32.77997,28.042402
2.309032,-0.059228744,-0.41538423,-0.23064816,-31.604305,26.965725
2.1824222,-0.13069017,-0.40234077,-0.9593816,-30.617645,26.003984
2.0463588,-0.17645791,-0.40772814,-1.4330498,-29.988123,25.306631
1.9279952,-0.18309362,-0.40365878,-1.9107869,-29.535664,24.773193
1.8392024,-0.18440753,-0.38081285,-2.2967541,-28.887096,24.206976
1.7761724,-0.18881363,-0.3390432,-2.4925706,-27.960762,23.538256
1.7160203,-0.18903874,-0.29183298,-2.594207,-26.943352,22.733974
1.6586835,-0.1898517,-0.23788397,-2.7098436,-25.87794,21.989574
1.609611,-0.197682,-0.17816225,-2.7549243,-24.61892,21.379564
1.5724173,-0.21064675,-0.11673137,-2.794761,-22.901253,20.802244
1.5507573,-0.2277063,-0.05858718,-2.7989914,-20.766272,19.90905
1.5330961,-0.23900472,-0.012160961,-2.5511289,-18.570835,18.8589
1.5265903,-0.22975066,0.036989834,-2.2080424,-16.492336,17.99263
1.4788771,-0.22256985,0.035833724,-2.1390305,-15.9768715,17.430273
1.4326667,-0.21561521,0.03471403,-2.0721922,-15.477643,16.885632
1.3879107,-0.20887949,0.033629578,-2.0074577,-14.994127,16.358131
1.3445625,-0.20235562,0.032579236,-1.9447595,-14.525821,15.847223
1.302577,-0.19603685,0.03156191,-1.8840321,-14.072236,15.352375
1.2619106,-0.18991657,0.030576548,-1.8252126,-13.632899,14.873074
1.2225208,-0.18398844,0.02962212,-1.7682399,-13.207358,14.40882
1.1843673,-0.17824636,0.028697645,-1.7130549,-12.79517,13.959136
1.1474104,-0.17268437,0.027802167,-1.6596009,-12.395911,13.523557
1.1116121,-0.16729677,0.026934762,-1.6078228,-12.009169,13.101633
1.0769356,-0.162078,0.02609454,-1.5576671,-11.634546,12.692931
1.0433455,-0.15702268,0.025280638,-1.5090827,-11.271658,12.297031
1.010807,-0.15212569,0.02449222,-1.4620194,-10.920134,11.913528
0.9792871,-0.14738195,0.023728479,-1.4164294,-10.579611,11.542029
0.9487534,-0.14278665,0.022988636,-1.3722658,-10.249744,11.182155
0.9191748,-0.1383351,0.022271937,-1.3294836,-9.930195,10.833537
0.89052117,-0.13402274,0.021577649,-1.2880393,-9.620639,10.49582
0.8627633,-0.1298452,0.020905064,-1.2478906,-9.32076,10.168661
0.8358729,-0.12579823,0.020253502,-1.2089968,-9.030253,9.8517275
0.80982274,-0.1218777,0.019622298,-1.1713182,-8.748823,9.544697
0.78458637,-0.11807965,0.01901081,-1.1348165,-8.476185,9.247257
0.7601382,-0.11440021,0.018418422,-1.099455,-8.212062,8.959106
0.7364534,-0.110835664,0.017844532,-1.0651976,-7.9561863,8.679954
0.713508,-0.1073824,0.017288556,-1.0320096,-7.7082987,8.409516
0.6912788,-0.10403693,0.016749935,-0.9998576,-7.468148,8.147519
0.6697434,-0.100795865,0.016228124,-0.968709,-7.2354927,7.8936996
0.64887995,-0.09765593,0.015722595,-0.9385323,-7.010097,7.6477995
0.62866735,-0.094613954,0.015232837,-0.9092971,-6.791733,7.409571
0.6090853,-0.09166687,0.014758357,-0.8809739,-6.5801806,7.1787744
0.59011406,-0.08881171,0.0142986765,-0.85353404,-6.3752265,6.955176
0.5717344,-0.086045586,0.013853331,-0.82694995,-6.1766644,6.7385507
0.5539279,-0.08336572,0.013421873,-0.8011948,-5.984294,6.5286803
0.5366766,-0.08076941,0.013003867,-0.7762427,-5.797921,6.325353
0.5199631,-0.078254044,0.012598893,-0.7520685,-5.617359,6.1283655
0.5037706,-0.075817086,0.012206542,-0.7286479,-5.4424253,5.937518
0.48808283,-0.073456086,0.011826422,-0.70595723,-5.2729445,5.7526197
0.472884,-0.071168676,0.011458149,-0.68397385,-5.1087456,5.573484
0.45815882,-0.06895255,0.011101354,-0.66267556,-4.949664,5.399931
0.44389254,-0.06680548,0.010755676,-0.64204097,-4.7955403,5.2317863
0.43007082,-0.064725325,0.01042077,-0.6220494,-4.646219,5.068881
0.41667974,-0.06270998,0.010096299,-0.6026807,-4.5015497,4.9110518
0.40370587,-0.06075742,0.009781938,-0.5839154,-4.361388,4.75814
0.3911362,-0.058865696,0.009477371,-0.5657348,-4.225593,4.609992
0.3789581,-0.0570329,0.009182291,-0.54812056,-4.0940285,4.4664593
0.3671594,-0.055257205,0.008896404,-0.53105503,-3.9665625,4.3273973
0.35572818,-0.053536817,0.008619422,-0.51452106,-3.843067,4.1926675
0.34465307,-0.05187002,0.008351068,-0.49850214,-3.723418,4.0621343
0.3339229,-0.050255135,0.008091072,-0.48298213,-3.607496,3.9356668
0.3235269,-0.04869055,0.007839173,-0.46794552,-3.4951842,3.8131382
0.3134547,-0.04717469,0.0075951205,-0.4533772,-3.3863704,3.6944256
0.3036962,-0.04570604,0.007358668,-0.4392626,-3.2809455,3.5794103
0.29424158,-0.04428313,0.0071295793,-0.42558756,-3.1788037,3.4679768
0.2850814,-0.04290453,0.0069076247,-0.41233838,-3.0798428,3.3600135
0.27620646,-0.04156886,0.0066925823,-0.3995018,-2.9839635,3.255412
0.2676079,-0.04027478,0.0064842356,-0.38706493,-2.89107,3.1540682
0.25927708,-0.039021,0.006282377,-0.37501532,-2.801069,3.0558798
0.25120568,-0.03780626,0.006086804,-0.36334094,-2.7138705,2.9607491
0.2433856,-0.036629345,0.0058973203,-0.35203007,-2.6293871,2.8685803
0.235809,-0.03548907,0.005713737,-0.34107137,-2.5475345,2.7792814
0.22846831,-0.034384307,0.0055358694,-0.3304539,-2.4682302,2.692763
0.22135618,-0.033313934,0.0053635403,-0.32016698,-2.391395,2.6089382
0.2144655,-0.03227689,0.005196576,-0.31020036,-2.3169525,2.5277236
0.20778935,-0.031272136,0.0050348104,-0.30054405,-2.2448273,2.4490373
0.20132105,-0.030298661,0.0048780814,-0.2911884,-2.174948,2.372801
0.19505413,-0.029355496,0.004726232,-0.282124,-2.107244,2.2989383
0.18898232,-0.028441694,0.0045791096,-0.2733418,-2.041648,2.227375
0.18309955,-0.027556341,0.004436568,-0.26483303,-1.9780941,2.1580398
0.17739992,-0.026698552,0.004298464,-0.25658917,-1.9165189,2.090863
0.17187774,-0.025867466,0.0041646594,-0.24860194,-1.8568606,2.0257776
0.16652746,-0.025062256,0.0040350202,-0.24086337,-1.7990596,1.9627185
0.16134375,-0.02428211,0.0039094174,-0.23336571,-1.743058,1.9016225
0.15632142,-0.023526253,0.0037877243,-0.22610147,-1.6887997,1.8424284
0.15145543,-0.022793926,0.0036698198,-0.21906336,-1.6362307,1.7850772
0.14674093,-0.022084396,0.0035555856,-0.21224436,-1.5852982,1.7295114
0.14217319,-0.021396955,0.0034449077,-0.20563763,-1.5359511,1.6756753
0.13774765,-0.020730915,0.003337675,-0.19923659,-1.4881402,1.6235151
0.13345987,-0.020085607,0.0032337806,-0.19303478,-1.4418178,1.5729787
0.12930557,-0.019460388,0.0031331205,-0.18702605,-1.3969373,1.5240154
0.12528059,-0.018854633,0.0030355938,-0.18120438,-1.3534539,1.4765764
0.12138091,-0.018267732,0.0029411032,-0.17556392,-1.3113241,1.4306142
0.11760262,-0.017699104,0.0028495537,-0.17009905,-1.2705058,1.3860826
0.113941945,-0.017148174,0.0027608543,-0.1648043,-1.2309582,1.3429375
0.11039522,-0.016614396,0.002674916,-0.15967435,-1.1926416,1.3011352
