ax,ay,az,gx,gy,gz
-0.08272802,-1.2227384,-5.2591386,-27.022064,-11.152828,-20.696552
-0.1595688,-2.0924153,-5.5987935,-37.179356,-13.254606,-23.980099
-0.5827323,-2.8665867,-6.038043,-46.091835,-17.551224,-30.372936
-1.1605439,-3.9910893,-6.575875,-46.104362,-27.568943,-33.725346
-1.4753399,-5.196623,-6.959071,-37.995136,-38.025677,-31.225782
-1.3697011,-6.3781176,-7.148049,-20.41479,-43.207222,-26.886509
-0.71319836,-7.6819143,-7.1187825,1.1151608,-41.997147,-19.712679
-0.035458483,-8.798967,-7.0792255,23.82406,-40.29373,-9.312376
0.43599215,-9.542551,-7.0204015,37.32599,-43.689228,6.1377077
0.7517917,-9.917277,-6.846366,42.445904,-50.548557,25.091978
0.9919017,-9.848321,-6.5790977,41.800076,-59.16108,46.747795
1.309643,-9.015967,-6.061309,38.25142,-66.84197,67.602905
1.6741883,-7.6878533,-5.339466,32.097492,-72.991776,84.559
2.019435,-6.1806235,-4.4967365,26.503313,-77.18943,95.82445
2.307345,-4.7690825,-3.6406384,23.891817,-79.05921,101.64099
2.5233378,-3.489037,-2.8336635,22.734482,-78.75173,103.26496
2.650098,-2.3705707,-2.156032,20.012205,-77.81932,103.020874
2.7256186,-1.5091702,-1.5993787,16.395172,-76.37162,101.34765
2.7980113,-0.8367419,-1.1379511,12.904651,-74.133736,98.66235
2.8792355,-0.2994228,-0.7629585,9.607199,-71.05022,95.26601
2.9482183,0.1476204,-0.47537166,6.4999685,-67.23562,90.92418
2.9670448,0.48858657,-0.2977177,4.0880203,-63.239662,85.91116
2.948304,0.75707483,-0.21810596,2.5886905,-59.703938,80.42395
2.9245043,1.0005269,-0.19626532,0.9393968,-56.767216,74.71919
2.9056692,1.2281301,-0.20942524,-0.6147388,-53.73616,68.93456
2.8749022,1.449045,-0.27198523,-2.5891013,-51.019615,63.249115
2.8624341,1.6527007,-0.3678937,-4.5474615,-48.345833,57.845314
2.8798838,1.8741311,-0.50184,-6.436793,-45.799583,52.53916
2.912273,2.123767,-0.66897786,-8.372739,-43.711605,46.92276
2.935769,2.3962471,-0.8342083,-10.811689,-42.242874,40.81578
2.9483688,2.6430283,-0.97484475,-14.180847,-41.39582,34.117878
2.9573054,2.8390267,-1.0716504,-17.805845,-40.727184,27.126968
2.9636164,2.9611685,-1.1272131,-21.729437,-40.09629,19.844288
2.9578786,2.9840164,-1.1310663,-25.296099,-39.307602,12.304151
2.9093392,2.883355,-1.1042286,-28.691687,-38.572777,4.6750917
2.842247,2.615982,-1.0621182,-31.73348,-38.245472,-2.2731135
2.7866766,2.0707357,-1.0087464,-34.109085,-38.412594,-8.223851
2.7619488,1.3756729,-0.92134386,-35.450645,-38.140358,-12.788674
2.7534144,0.63362086,-0.8183416,-35.489384,-37.202316,-15.839128
2.7202706,-0.051278196,-0.70003897,-34.81883,-35.8018,-17.424797
2.6245694,-0.62755346,-0.5749108,-33.25765,-34.04594,-17.492218
2.4471667,-1.0477271,-0.43275708,-30.88895,-32.220394,-16.83412
2.2487009,-1.3111291,-0.27000797,-27.984774,-30.43872,-15.764509
2.064917,-1.4647272,-0.07990008,-25.215277,-28.613838,-14.358154
1.9260013,-1.5481089,0.13860725,-22.820225,-26.79628,-12.413602
1.862548,-1.5927588,0.39451918,-20.45347,-24.310436,-9.7828045
1.8849645,-1.5993942,0.66959345,-17.986322,-21.027575,-6.915018
1.9279752,-1.5745833,0.92594945,-15.460275,-16.952799,-4.1637135
1.9689233,-1.5381848,1.1324267,-12.585836,-12.454291,-1.8721375
1.99805,-1.5155642,1.2778627,-9.241297,-7.9388094,-0.21732086
2.0326524,-1.4977034,1.3730794,-5.745048,-3.3027978,0.80074817
2.0871348,-1.4687831,1.3960667,-2.821648,1.1364118,1.7100123
2.1230764,-1.4245259,1.3558087,-0.21737038,5.4089074,2.5602577
2.1124632,-1.3554883,1.2446512,2.0027604,9.224407,3.234384
2.0765705,-1.2649342,1.0838943,4.203007,12.817154,3.5700538
2.0230565,-1.1614441,0.87473494,6.435056,16.136627,3.232679
1.9529145,-1.0645552,0.60930955,8.67204,19.076178,2.5704195
1.8749506,-0.9743133,0.30611768,10.458127,21.515455,1.8100755
1.7822689,-0.89543885,-0.034531217,11.607959,23.203342,1.112873
1.6796232,-0.8327545,-0.3972121,11.858087,23.843193,0.5358498
1.5894647,-0.8029113,-0.7618513,11.653316,23.193605,0.024778439
1.5325595,-0.80388606,-1.1441147,11.07407,21.663094,-0.35766733
1.5039074,-0.8162676,-1.5235912,10.802982,20.087158,-0.77810544
1.4742461,-0.846278,-1.9140456,11.3737,18.839218,-1.6484612
1.4154236,-0.9109716,-2.3132627,12.64749,17.62431,-3.2076766
1.3364859,-1.0151023,-2.718503,14.851828,15.755166,-5.287874
1.3161839,-1.1569434,-3.1040244,17.247358,13.382197,-6.7419286
1.3859819,-1.3354858,-3.407936,19.708397,11.190919,-6.59263
1.4506872,-1.4987011,-3.656409,19.907415,7.9017787,-4.3353243
1.4636432,-1.6265451,-3.824982,18.494144,3.0781295,-0.62186307
1.4357947,-1.6609784,-3.858892,16.436111,-2.8207655,3.0047781
1.4254359,-1.5541458,-3.6544814,14.906326,-8.056207,6.2743278
1.4289467,-1.3031559,-3.3219042,12.399893,-12.994552,9.404775
1.4432838,-0.9898662,-2.893591,9.021698,-17.917368,11.944329
1.5039718,-0.68914163,-2.3700447,5.5842505,-22.079185,13.491743
1.609635,-0.4451867,-1.8062581,1.9656816,-24.758583,14.194711
1.7381529,-0.29830733,-1.2805276,-1.7605824,-26.503534,14.614255
1.8405713,-0.21270804,-0.8246437,-4.929969,-27.252947,14.268351
1.8894,-0.17005524,-0.46010312,-7.478425,-27.394472,13.49648
1.9011791,-0.14448403,-0.17492606,-9.628833,-27.036861,12.830428
1.8972039,-0.133159,0.03501145,-11.421361,-26.090878,12.349324
1.888383,-0.19073156,0.16647305,-11.782334,-24.270403,11.637763
1.8468771,-0.26482493,0.21767272,-11.121757,-22.216587,10.678348
1.7552702,-0.32207927,0.20781143,-10.436319,-20.984697,9.83416
1.655915,-0.351642,0.18475583,-9.8744755,-20.338795,9.412041
1.5689056,-0.34465083,0.15942292,-10.170037,-20.160099,9.647389
1.4968506,-0.33625087,0.13025382,-10.732,-20.119297,9.925033
1.4571117,-0.34311265,0.12001981,-10.784009,-19.436493,10.025348
1.4343771,-0.34796888,0.11371715,-10.292794,-17.8473,9.8813305
1.4041226,-0.34304956,0.10310193,-10.054401,-15.558788,9.636684
1.3659946,-0.33440194,0.08098231,-10.242285,-12.857269,9.208619
1.3061222,-0.32361728,0.040994734,-10.793091,-10.56823,8.843822
1.2472694,-0.3082597,0.008565403,-11.825104,-8.622985,8.708381
1.2082402,-0.2986137,0.008297376,-11.455075,-8.353156,8.43588
1.1704444,-0.28927255,0.00803782,-11.096742,-8.091856,8.171991
1.1338421,-0.28022638,0.00778646,-10.7497225,-7.838806,7.9164357
1.0983945,-0.2714656,0.0075430307,-10.413651,-7.59374,7.6689425
1.0640644,-0.262981,0.0073072747,-10.088175,-7.356399,7.429251
1.0308156,-0.25476363,0.0070789442,-9.77295,-7.126534,7.1971097
0.99861336,-0.24680494,0.006857801,-9.467648,-6.903904,6.972275
0.96742404,-0.23909657,0.006643614,-9.1719475,-6.688277,6.7545123
0.9372151,-0.2316305,0.0064361594,-8.885543,-6.479428,6.543595
0.9079552,-0.22439899,0.0062352223,-8.608136,-6.2771397,6.3393035
0.879614,-0.21739452,0.006040594,-8.339438,-6.081203,6.1414266
0.8521622,-0.21060987,0.0058520734,-8.079173,-5.891415,5.949759
0.82557136,-0.20403801,0.0056694658,-7.8270717,-5.7075796,5.7641034
0.7998142,-0.1976722,0.0054925834,-7.582874,-5.529508,5.584268
0.77486426,-0.19150586,0.005321244,-7.346328,-5.3570166,5.4100685
0.7506958,-0.18553269,0.005155271,-7.117192,-5.1899285,5.2413254
0.72728413,-0.17974655,0.0049944953,-6.895231,-5.028072,5.077866
0.7046053,-0.17414153,0.0048387526,-6.680217,-4.8712816,4.9195232
0.682636,-0.16871187,0.0046878825,-6.471931,-4.7193975,4.7661347
0.66135395,-0.16345207,0.004541732,-6.27016,-4.572264,4.617544
0.6407374,-0.15835674,0.0044001513,-6.0746994,-4.429732,4.4736004
0.6207654,-0.1534207,0.004262997,-5.8853483,-4.2916555,4.3341565
0.60141754,-0.14863893,0.004130129,-5.7019157,-4.1578946,4.199071
0.58267426,-0.14400657,0.0040014125,-5.5242143,-4.0283127,4.0682063
0.5645165,-0.13951892,0.0038767173,-5.352064,-3.9027793,3.9414294
0.5469258,-0.13517141,0.0037559164,-5.1852903,-3.7811663,3.8186119
0.5298844,-0.13095967,0.0036388875,-5.0237246,-3.6633506,3.6996295
0.513375,-0.12687941,0.003525512,-4.8672023,-3.5492132,3.5843618
0.4973809,-0.12292652,0.0034156756,-4.7155657,-3.4386382,3.4726918
0.48188597,-0.11909698,0.0033092669,-4.5686617,-3.3315141,3.3645067
0.46687454,-0.11538694,0.0032061785,-4.426341,-3.2277327,3.2596977
0.45233145,-0.11179265,0.0031063063,-4.288461,-3.1271892,3.1581583
0.438242,-0.108310476,0.0030095496,-4.154882,-3.0297818,3.0597863
0.42459202,-0.10493691,0.0029158108,-4.0254693,-2.9354126,2.9644828
0.4113677,-0.10166856,0.0028249952,-3.9000921,-2.8439867,2.8721514
0.39855576,-0.098502114,0.0027370115,-3.778625,-2.7554114,2.7826989
0.3861433,-0.095434405,0.002651771,-3.6609447,-2.6695979,2.6960356
0.3741178,-0.09246233,0.002569188,-3.5469334,-2.5864596,2.612074
0.36246717,-0.0895829,0.0024891791,-3.4364762,-2.5059133,2.5307298
0.35117966,-0.08679323,0.0024116645,-3.329462,-2.4278772,2.451921
0.340244,-0.0840905,0.0023365656,-3.225783,-2.3522735,2.3755686
0.32964912,-0.081472,0.0022638072,-3.1253352,-2.279026,2.3015957
0.3193844,-0.0789351,0.0021933161,-3.0280175,-2.208061,2.229928
0.30943954,-0.07647725,0.0021250215,-2.9337325,-2.1393073,2.1604934
0.29980457,-0.07409599,0.0020588548,-2.842385,-2.072696,2.0932221
0.29046977,-0.071788915,0.0019947498,-2.7538838,-2.0081599,2.028047
0.28142577,-0.06955371,0.0019326418,-2.6681397,-1.9456344,1.9649024
0.27266353,-0.06738815,0.0018724687,-2.5850666,-1.8850567,1.9037249
0.26417425,-0.06529004,0.00181417,-2.5045815,-1.8263662,1.8444531
0.2559494,-0.06325729,0.0017576874,-2.4266036,-1.7695038,1.7870276
0.24798076,-0.061287858,0.0017029641,-2.3510544,-1.7144126,1.7313908
0.2402603,-0.059379768,0.0016499453,-2.2778583,-1.6610373,1.6774869
0.23278031,-0.057531103,0.0015985777,-2.206942,-1.6093245,1.6252619
0.22553328,-0.055740017,0.00154881,-2.1382344,-1.5592222,1.5746635
0.21851195,-0.05400471,0.0015005922,-2.0716667,-1.5106802,1.5256408
0.21170928,-0.052323446,0.0014538761,-2.0071719,-1.46365,1.4781449
0.20511845,-0.05069454,0.0014086148,-1.9446857,-1.4180844,1.4321281
0.19873287,-0.04911636,0.0013647629,-1.8841453,-1.3739377,1.3875442
0.19254613,-0.04758732,0.0013222765,-1.82549,-1.3311658,1.3443485
0.18655203,-0.046105895,0.0012811131,-1.7686613,-1.2897257,1.3024981
0.18074459,-0.044670597,0.0012412316,-1.7136021,-1.249576,1.2619509
0.17511797,-0.043279994,0.0012025918,-1.6602573,-1.2106764,1.222666
0.16966656,-0.041932687,0.0011651551,-1.6085736,-1.172988,1.1846044
0.16438487,-0.04062733,0.001128884,-1.558499,-1.1364732,1.147728
0.15926763,-0.039362617,0.0010937423,-1.5099835,-1.1010952,1.1119996
0.15430972,-0.038137283,0.0010596948,-1.4629786,-1.0668187,1.0773838
0.14950617,-0.036950096,0.0010267072,-1.4174372,-1.0336095,1.0438455
0.14485218,-0.035799872,0.0009947468,-1.3733135,-1.0014341,1.0113516
0.14034308,-0.03468546,0.0009637814,-1.3305638,-0.97026056,0.97986925
0.13597436,-0.033605743,0.00093378,-1.2891449,-0.94005746,0.94936705
0.13174166,-0.03255964,0.0009047126,-1.2490155,-0.91079473,0.9198145
0.12764072,-0.031546105,0.0008765502,-1.2101355,-0.88244295,0.891182
0.12366747,-0.030564124,0.00084926456,-1.1724658,-0.85497385,0.8634409
0.119817905,-0.029612713,0.0008228283,-1.1359688,-0.82835996,0.83656335
0.11608818,-0.02869092,0.0007972151,-1.1006081,-0.8025745,0.8105226
0.11247457,-0.027797824,0.0007723993,-1.0663482,-0.7775919,0.7852925
0.10897345,-0.026932532,0.000748356,-1.0331548,-0.7533869,0.76084787
0.10558133,-0.026094176,0.00072506117,-1.0009948,-0.7299355,0.7371642
0.1022948,-0.02528192,0.0007024915,-0.9698359,-0.7072141,0.71421784
0.09911059,-0.024494948,0.00068062445,-0.939647,-0.6852001,0.6919858
0.0960255,-0.023732474,0.00065943814,-0.9103979,-0.66387135,0.6704458
0.09303644,-0.022993736,0.0006389113,-0.8820593,-0.64320654,0.64957637
0.09014043,-0.022277996,0.0006190235,-0.8546028,-0.62318504,0.62935656
0.08733458,-0.021584535,0.0005997548,-0.82800114,-0.60378677,0.6097662
0.08461607,-0.020912662,0.0005810859,-0.8022275,-0.5849924,0.5907857
0.08198218,-0.020261703,0.0005629982,-0.77725613,-0.566783,0.572396
0.07943029,-0.019631008,0.0005454735,-0.7530621,-0.5491405,0.5545788
