ax,ay,az,gx,gy,gz
-0.8000073,-0.8609169,-8.713716,56.319603,-57.928707,-12.761934
-1.1187602,-0.817598,-9.692038,45.01466,-86.51257,-17.761057
-0.9026397,-0.91047657,-9.765708,31.493185,-102.32328,-26.045397
-0.42266014,-1.1385206,-9.7295475,19.390585,-112.01368,-31.75715
0.25561723,-1.6776602,-9.545154,11.566423,-115.44315,-33.222725
0.8286066,-2.2925115,-9.392547,10.753302,-115.156,-26.99737
1.0170628,-2.6386948,-9.30255,14.63701,-115.19325,-20.347797
0.9349952,-2.6318216,-9.1761875,20.176226,-117.09291,-15.052523
0.7114943,-2.3838315,-8.932091,23.60326,-120.23262,-11.054622
0.45625818,-2.1126692,-8.574007,25.439247,-123.86445,-7.074578
0.26287445,-1.8691584,-8.107723,24.244833,-128.30281,-1.1884807
0.229544,-1.6796939,-7.4392843,21.256884,-132.7666,6.1441426
0.3173628,-1.4457127,-6.633429,16.861689,-136.02411,13.671196
0.47746626,-1.2118068,-5.7560935,12.466263,-137.92285,19.412615
0.68697333,-0.9884242,-4.8393846,9.336929,-137.50116,21.932283
0.9223917,-0.79231566,-3.9265928,7.7078166,-134.268,22.796528
1.0980427,-0.6038397,-3.0565681,6.4609933,-130.51205,23.768658
1.1977715,-0.4148209,-2.2403624,5.406292,-126.678696,24.722376
1.3069214,-0.22978123,-1.4573923,4.4789915,-122.42285,25.448904
1.445722,-0.062155645,-0.73516124,3.7524316,-117.36048,25.340126
1.5842655,0.06359234,-0.1047887,3.2162418,-110.939354,23.811201
1.7210974,0.10621883,0.41419667,2.738956,-104.00395,22.005419
1.8646703,0.096311115,0.85471654,2.1843398,-96.58674,20.48291
1.9885832,0.064809985,1.2074609,1.8012278,-88.76147,19.312037
2.058493,0.035678413,1.455442,2.210417,-81.30212,18.02388
2.0966363,1.9174158e-05,1.6444527,3.268898,-73.96705,16.473793
2.1030467,-0.031455655,1.7755063,4.5233135,-66.71205,14.935045
2.094288,-0.029015502,1.8597035,5.53015,-59.796455,13.313707
2.1149464,0.00397211,1.937059,5.828189,-53.28401,11.791497
2.1809983,0.05326781,2.024335,5.4250884,-46.573666,10.639554
2.2543857,0.12656112,2.0802312,4.6165,-39.63225,9.632693
2.310236,0.21430466,2.0578835,3.7730355,-32.262997,8.32683
2.3121877,0.27660465,1.9399072,3.1945753,-24.87002,6.7869215
2.24803,0.32189575,1.7311076,2.878688,-17.911106,5.054831
2.1503196,0.37739524,1.4598397,2.2975707,-11.996118,3.3462842
2.0688622,0.4533088,1.1696543,0.84873617,-7.4680896,1.9554608
2.026809,0.5568925,0.8725728,-1.0093905,-3.6582403,0.64644945
2.0013287,0.6562674,0.57118756,-3.0427969,-0.33956707,-0.92649674
1.9820268,0.7460546,0.26309893,-5.1993394,2.4449403,-2.7981384
1.9608177,0.8395147,-0.052540213,-7.3882985,4.5159163,-5.043672
1.9405854,0.90459377,-0.35693777,-9.560446,5.9258037,-7.355958
1.8915645,0.95934755,-0.64107454,-11.752832,6.7838464,-9.463203
1.8057383,1.014382,-0.89767224,-13.833022,7.217612,-11.579261
1.682301,1.0717535,-1.1267653,-15.889675,7.1890917,-13.9156
1.5254513,1.1250335,-1.333349,-18.016693,6.4546638,-16.57103
1.3567249,1.1459517,-1.5161561,-20.336643,4.724478,-19.641113
1.2106283,1.0920396,-1.6643277,-22.723124,2.3493836,-22.635126
1.0934453,0.9933633,-1.7805518,-25.113129,-0.46096003,-25.34846
0.99956834,0.8373009,-1.8666896,-27.182722,-3.362734,-27.65977
0.91716105,0.62833714,-1.9346447,-28.812624,-6.3196583,-29.65221
0.8439337,0.38602892,-1.9859222,-29.52064,-9.361095,-31.433207
0.7935932,0.100551456,-2.006968,-29.683157,-12.385881,-32.740128
0.75956494,-0.21022043,-2.0032275,-29.352154,-15.352776,-33.09611
0.7247534,-0.52600914,-1.9781399,-28.605236,-18.344196,-32.561676
0.6983588,-0.85274684,-1.9172134,-27.437212,-21.074738,-31.115002
0.6911197,-1.1789739,-1.8285317,-25.722025,-23.324055,-28.617754
0.70663667,-1.4695318,-1.7263787,-23.698055,-25.20636,-25.63153
0.7477785,-1.7306157,-1.6180519,-21.387175,-26.740608,-22.323158
0.8348173,-1.9587594,-1.4949841,-18.810131,-27.918816,-18.644762
0.96645,-2.1437156,-1.3544981,-15.467799,-28.904083,-14.7849245
1.1607444,-2.2302902,-1.1690731,-11.634669,-28.754272,-11.110758
1.4023411,-2.1986609,-0.9271907,-7.7755494,-27.516224,-7.373418
1.6118813,-2.0379212,-0.6785607,-4.1275187,-25.360561,-3.2847009
1.7387326,-1.7369269,-0.4610254,-1.028639,-22.78935,0.6450453
1.768084,-1.3488109,-0.29638875,1.1429852,-20.033451,3.862537
1.7087116,-0.9373711,-0.20020953,1.9372361,-17.565628,6.0647855
1.5843426,-0.542047,-0.1835058,1.7597467,-15.65497,7.4391713
1.4612631,-0.21548362,-0.2047315,0.81308365,-14.334072,8.03493
1.3667527,0.018663054,-0.24724843,-0.46628913,-13.20573,8.185708
1.3025723,0.165768,-0.30772993,-1.7651284,-12.171583,8.144615
1.249509,0.24445146,-0.38402662,-2.2744334,-11.465326,7.8716965
1.1928966,0.2849129,-0.45747364,-2.4699306,-10.972707,7.2526774
1.145459,0.2849792,-0.51829964,-2.5290911,-10.7192545,6.510719
1.1132216,0.24803141,-0.558315,-2.4140246,-10.568978,5.932556
1.0882516,0.20105045,-0.57414454,-2.072651,-10.330848,5.6150827
1.066377,0.14896137,-0.57461464,-1.3735315,-9.866812,5.5455565
1.0591258,0.103250355,-0.5508539,-0.33063722,-9.022343,5.6712317
1.0577005,0.06869078,-0.517886,1.1004978,-7.6000605,5.819822
1.0531662,0.050367236,-0.48598775,2.750984,-5.5864563,6.0001945
1.0282536,0.052247357,-0.4792726,4.4211664,-3.4244177,6.1650815
0.98275435,0.08043527,-0.4976306,5.3413496,-1.8955675,6.203513
0.92861587,0.12490331,-0.52339315,5.693918,-0.9212957,6.0581837
0.899403,0.12097403,-0.50692797,5.514796,-0.89231306,5.867602
0.8711274,0.117170826,-0.4909911,5.341421,-0.8642604,5.6831355
0.8437575,0.11348944,-0.47556466,5.1735992,-0.8371062,5.504577
0.8172627,0.10992576,-0.4606315,5.011143,-0.8108203,5.3317285
0.79161364,0.106475845,-0.44617498,4.853873,-0.7853734,5.164397
0.7667821,0.103135884,-0.43217924,4.7016153,-0.7607376,5.0023985
0.74274087,0.09990222,-0.41862896,4.5542035,-0.7368859,4.8455563
0.71946377,0.09677134,-0.40550932,4.411477,-0.71379226,4.6936994
0.6969255,0.09373984,-0.3928062,4.2732816,-0.69143176,4.5466623
0.67510194,0.09080446,-0.3805058,4.1394677,-0.6697802,4.404288
0.65396947,0.087962046,-0.368595,4.0098915,-0.6488143,4.2664223
0.63350564,0.085209556,-0.357061,3.8844147,-0.6285117,4.1329184
0.6136885,0.08254406,-0.34589154,3.762904,-0.60885084,4.0036335
0.59449714,0.07996273,-0.33507475,3.6452298,-0.5898108,3.8784313
0.5759113,0.07746284,-0.32459927,3.5312681,-0.57137144,3.7571793
0.5579113,0.07504175,-0.31445396,3.420899,-0.5535133,3.6397493
0.5404782,0.072696924,-0.30462822,3.3140063,-0.5362177,3.5260181
0.5235939,0.0704259,-0.29511178,3.210478,-0.51946646,3.4158669
0.5072407,0.068226315,-0.28589463,3.1102064,-0.50324214,3.3091803
0.49140152,0.066095866,-0.27696726,3.0130866,-0.48752785,3.2058473
0.47605994,0.06403235,-0.26832032,2.919018,-0.4723072,3.1057606
0.46120006,0.062033627,-0.2599449,2.8279028,-0.45756444,3.0088162
0.4468065,0.06009762,-0.25183228,2.739647,-0.44328433,2.9149144
0.43286437,0.058222342,-0.24397413,2.6541593,-0.42945215,2.8239577
0.41935936,0.056405853,-0.23636234,2.5713518,-0.4160536,2.7358525
0.40627757,0.054646287,-0.22898908,2.491139,-0.40307492,2.6505084
0.39360553,0.05294184,-0.22184679,2.413439,-0.39050278,2.5678375
0.3813303,0.05129076,-0.21492814,2.338172,-0.37832433,2.4877553
0.3694393,0.049691364,-0.20822604,2.265261,-0.36652705,2.4101796
0.35792038,0.048142012,-0.20173365,2.194631,-0.3550989,2.3350315
0.34676173,0.046641123,-0.19544435,2.1262107,-0.34402826,2.262234
0.33595204,0.045187168,-0.18935171,2.0599298,-0.33330378,2.1917129
0.3254803,0.043778665,-0.18344955,1.995721,-0.32291457,2.1233962
0.3153358,0.042414185,-0.17773184,1.933519,-0.31285006,2.0572147
0.30550832,0.04109234,-0.1721928,1.8732605,-0.30310002,1.9931014
0.2959878,0.039811786,-0.16682678,1.8148844,-0.29365456,1.9309907
0.28676465,0.038571227,-0.16162835,1.7583314,-0.28450412,1.8708198
0.27782947,0.037369404,-0.15659225,1.7035444,-0.27563938,1.8125278
0.26917326,0.036205098,-0.15171337,1.6504678,-0.2670514,1.7560556
0.26078725,0.03507714,-0.14698678,1.5990478,-0.25873148,1.701346
0.25266293,0.033984378,-0.14240769,1.5492326,-0.2506712,1.6483439
0.2447921,0.032925718,-0.13797149,1.5009718,-0.24286243,1.5969957
0.23716685,0.03190008,-0.13367368,1.4542167,-0.23529729,1.5472494
0.22977947,0.030906444,-0.12950996,1.40892,-0.22796813,1.4990549
0.22262248,0.029943796,-0.12547609,1.3650361,-0.22086757,1.4523636
0.2156887,0.02901117,-0.12156802,1.3225209,-0.21398845,1.4071285
0.20897114,0.028107625,-0.11778182,1.2813313,-0.20732383,1.3633038
0.20246302,0.02723225,-0.114113666,1.241426,-0.20086703,1.3208456
0.1961578,0.026384167,-0.110559866,1.2027647,-0.1946115,1.279711
0.19004913,0.025562521,-0.107116856,1.1653087,-0.18855098,1.2398587
0.18413086,0.024766486,-0.10378116,1.1290202,-0.18267937,1.2012486
0.17839706,0.023995262,-0.10054943,1.0938627,-0.17699076,1.163842
0.17284194,0.023248073,-0.09741842,1.0598009,-0.17147945,1.127601
0.16745993,0.022524167,-0.094384976,1.0268004,-0.16613987,1.0924895
0.16224563,0.02182282,-0.09144606,0.99482834,-0.16096666,1.058472
0.15719381,0.021143325,-0.088598706,0.96385247,-0.15595466,1.0255144
0.15229937,0.020484999,-0.08584007,0.9338417,-0.15109882,0.9935837
0.14755742,0.019847184,-0.08316738,0.90476584,-0.14639425,0.9626478
0.1429632,0.019229239,-0.08057795,0.87659585,-0.14183624,0.9326756
0.13851209,0.018630544,-0.07806919,0.84930336,-0.13742022,0.90363705
0.13419963,0.018050497,-0.07563857,0.822861,-0.13314176,0.87550306
0.13002151,0.017488519,-0.07328366,0.7972423,-0.12899657,0.84824544
0.12597351,0.016944043,-0.071002096,0.77242154,-0.12498047,0.82183677
0.1220516,0.016416527,-0.0687916,0.7483738,-0.12108947,0.79625064
0.11825182,0.01590544,-0.06664994,0.72507507,-0.11731966,0.77146137
0.114570394,0.01541027,-0.06457499,0.70250195,-0.11366724,0.74744415
0.11100361,0.014930519,-0.062564656,0.68063176,-0.110128574,0.72417486
0.1075479,0.01446571,-0.06061692,0.6594427,-0.10670011,0.7016302
0.104199804,0.014015375,-0.058729842,0.63891345,-0.10337841,0.6797876
0.10095597,0.013579063,-0.05690153,0.6190235,-0.100160144,0.6586252
0.09781314,0.013156338,-0.055130146,0.59975284,-0.09704209,0.6381217
0.094768174,0.0127467755,-0.05341392,0.5810823,-0.09402113,0.61825675
0.09181802,0.012349966,-0.051751133,0.5629931,-0.091094226,0.5990103
0.08895973,0.011965511,-0.05014012,0.54546714,-0.08825847,0.5803631
0.08619043,0.011593028,-0.048579272,0.52848685,-0.085511,0.5622965
0.08350736,0.011232141,-0.047067016,0.51203525,-0.08284908,0.5447924
0.08090782,0.010882491,-0.04560185,0.4960959,-0.08027003,0.52783334
0.07838922,0.010543727,-0.044182297,0.48065278,-0.07777128,0.5114023
0.075949036,0.010215511,-0.04280694,0.4656905,-0.07535033,0.4954828
0.07358482,0.009897512,-0.041474406,0.45119402,-0.07300475,0.48005894
0.07129421,0.009589414,-0.040183354,0.4371489,-0.070732206,0.46511525
0.069074914,0.009290908,-0.0389325,0.423541,-0.0685304,0.45063683
0.066924706,0.009001696,-0.037720587,0.4103568,-0.066397145,0.43660915
0.06484145,0.008721487,-0.0365464,0.397583,-0.06433031,0.4230182
0.062823035,0.008450001,-0.035408773,0.3852069,-0.06232781,0.4098503
0.060867466,0.008186967,-0.03430656,0.3732161,-0.060387652,0.39709237
0.058972776,0.007932122,-0.03323866,0.36159855,-0.058507897,0.38473162
0.057137065,0.00768521,-0.032204002,0.3503427,-0.05668666,0.37275568
0.055358503,0.007445985,-0.031201558,0.33943722,-0.05492212,0.36115253
0.053635307,0.007214207,-0.03023032,0.32887125,-0.053212505,0.34991062
0.05196576,0.0069896444,-0.029289315,0.31863418,-0.051556114,0.33901864
0.050348178,0.0067720725,-0.028377602,0.30871582,-0.04995129,0.32846576
0.048780955,0.0065612732,-0.027494272,0.2991062,-0.04839642,0.31824136
0.04726252,0.006357036,-0.02663844,0.28979573,-0.046889953,0.30833527
0.04579135,0.006159157,-0.02580925,0.2807751,-0.04543038,0.29873753
0.044365976,0.0059674378,-0.025005871,0.27203524,-0.044016246,0.28943858
0.042984977,0.0057816864,-0.024227502,0.26356748,-0.04264613,0.28042907
0.041646965,0.005601717,-0.023473362,0.2553633,-0.041318666,0.27170002
