ax,ay,az,gx,gy,gz
4.2200384,-5.455504,-2.9845726,43.22403,39.284904,-40.56128
5.068608,-6.709325,-3.8381286,47.813347,39.963913,-25.888346
5.7098956,-8.076212,-4.6065755,71.45573,47.148243,-6.51573
6.0634236,-9.174122,-5.429233,90.88422,51.459248,17.70131
6.321024,-9.703672,-6.0868144,106.74398,51.566338,47.627323
6.580012,-9.757676,-6.5967193,120.65374,49.53754,78.70396
6.9172745,-9.382635,-6.9781265,132.84282,46.840347,109.285416
7.3203754,-8.756238,-7.294914,140.78517,41.93582,139.5703
7.705165,-7.9483232,-7.6356845,147.64275,37.090763,166.77965
7.8279023,-6.953422,-7.977085,155.90622,31.931961,190.99431
7.5703783,-5.4474535,-8.170343,166.08336,24.307922,211.13493
6.9540057,-3.0689838,-7.942611,168.54895,10.876651,223.88527
6.1590753,-0.19982934,-7.125987,155.53122,-5.4619575,223.42468
5.2878475,2.471706,-5.8905115,135.66681,-17.86342,214.14322
4.4407907,4.514106,-4.667239,115.42238,-24.686663,198.05505
3.6984293,6.0175805,-3.6891642,98.19921,-26.66916,176.18587
3.169403,7.0512533,-2.9653406,83.71289,-24.441824,150.12053
2.8764331,7.665035,-2.5389745,71.23672,-18.508547,121.2194
2.8219268,7.795137,-2.4876895,59.785637,-12.2435875,92.14973
2.9749527,7.5522356,-2.6065316,48.755318,-5.9560504,63.79424
3.3494334,6.9299197,-2.829019,38.162487,0.0674171,37.113087
3.9046814,5.8779716,-3.129954,30.205229,3.890096,15.565159
4.5070915,4.40954,-3.4176645,26.572115,3.0139549,6.7006
5.0869455,2.8584647,-3.5654602,25.250235,0.5853462,7.537191
5.568739,1.64103,-3.6572669,26.639257,-1.8658903,13.814394
5.9269686,0.7371775,-3.7278643,30.111076,-3.396604,22.863777
6.199384,0.09832456,-3.8122962,34.782143,-4.1560946,33.563763
6.41194,-0.3433363,-3.947105,42.90928,-4.553339,45.445374
6.565896,-0.6646646,-4.165133,54.14567,-5.821298,57.229664
6.68804,-0.84522843,-4.4156513,65.301735,-7.857892,69.51009
6.790747,-0.90771407,-4.621995,74.988365,-10.454571,83.35758
6.851669,-0.67510617,-4.7583036,82.2212,-12.460479,98.90722
6.677432,0.1384382,-4.865467,84.67826,-17.289272,110.14473
6.2449927,1.3968754,-4.760121,83.04436,-24.027552,115.547386
5.74433,2.6172366,-4.5020566,79.34999,-30.771877,116.00928
5.218869,3.7547019,-4.181637,74.24085,-36.504765,112.427864
4.7078185,4.7503486,-3.8750625,68.951256,-41.16078,104.74747
4.251108,5.569444,-3.6095357,63.40916,-44.636116,92.61681
3.944242,6.178644,-3.4186878,56.306942,-47.601337,78.79885
3.799506,6.6136065,-3.2826746,46.958984,-50.10118,64.14704
3.8097339,6.8419337,-3.231745,35.968723,-51.478218,49.065067
3.9446185,6.802657,-3.2867804,27.109734,-52.009315,33.308243
4.171042,6.5508695,-3.3672957,22.579731,-52.751335,18.027035
4.5042753,6.147839,-3.3551877,19.316309,-53.646275,4.980677
4.882066,5.6787624,-3.2633736,16.258266,-54.55433,-4.9287047
5.2475286,5.1977625,-3.1047273,12.200059,-55.58976,-11.569978
5.5551167,4.705711,-2.9052346,7.12949,-56.308598,-15.619944
5.7678275,4.2021255,-2.7015316,1.7729392,-55.91388,-17.359703
5.8328514,3.7271867,-2.521802,-3.889454,-54.496544,-17.777096
5.800749,3.28137,-2.3879535,-9.096562,-52.137722,-17.22611
5.6883783,2.8634088,-2.3061328,-13.153903,-49.292328,-16.002851
5.497466,2.7673078,-2.228735,-12.712435,-47.63799,-15.465768
5.3138113,2.6748598,-2.1542792,-12.287748,-46.04654,-14.9491005
5.1370597,2.5858867,-2.082622,-11.8790245,-44.514908,-14.451853
4.966881,2.5002224,-2.0136297,-11.4855,-43.040234,-13.973097
4.802967,2.4177115,-1.947177,-11.106463,-41.619846,-13.511966
4.6450295,2.3382092,-1.8831475,-10.741245,-40.251247,-13.067648
4.4927983,2.2615795,-1.8214313,-10.389224,-38.9321,-12.639383
4.346021,2.1876948,-1.761926,-10.049813,-37.660206,-12.22646
4.2044587,2.1164353,-1.7045351,-9.722463,-36.433506,-11.828211
4.0678883,2.0476887,-1.649168,-9.406655,-35.250065,-11.444003
3.9360988,1.9813486,-1.595739,-9.101903,-34.108047,-11.073246
3.8088913,1.917315,-1.5441676,-8.807746,-33.005737,-10.715379
3.6860778,1.8554933,-1.4943776,-8.523749,-31.941505,-10.369873
3.5674808,1.7957941,-1.446297,-8.249504,-30.913809,-10.03623
3.4529324,1.7381328,-1.3998578,-7.98462,-29.921196,-9.713976
3.3422728,1.6824292,-1.3549951,-7.728729,-28.96228,-9.402662
3.2353508,1.6286069,-1.3116478,-7.4814806,-28.035755,-9.101864
3.1320229,1.5765939,-1.2697575,-7.2425437,-27.140373,-8.811176
3.0321524,1.5263212,-1.2292689,-7.0116014,-26.27495,-8.530215
2.9356093,1.4777235,-1.1901293,-6.7883534,-25.438362,-8.258615
2.84227,1.4307383,-1.1522883,-6.5725136,-24.629534,-7.996027
2.7520158,1.3853064,-1.1156983,-6.3638086,-23.847443,-7.74212
2.6647346,1.3413708,-1.0803136,-6.1619782,-23.091112,-7.4965754
2.5803185,1.2988776,-1.0460902,-5.9667726,-22.359608,-7.2590914
2.4986646,1.2577747,-1.0129869,-5.777955,-21.65204,-7.029378
2.4196746,1.2180128,-0.9809634,-5.595297,-20.967558,-6.807159
2.3432543,1.1795444,-0.9499818,-5.4185815,-20.305342,-6.5921693
2.2693136,1.1423242,-0.9200054,-5.2475996,-19.664612,-6.3841553
2.1977658,1.1063087,-0.89099914,-5.0821514,-19.044619,-6.1828737
2.1285284,1.071456,-0.86292946,-4.9220457,-18.444645,-5.988091
2.0615215,1.0377262,-0.8357641,-4.767098,-17.864002,-5.7995834
1.996669,1.0050808,-0.8094722,-4.6171317,-17.302025,-5.617137
1.9338975,0.97348297,-0.7840239,-4.4719777,-16.758081,-5.4405446
1.8731364,0.94289714,-0.7593907,-4.331473,-16.23156,-5.2696085
1.8143182,0.91328925,-0.7355451,-4.1954603,-15.721874,-5.104138
1.7573774,0.88462645,-0.71246064,-4.06379,-15.228457,-4.9439487
1.7022516,0.85687727,-0.690112,-3.9363155,-14.750767,-4.788866
1.6488801,0.83001125,-0.6684746,-3.8128986,-14.28828,-4.6387186
1.597205,0.8039991,-0.647525,-3.6934044,-13.840493,-4.4933434
1.5471704,0.77881277,-0.62724036,-3.5777035,-13.40692,-4.3525834
1.4987222,0.7544249,-0.6075989,-3.4656708,-12.987094,-4.216286
1.4518082,0.73080945,-0.5885795,-3.3571863,-12.5805645,-4.0843053
1.4063785,0.7079411,-0.57016176,-3.2521338,-12.186896,-3.9565
1.3623847,0.68579555,-0.55232614,-3.1504018,-11.80567,-3.832734
1.31978,0.66434926,-0.53505373,-3.051882,-11.436481,-3.7128763
1.2785195,0.64357954,-0.5183262,-2.9564703,-11.07894,-3.5967999
1.2385596,0.6234646,-0.50212604,-2.8640664,-10.73267,-3.4843826
1.1998583,0.6039832,-0.48643613,-2.774573,-10.397306,-3.3755062
1.1623752,0.585115,-0.47124007,-2.6878965,-10.072499,-3.2700567
1.1260712,0.56684035,-0.456522,-2.6039464,-9.757908,-3.1679242
1.0909083,0.5491401,-0.44226658,-2.5226352,-9.453206,-3.0690022
1.0568501,0.5319959,-0.428459,-2.4438784,-9.158076,-2.9731877
1.0238613,0.51539004,-0.41508493,-2.3675942,-8.872213,-2.8803818
0.99190766,0.49930525,-0.40213057,-2.2937043,-8.595321,-2.790488
0.9609562,0.48372498,-0.3895825,-2.2221317,-8.327113,-2.703414
0.9309752,0.46863315,-0.37742788,-2.152803,-8.067314,-2.6190696
0.90193367,0.45401427,-0.3656541,-2.0856469,-7.8156567,-2.5373685
0.8738019,0.4398533,-0.35424915,-2.0205944,-7.5718822,-2.4582267
0.84655094,0.42613578,-0.3432013,-1.9575789,-7.3357406,-2.3815627
0.820153,0.4128476,-0.3324993,-1.8965358,-7.1069903,-2.3072987
0.794581,0.3999752,-0.3221321,-1.8374027,-6.885398,-2.2353582
0.76980895,0.38750547,-0.31208923,-1.7801194,-6.670737,-2.165668
0.74581146,0.37542567,-0.30236042,-1.7246273,-6.4627886,-2.0981572
0.7225643,0.36372352,-0.29293573,-1.67087,-6.2613406,-2.0327568
0.70004356,0.35238707,-0.28380558,-1.6187928,-6.0661893,-1.9694004
0.6782266,0.34140486,-0.27496073,-1.5683428,-5.8771353,-1.9080236
0.65709114,0.33076572,-0.26639217,-1.5194688,-5.693987,-1.8485643
0.63661575,0.32045886,-0.2580912,-1.4721212,-5.5165586,-1.7909619
0.61677974,0.31047383,-0.25004947,-1.426252,-5.344671,-1.7351581
0.59756297,0.30080053,-0.24225879,-1.3818148,-5.178149,-1.6810964
0.57894605,0.29142916,-0.23471127,-1.3387648,-5.016825,-1.6287223
0.5609101,0.28235024,-0.2273993,-1.2970582,-4.8605356,-1.5779827
0.54343694,0.27355462,-0.22031549,-1.256653,-4.709123,-1.5288262
0.5265089,0.26503342,-0.21345268,-1.2175083,-4.562434,-1.4812034
0.510109,0.25677803,-0.20680395,-1.1795847,-4.4203215,-1.4350661
0.49422055,0.24878013,-0.2003626,-1.1428441,-4.282641,-1.3903679
0.4788276,0.24103165,-0.19412212,-1.1072491,-4.1492543,-1.3470637
0.46391463,0.23352478,-0.18807624,-1.0727642,-4.0200267,-1.3051097
0.44946665,0.22625197,-0.18221886,-1.0393544,-3.8948286,-1.2644639
0.4354691,0.2192059,-0.1765441,-1.0069863,-3.7735336,-1.2250851
0.42190787,0.21237947,-0.17104623,-0.975627,-3.6560194,-1.186934
0.40876937,0.20576583,-0.16571972,-0.9452453,-3.5421686,-1.1499721
0.39604035,0.19935831,-0.16055924,-0.9158105,-3.431866,-1.1141621
0.38370803,0.19315048,-0.15555957,-0.88729304,-3.325001,-1.0794681
0.37176004,0.1871361,-0.15071572,-0.85966426,-3.221466,-1.0458554
0.3601843,0.18130913,-0.1460228,-0.8328964,-3.1211574,-1.0132899
0.34896928,0.17566372,-0.1414761,-0.80696255,-3.0239742,-0.9817392
0.33810368,0.17019421,-0.13707106,-0.78183675,-2.9298189,-0.9511715
0.32757658,0.1648951,-0.13280325,-0.7574937,-2.8385968,-0.9215561
0.31737745,0.15976106,-0.1286684,-0.733909,-2.7502167,-0.89286333
0.307496,0.15478696,-0.124662355,-0.71105903,-2.6645896,-0.8650643
0.29792237,0.1499678,-0.1207811,-0.6889208,-2.58163,-0.8381313
0.28864694,0.14529875,-0.11702073,-0.6674721,-2.5012543,-0.81203717
0.27966043,0.14077511,-0.1133775,-0.64669156,-2.423382,-0.7867558
0.2709538,0.13639238,-0.10984773,-0.6265582,-2.3479352,-0.7622618
0.26251832,0.13214615,-0.10642789,-0.60705185,-2.274838,-0.7385307
0.25434557,0.12803216,-0.10311457,-0.58815306,-2.2040174,-0.7155387
0.24642733,0.12404629,-0.099904425,-0.56984276,-2.1354024,-0.69326264
0.23875567,0.12018454,-0.09679425,-0.55210274,-2.0689242,-0.67168033
0.23132293,0.116443045,-0.09378093,-0.5349151,-2.0045161,-0.6507701
0.22412163,0.11281807,-0.09086144,-0.5182627,-1.9421136,-0.63051105
0.21714456,0.10930596,-0.088032864,-0.50212884,-1.8816543,-0.6108828
0.21038477,0.10590322,-0.08529236,-0.48649734,-1.8230776,-0.5918658
0.20383544,0.10260644,-0.08263719,-0.47135258,-1.7663248,-0.57344085
0.19749005,0.0994123,-0.0800647,-0.45667937,-1.7113391,-0.5555897
0.19134222,0.09631761,-0.0775723,-0.44246304,-1.6580656,-0.53829426
0.18538581,0.09331928,-0.07515751,-0.42868933,-1.6064506,-0.52153736
0.17961486,0.09041431,-0.07281789,-0.41534448,-1.5564427,-0.5053022
0.17402358,0.08759978,-0.07055113,-0.40241513,-1.5079918,-0.48957253
0.16860639,0.08487287,-0.068354934,-0.3898883,-1.4610493,-0.47433257
0.16335784,0.082230866,-0.066227116,-0.37775147,-1.4155684,-0.4595671
0.1582727,0.07967112,-0.06416554,-0.36599252,-1.3715034,-0.4452613
0.15334588,0.07719106,-0.062168155,-0.35459965,-1.3288103,-0.4314009
0.14857244,0.07478821,-0.06023295,-0.34356147,-1.2874464,-0.417972
0.14394762,0.072460175,-0.058357988,-0.33286694,-1.2473701,-0.4049612
0.13946676,0.07020461,-0.056541402,-0.32250533,-1.2085415,-0.3923554
0.1351254,0.068019256,-0.054781366,-0.3124663,-1.1709217,-0.38014206
0.13091919,0.06590194,-0.053076122,-0.3027398,-1.1344731,-0.36830893
0.12684393,0.063850544,-0.051423963,-0.2933161,-1.0991591,-0.3568442
0.12289554,0.061863005,-0.04982324,-0.28418574,-1.0649445,-0.34573635
0.11907005,0.059937336,-0.048272345,-0.27533963,-1.031795,-0.3349743
0.11536366,0.058071617,-0.04676973,-0.2667689,-0.9996774,-0.32454726
0.11177265,0.056263976,-0.045313895,-0.258465,-0.9685597,-0.31444484
0.10829342,0.05451261,-0.043903377,-0.25041956,-0.93841064,-0.3046569
0.1049225,0.052815758,-0.04253677,-0.24262458,-0.90920013,-0.29517365
0.10165651,0.05117173,-0.0412127,-0.23507227,-0.88089895,-0.2859856
0.0984922,0.049578883,-0.039929852,-0.22775504,-0.8534787,-0.27708358
0.09542638,0.048035614,-0.038686935,-0.2206656,-0.82691205,-0.26845863
0.092456006,0.04654039,-0.03748271,-0.21379684,-0.8011724,-0.2601022
