ax,ay,az,gx,gy,gz
3.3754852,-4.3418574,-6.450968,30.351187,53.988674,93.88358
3.6411226,-4.657823,-7.064196,47.152275,48.79629,102.3406
3.866976,-4.8194633,-7.42414,57.753323,40.4039,110.37334
4.150224,-4.8005,-7.572214,62.262356,31.110294,119.52735
4.450088,-4.7360787,-7.640638,64.922585,21.14244,131.60213
4.773937,-4.5968885,-7.7406535,67.52151,10.4720745,143.42834
5.1149216,-4.4420457,-7.829051,70.77718,0.030851783,154.33566
5.457119,-4.259699,-7.89037,74.25471,-10.3275,164.50117
5.783926,-4.0029535,-7.900671,77.78456,-20.207264,174.44966
6.0444164,-3.6132014,-7.8338776,81.6618,-30.024502,184.65794
6.1697397,-2.9178154,-7.6097484,86.347496,-39.50962,193.0641
6.1687284,-1.9173347,-7.1998534,90.666145,-48.02124,198.90002
6.044011,-0.58093375,-6.583145,92.44486,-55.50363,201.03445
5.7993474,0.92690253,-5.8098073,91.48897,-61.463257,198.66669
5.4529877,2.401961,-4.995838,86.42346,-64.49223,190.6412
4.9741945,3.6632721,-4.2762194,80.429504,-65.2532,179.14926
4.4525585,4.7066927,-3.692463,74.23294,-65.066505,164.70064
3.9609656,5.545146,-3.2141612,67.73766,-64.24436,148.2334
3.5416138,6.1925225,-2.842948,60.15191,-63.278023,130.77519
3.2244344,6.644418,-2.5772967,50.844475,-62.141655,112.60101
3.0349958,6.8851814,-2.4241364,41.04127,-60.917915,94.77296
2.9311552,6.97661,-2.3407867,31.569483,-59.50499,77.28023
2.8983424,6.937696,-2.3159802,23.231695,-57.51826,60.2468
2.9074888,6.7940745,-2.3411798,16.711922,-55.214607,43.55764
2.9617667,6.5732656,-2.3896441,11.741065,-52.870205,27.672724
3.0660307,6.242726,-2.442318,7.785254,-50.720383,13.083515
3.188053,5.8319106,-2.479721,4.4391413,-49.115417,-0.3343679
3.343377,5.300504,-2.4990501,1.700504,-48.114445,-12.571618
3.5421007,4.5976796,-2.5033114,-0.01811181,-47.446033,-23.161564
3.7714763,3.7297213,-2.4835045,-1.0013387,-46.58477,-29.399239
3.9819272,2.7383428,-2.466462,-0.90930074,-45.08771,-31.288288
4.117791,1.7865702,-2.4873981,1.6434636,-43.421993,-29.093832
4.2054048,1.0007416,-2.525922,5.5787973,-42.297333,-24.385168
4.291211,0.39696002,-2.550277,9.639968,-41.751373,-17.6185
4.39365,-0.05403124,-2.5664606,13.278552,-41.58534,-8.609771
4.5157166,-0.36782002,-2.5993886,16.885105,-41.45362,1.3744972
4.646252,-0.6078475,-2.6502073,20.819609,-41.00998,12.091632
4.772521,-0.7689618,-2.7251668,25.374462,-40.524338,22.96709
4.897294,-0.85761476,-2.8182836,30.596462,-40.16809,33.6348
5.0181327,-0.87909293,-2.9106748,36.378403,-39.94467,44.365097
5.1048045,-0.75128365,-2.966407,42.150402,-39.645336,55.286274
5.1331496,-0.43560824,-2.9774048,47.644466,-39.212826,65.686325
5.0817957,0.09510955,-2.9298823,51.953568,-39.11632,74.17866
4.945412,0.75977695,-2.823511,54.641895,-39.521286,79.81594
4.7505474,1.4349527,-2.6801293,55.301456,-39.894035,82.2498
4.474892,2.0525644,-2.5592299,55.029835,-40.40385,82.68339
4.1714664,2.5939968,-2.457676,54.219578,-41.276073,81.182
3.8752542,3.063706,-2.3677924,52.766083,-42.299175,78.18618
3.6031382,3.4653478,-2.2908144,50.607056,-43.360394,73.9327
3.364649,3.7952948,-2.2308435,47.48821,-44.667366,68.15643
3.1872554,4.008475,-2.1949968,44.011223,-46.0696,61.60266
3.051221,4.148244,-2.1759338,40.547134,-47.30113,54.459118
2.9393663,4.2502613,-2.17166,37.298317,-48.314564,46.820465
2.8385682,4.334906,-2.1831467,34.30766,-49.501022,38.58577
2.7565916,4.405471,-2.1957967,31.135035,-51.100327,29.812151
2.6915264,4.4514923,-2.2147791,27.601805,-53.234978,21.004967
2.6464589,4.4703183,-2.2291236,23.488932,-55.811615,12.418575
2.6270094,4.4437947,-2.238558,19.626686,-58.247143,3.8903706
2.6249838,4.3602,-2.2467072,16.175945,-60.655243,-4.4998264
2.6451468,4.222997,-2.2494204,13.422405,-63.035427,-12.494469
2.6868494,4.0197554,-2.2317038,11.287364,-65.389175,-19.935593
2.7466276,3.7881534,-2.1904066,9.389213,-67.8128,-26.43601
2.8293743,3.5440168,-2.1107938,7.0737686,-70.31588,-31.66102
2.9371858,3.2953513,-1.9882736,4.157381,-72.584885,-35.50704
3.063303,3.037817,-1.8354691,0.66559017,-74.24579,-38.013287
3.2081695,2.741135,-1.648547,-2.1347587,-74.97201,-39.90877
3.351034,2.4413536,-1.4461784,-4.307974,-74.72293,-41.113976
3.472534,2.1550567,-1.2358013,-5.9528446,-73.52158,-41.55798
3.5569267,1.9065201,-1.0293021,-7.404042,-71.40353,-41.224873
3.589071,1.6937542,-0.8454327,-8.902022,-68.39881,-40.12832
3.5608907,1.505589,-0.6978415,-10.058601,-64.94811,-38.70488
3.44767,1.4577179,-0.6756533,-9.738782,-62.88305,-37.474236
3.3381917,1.4114292,-0.6541984,-9.429535,-60.88625,-36.28427
3.2323198,1.3666651,-0.63345027,-9.130473,-58.955215,-35.1335
3.129923,1.3233706,-0.6133832,-8.8412285,-57.087574,-34.020508
3.030877,1.2814926,-0.59397274,-8.561449,-55.281044,-32.94393
2.9350622,1.240981,-0.57519555,-8.290797,-53.53345,-31.90248
2.8423645,1.2017872,-0.5570292,-8.02895,-51.842712,-30.894907
2.7526746,1.1638651,-0.5394523,-7.7755985,-50.20683,-29.920025
2.665887,1.1271704,-0.52244425,-7.5304465,-48.62389,-28.976698
2.5819023,1.0916605,-0.5059854,-7.2932105,-47.092064,-28.063828
2.500623,1.0572946,-0.4900568,-7.0636177,-45.60959,-27.180368
2.421957,1.0240337,-0.4746403,-6.8414063,-44.174778,-26.325314
2.3458152,0.99183995,-0.45971853,-6.6263256,-42.786003,-25.497694
2.2721121,0.9606774,-0.44527465,-6.4181333,-41.44171,-24.696583
2.2007656,0.9305112,-0.4312926,-6.2165976,-40.140404,-23.921087
2.1316965,0.90130794,-0.41775686,-6.0214953,-38.88063,-23.170345
2.0648289,0.87303543,-0.40465254,-5.8326116,-37.661015,-22.443531
2.0000894,0.84566283,-0.3919653,-5.6497393,-36.480213,-21.73985
1.9374077,0.81916016,-0.37968132,-5.4726796,-35.33694,-21.058535
1.8767158,0.7934989,-0.36778727,-5.30124,-34.22996,-20.398848
1.8179481,0.7686511,-0.35627034,-5.1352363,-33.15808,-19.760075
1.7610415,0.74459034,-0.34511817,-4.97449,-32.120148,-19.141533
1.7059354,0.72129077,-0.3343188,-4.8188295,-31.115051,-18.54256
1.652571,0.6987276,-0.32386073,-4.6680884,-30.14172,-17.962519
1.6008915,0.6768769,-0.31373292,-4.522107,-29.199123,-17.400791
1.5508425,0.6557156,-0.30392462,-4.3807316,-28.286266,-16.856787
1.5023712,0.6352213,-0.29442552,-4.2438126,-27.402184,-16.329931
1.4554267,0.61537254,-0.2852256,-4.1112065,-26.545948,-15.819671
1.4099597,0.59614855,-0.27631527,-3.982774,-25.716665,-15.325471
1.3659229,0.57752925,-0.26768523,-3.8583815,-24.913465,-14.846815
1.3232704,0.5594953,-0.25932646,-3.737899,-24.135513,-14.383206
1.2819579,0.5420278,-0.25123027,-3.6212018,-23.382002,-13.934162
1.2419424,0.52510875,-0.24338828,-3.5081685,-22.652147,-13.499217
1.2031827,0.50872064,-0.23579238,-3.398682,-21.945198,-13.07792
1.1656387,0.4928466,-0.22843474,-3.29263,-21.260422,-12.669838
1.1292717,0.4774702,-0.22130777,-3.1899028,-20.597115,-12.2745495
1.0940444,0.46257564,-0.21440414,-3.0903945,-19.954594,-11.891648
1.0599205,0.44814765,-0.20771675,-2.9940035,-19.3322,-11.520741
1.0268652,0.43417144,-0.20123877,-2.9006305,-18.729292,-11.1614485
0.9948445,0.4206327,-0.19496354,-2.8101802,-18.145258,-10.813401
0.96382576,0.40751755,-0.18888468,-2.7225602,-17.579498,-10.476245
0.9337773,0.39481267,-0.18299596,-2.637681,-17.031435,-10.149634
0.9046684,0.3825051,-0.17729138,-2.555456,-16.50051,-9.833238
0.87646955,0.37058225,-0.17176513,-2.4758012,-15.986182,-9.5267315
0.84915197,0.35903206,-0.16641161,-2.3986363,-15.487929,-9.229805
0.822688,0.34784275,-0.16122536,-2.3238823,-15.005245,-8.942157
0.7970507,0.337003,-0.15620112,-2.2514637,-14.537639,-8.663494
0.7722141,0.32650176,-0.1513338,-2.1813066,-14.084637,-8.393534
0.74815303,0.31632844,-0.14661846,-2.1133401,-13.645781,-8.132004
0.72484314,0.30647272,-0.14205033,-2.0474958,-13.220624,-7.878638
0.70226085,0.29692465,-0.13762479,-1.9837065,-12.808739,-7.633181
0.68038327,0.28767455,-0.13333735,-1.921908,-12.409708,-7.3953843
0.65918833,0.27871308,-0.12918371,-1.8620378,-12.023128,-7.165007
0.6386547,0.27003118,-0.12515964,-1.8040355,-11.648608,-6.9418178
0.61876154,0.2616201,-0.121261105,-1.7478426,-11.285771,-6.7255907
0.5994889,0.25347137,-0.11748417,-1.6934022,-10.934252,-6.5161076
0.5808173,0.24557678,-0.113825016,-1.6406596,-10.593695,-6.3131576
0.56272787,0.23792836,-0.11027997,-1.5895617,-10.263757,-6.116536
0.5452025,0.23051842,-0.106845446,-1.540057,-9.944106,-5.926045
0.52822345,0.22333947,-0.103518,-1.4920956,-9.634421,-5.7414923
0.5117737,0.21638432,-0.100294285,-1.4456294,-9.33439,-5.562693
0.49583673,0.20964596,-0.09717105,-1.4006114,-9.04371,-5.389467
0.48039645,0.20311761,-0.09414516,-1.3569967,-8.762091,-5.2216396
0.46543735,0.19679272,-0.09121357,-1.314741,-8.489247,-5.059043
0.45094445,0.19066493,-0.08837333,-1.2738023,-8.224906,-4.901513
0.43690312,0.18472809,-0.0856216,-1.2341391,-7.968803,-4.748892
0.4232993,0.17897622,-0.08295561,-1.1957119,-7.720679,-4.6010256
0.41011932,0.17340358,-0.080372676,-1.1584818,-7.4802856,-4.457767
0.39734998,0.16800453,-0.07787022,-1.1224116,-7.2473817,-4.318971
0.3849784,0.16277368,-0.07544572,-1.0874652,-7.0217333,-4.1844993
0.37299225,0.15770578,-0.073096745,-1.0536073,-6.803114,-4.0542164
0.36137947,0.15279575,-0.070820935,-1.0208042,-6.591305,-3.9279919
0.35012838,0.14803866,-0.06861602,-0.98902273,-6.386093,-3.8056989
0.33922774,0.14342973,-0.06647978,-0.9582313,-6.187273,-3.687215
0.3286666,0.13896434,-0.06441007,-0.9283987,-5.9946456,-3.5724216
0.3184344,0.13463804,-0.062404826,-0.89949536,-5.8080173,-3.461203
0.30852085,0.13044646,-0.060462028,-0.87149215,-5.627201,-3.3534484
0.29891604,0.12638544,-0.058579735,-0.84436107,-5.4520164,-3.2490494
0.28961033,0.122450866,-0.05675606,-0.8180748,-5.2822866,-3.1479018
0.2805944,0.11863882,-0.054989178,-0.7926072,-5.1178427,-3.0499036
0.27185926,0.114945486,-0.053277314,-0.76793253,-4.9585195,-2.9549575
0.26339608,0.11136715,-0.051618755,-0.7440263,-4.8041577,-2.8629675
0.25519645,0.10790025,-0.05001184,-0.7208644,-4.654602,-2.773842
0.24725214,0.10454129,-0.048454963,-0.6984238,-4.509703,-2.687492
0.23955518,0.10128692,-0.04694656,-0.6766819,-4.3693166,-2.6038303
0.23209788,0.09813388,-0.04548512,-0.6556169,-4.2333,-2.5227735
0.22487275,0.09507901,-0.04406919,-0.6352078,-4.1015196,-2.4442406
0.2178726,0.092119254,-0.04269734,-0.6154341,-3.9738414,-2.3681529
0.21109039,0.08925165,-0.0413682,-0.5962761,-3.8501387,-2.294434
0.20451933,0.08647332,-0.040080447,-0.57771456,-3.7302873,-2.2230103
0.19815286,0.0837815,-0.038832784,-0.55973095,-3.6141675,-2.1538103
0.1919846,0.08117348,-0.037623964,-0.54230714,-3.5016627,-2.0867648
0.18600836,0.07864666,-0.03645278,-0.52542585,-3.3926604,-2.0218065
0.18021819,0.076198496,-0.035318058,-0.5090701,-3.2870517,-1.9588705
0.17460828,0.07382656,-0.03421866,-0.49322352,-3.1847308,-1.8978939
0.169173,0.07152846,-0.03315349,-0.4778703,-3.0855954,-1.8388156
0.16390695,0.0693019,-0.03212148,-0.46299502,-2.9895463,-1.7815764
0.15880482,0.06714466,-0.031121597,-0.44858283,-2.8964872,-1.7261192
0.15386154,0.06505457,-0.030152842,-0.4346193,-2.806325,-1.6723884
0.14907213,0.06302956,-0.029214244,-0.42109048,-2.7189698,-1.6203303
0.14443183,0.061067577,-0.028304866,-0.40798283,-2.6343338,-1.5698929
0.13993597,0.059166677,-0.027423797,-0.3952832,-2.5523329,-1.5210254
0.13558008,0.05732495,-0.026570154,-0.38297892,-2.4728844,-1.4736793
0.13135979,0.055540554,-0.025743086,-0.37105766,-2.395909,-1.4278071
0.12727086,0.053811707,-0.024941765,-0.3595075,-2.32133,-1.3833628
0.123309225,0.05213668,-0.024165388,-0.34831688,-2.2490728,-1.340302
0.11947091,0.050513793,-0.023413178,-0.33747464,-2.1790645,-1.2985817
0.11575208,0.048941426,-0.022684384,-0.3269699,-2.1112359,-1.2581601
0.112149015,0.047418002,-0.021978278,-0.31679216,-2.0455184,-1.2189968
