ax,ay,az,gx,gy,gz
1.0227365,-3.4627588,-3.5500321,-1.8309257,9.876453,5.0491366
1.3654418,-4.4186664,-3.8806849,2.8803444,9.50364,23.32015
1.4283164,-5.2160244,-3.855903,7.6892653,6.51124,33.555737
1.7393894,-5.778342,-3.6909263,25.724422,1.2862521,35.397
2.5565617,-6.1213927,-3.3054013,40.651665,5.259391,39.829323
3.2207453,-6.593967,-3.2280512,58.691113,18.620981,43.783154
3.5163698,-7.173159,-3.455123,86.08317,33.115936,44.468365
3.7058272,-7.4190664,-3.6848242,106.73555,41.18808,48.73618
3.8831413,-7.3187757,-3.8042397,115.00583,42.506706,59.327515
4.089109,-6.904695,-3.7930095,114.998,42.174534,72.154495
4.2027082,-6.426221,-3.8347027,110.63067,40.36989,84.923
4.224444,-5.909283,-3.922346,104.6384,36.923428,97.341286
4.1704564,-5.259111,-3.9800382,98.97533,32.19213,108.625244
4.047077,-4.414531,-3.953159,92.818794,26.338829,117.58452
3.8638303,-3.3578858,-3.761635,86.4641,20.822084,123.44192
3.6421392,-2.234664,-3.4994166,80.25917,16.129938,126.10629
3.392636,-1.1354231,-3.2069147,74.298515,12.391725,125.651794
3.1253128,-0.106538676,-2.9063911,68.53239,9.7775545,122.47241
2.8420854,0.821531,-2.625599,62.899895,7.8873506,116.16367
2.567668,1.6502066,-2.3747504,56.86109,6.337365,108.260056
2.324804,2.3619678,-2.165144,50.40135,5.0752206,98.933395
2.1222184,2.9247646,-2.0023954,43.991276,4.289216,88.40208
1.9644125,3.3400872,-1.8897941,37.896336,3.8989627,77.16316
1.8404468,3.6446583,-1.8238103,31.488829,3.7267666,65.512955
1.7414424,3.8331645,-1.828984,25.184475,3.3737738,53.773144
1.6595516,3.916181,-1.883719,19.399853,2.6378276,41.976414
1.6059445,3.8852842,-1.9652307,14.214354,1.5131927,30.420767
1.5862341,3.7404177,-2.0627728,9.823613,-0.1728348,19.46216
1.6046984,3.4793894,-2.1503313,5.944219,-2.8174388,9.800467
1.6916518,3.0558536,-2.1831944,2.403867,-5.9467783,1.8496368
1.8316487,2.5365167,-2.15519,-0.77451545,-9.021969,-4.1015058
2.0034115,1.9432486,-2.0811281,-3.268695,-11.635024,-8.159001
2.1861696,1.2871399,-1.9834725,-4.6499004,-13.380004,-10.448584
2.3574138,0.59889925,-1.8883319,-3.6177094,-13.877325,-10.551563
2.4912627,-0.06249859,-1.8239304,-0.7608503,-13.629932,-9.032504
2.5882895,-0.625432,-1.7848577,3.1286688,-13.075066,-5.8806405
2.6501937,-1.0453572,-1.7758236,6.9255543,-12.69597,-1.4983288
2.69208,-1.3541073,-1.7915262,10.152077,-12.803152,3.6145914
2.7402644,-1.6045005,-1.8227694,13.094722,-13.266064,9.588812
2.7968585,-1.7867625,-1.8696917,16.206879,-13.769681,16.10319
2.8340106,-1.8644685,-1.9241562,19.61988,-14.493155,22.9761
2.8454533,-1.8115059,-1.9677339,22.876726,-15.444556,29.69001
2.834627,-1.6584381,-1.9872657,25.657413,-16.59913,35.831314
2.8046954,-1.4402751,-1.9828123,28.005245,-17.865017,41.19364
2.7375042,-1.1141968,-1.948763,29.682587,-19.235023,45.720604
2.6521757,-0.75338167,-1.8969939,30.822989,-20.498808,49.12458
2.5447905,-0.38863832,-1.8439085,31.811008,-21.535604,51.414867
2.4071262,-0.007361643,-1.7903384,32.56841,-22.498907,52.615673
2.244628,0.39097533,-1.7351621,32.800236,-23.556826,52.39707
2.0682693,0.80440795,-1.6790786,32.406223,-24.715755,51.2
1.8966895,1.215766,-1.6242354,31.216486,-26.097166,49.10058
1.7430876,1.6146891,-1.5697231,29.318686,-27.640532,46.006466
1.6178747,1.9840491,-1.50833,26.616257,-29.225117,42.000263
1.521417,2.2989454,-1.4459182,23.215504,-30.608042,36.87986
1.4478599,2.5301452,-1.4081554,20.064583,-31.674652,30.944948
1.388693,2.710064,-1.3923097,17.194796,-32.639557,24.376484
1.3460206,2.8475468,-1.3970346,14.347371,-33.631496,17.501621
1.3227512,2.9497802,-1.4183686,11.440799,-34.775616,10.4690695
1.3245561,3.0117614,-1.4461256,8.391107,-36.20577,3.3355145
1.3673061,3.0219972,-1.4624732,4.7897234,-37.833633,-3.4312418
1.4404137,2.988021,-1.45817,0.6234248,-39.558716,-9.71948
1.5450444,2.9099743,-1.4304647,-3.774717,-41.21748,-15.524617
1.6718595,2.7740126,-1.3851719,-7.870023,-42.597645,-20.983915
1.8115768,2.560042,-1.3270952,-11.009126,-43.33975,-25.949606
1.9503582,2.244121,-1.26654,-13.280465,-43.640038,-30.104605
2.076118,1.8852018,-1.2068319,-14.831448,-43.62241,-33.020317
2.1839557,1.517156,-1.1453052,-15.84274,-43.35499,-34.839447
2.2653418,1.1718106,-1.0811218,-16.218481,-43.05757,-35.495884
2.3274806,0.8690844,-1.0068641,-16.312584,-42.59079,-35.10491
2.3698428,0.6190567,-0.91968966,-16.286768,-41.89053,-34.203506
2.3905118,0.39671776,-0.8408961,-15.855665,-40.99983,-33.01147
2.383278,0.20639819,-0.77613175,-15.025493,-40.132862,-31.53296
2.3507528,0.06066546,-0.71531826,-14.015375,-39.344948,-29.812614
2.297003,-0.036721926,-0.6543829,-13.017248,-38.598465,-28.048267
2.2322826,-0.08801905,-0.5971268,-12.309056,-37.493645,-26.459778
2.157845,-0.14051731,-0.5475036,-11.795933,-36.471336,-24.921337
2.083275,-0.19158739,-0.49662253,-11.372859,-35.436066,-23.228582
2.008415,-0.21756154,-0.4369744,-11.200643,-34.451817,-21.37885
1.9353843,-0.22110951,-0.3704894,-11.619512,-33.68056,-19.394598
1.8695409,-0.21684973,-0.29726517,-12.346191,-33.06703,-17.372572
1.8153063,-0.2083485,-0.21689118,-13.29939,-32.461784,-15.312
1.7741203,-0.19426581,-0.13429016,-14.325605,-31.714638,-13.363933
1.7372786,-0.17837088,-0.052677505,-15.09802,-30.868633,-11.628272
1.7038826,-0.15698129,0.02902006,-15.5175295,-30.020979,-10.111404
1.6768031,-0.13611968,0.11410197,-15.402017,-29.106531,-8.902014
1.6241498,-0.13184538,0.11051906,-14.918379,-28.192556,-8.622481
1.5731773,-0.12770754,0.107050516,-14.450179,-27.307758,-8.351872
1.5238295,-0.12370158,0.103692524,-13.9969015,-26.451162,-8.089889
1.4760523,-0.11982311,0.10044141,-13.558051,-25.621828,-7.836243
1.4297936,-0.116067916,0.09729363,-13.133149,-24.818853,-7.5906596
1.3850033,-0.11243193,0.09424578,-12.721735,-24.041368,-7.352872
1.3416331,-0.10891122,0.09129455,-12.323365,-23.288534,-7.122623
1.2996365,-0.10550202,0.0884368,-11.937612,-22.559542,-6.8996663
1.2589686,-0.10220067,0.08566945,-11.564062,-21.853615,-6.6837635
1.2195859,-0.099003665,0.082989566,-11.202319,-21.169996,-6.4746842
1.1814469,-0.095907606,0.080394305,-10.851998,-20.507965,-6.272207
1.1445111,-0.09290923,0.07788092,-10.512731,-19.866821,-6.0761175
1.1087396,-0.09000537,0.07544676,-10.184156,-19.245886,-5.8862095
1.0740948,-0.087192975,0.07308929,-9.865932,-18.644512,-5.7022834
1.0405406,-0.0844691,0.070806004,-9.557725,-18.062065,-5.5241466
1.0080417,-0.081830904,0.068594545,-9.2592125,-17.497938,-5.3516126
0.97656447,-0.079275645,0.0664526,-8.970082,-16.951546,-5.1845026
0.94607604,-0.07680065,0.06437795,-8.690036,-16.422318,-5.022642
0.9165449,-0.074403375,0.062368434,-8.418782,-15.909705,-4.865864
0.8879405,-0.07208132,0.06042198,-8.156041,-15.41318,-4.7140055
0.8602333,-0.0698321,0.058536578,-7.9015408,-14.932229,-4.56691
0.83339477,-0.0676534,0.056710288,-7.6550193,-14.466356,-4.424426
0.80739725,-0.06554297,0.054941226,-7.416223,-14.015082,-4.2864075
0.78221405,-0.063498646,0.053227577,-7.184907,-13.577944,-4.152712
0.7578194,-0.06151834,0.051567588,-6.960834,-13.154493,-4.023203
0.7341884,-0.059600014,0.04995956,-6.7437744,-12.744297,-3.8977475
0.71129674,-0.057741717,0.048401844,-6.533507,-12.346936,-3.7762175
0.6891212,-0.055941544,0.046892855,-6.329817,-11.962005,-3.6584892
0.667639,-0.054197665,0.04543105,-6.132496,-11.58911,-3.5444422
0.6468285,-0.052508302,0.04401495,-5.9413433,-11.227874,-3.4339607
0.6266683,-0.05087174,0.042643104,-5.7561655,-10.877926,-3.326932
0.60713804,-0.049286313,0.041314125,-5.5767736,-10.538914,-3.2232475
0.5882179,-0.04775041,0.040026657,-5.4029856,-10.210491,-3.122802
0.5698887,-0.04626248,0.038779404,-5.234625,-9.892326,-3.0254934
0.5521318,-0.044821005,0.037571095,-5.0715218,-9.584095,-2.9312234
0.5349292,-0.043424536,0.036400504,-4.9135103,-9.285488,-2.8398964
0.51826364,-0.042071655,0.035266455,-4.7604313,-8.996201,-2.7514203
0.5021182,-0.040760998,0.0341678,-4.612129,-8.715941,-2.6657052
0.48647645,-0.039491232,0.033103425,-4.468455,-8.4444275,-2.5826645
0.47132275,-0.038261086,0.032072254,-4.3292627,-8.181384,-2.502215
0.45664176,-0.03706931,0.031073252,-4.1944127,-7.9265466,-2.4242747
0.44241866,-0.035914704,0.030105408,-4.063769,-7.679657,-2.3487654
0.42863914,-0.034796108,0.029167749,-3.9371989,-7.4404674,-2.275611
0.41528928,-0.033712395,0.028259326,-3.814576,-7.208736,-2.2047377
0.40235567,-0.032662466,0.027379228,-3.6957762,-6.9842296,-2.136074
0.38982528,-0.031645272,0.026526568,-3.5806801,-6.7667227,-2.0695512
0.3776855,-0.03065979,0.025700489,-3.469172,-6.555996,-2.005102
0.3659241,-0.029705022,0.024900157,-3.3611395,-6.3518376,-1.9426618
0.35452926,-0.028780011,0.02412477,-3.256474,-6.1540422,-1.8821676
0.34348956,-0.02788383,0.023373548,-3.1550705,-5.9624114,-1.8235586
0.3327939,-0.027015574,0.022645734,-3.056827,-5.776752,-1.7667761
0.32243147,-0.026174374,0.021940602,-2.961645,-5.596878,-1.711763
0.31239197,-0.025359385,0.02125744,-2.8694284,-5.4226084,-1.658464
0.30266523,-0.024569787,0.020595562,-2.780085,-5.2537684,-1.6068256
0.29324153,-0.02380479,0.019954303,-2.693525,-5.0901885,-1.5567958
0.2841114,-0.023063624,0.019333024,-2.6096618,-4.931705,-1.5083249
0.27526572,-0.022345547,0.018731097,-2.528411,-4.7781577,-1.4613637
0.26669556,-0.021649837,0.01814792,-2.449691,-4.629394,-1.4158653
0.25839233,-0.020975797,0.017582908,-2.373423,-4.485264,-1.3717842
0.25034773,-0.020322751,0.017035494,-2.2995305,-4.345623,-1.329076
0.24255368,-0.019690046,0.01650513,-2.2279396,-4.2103314,-1.2876981
0.23500238,-0.019077046,0.015991285,-2.1585784,-4.079253,-1.2476089
0.22768626,-0.018483138,0.015493441,-2.091377,-3.9522572,-1.2087681
0.22059797,-0.017907724,0.015011103,-2.0262687,-3.8292162,-1.171137
0.21373042,-0.017350229,0.014543785,-1.963188,-3.710007,-1.1346778
0.20707674,-0.016810095,0.0140910195,-1.9020716,-3.59451,-1.0993539
0.20063025,-0.016286781,0.013652353,-1.8428583,-3.4826095,-1.06513
0.1943845,-0.015779763,0.013227345,-1.7854888,-3.3741937,-1.0319717
0.18833321,-0.015288533,0.012815572,-1.7299058,-3.2691536,-0.999846
0.18247037,-0.014812597,0.012416622,-1.6760535,-3.1673841,-0.9687206
0.17679007,-0.014351482,0.012030092,-1.623878,-3.0687835,-0.9385643
0.17128663,-0.013904722,0.011655598,-1.5733271,-2.9732528,-0.909347
0.16595455,-0.013471874,0.011292763,-1.5243499,-2.8806968,-0.8810394
0.16078848,-0.013052503,0.010941226,-1.4768978,-2.7910223,-0.85361314
0.15578325,-0.012646187,0.010600634,-1.4309231,-2.7041397,-0.8270408
0.15093385,-0.012252523,0.010270646,-1.3863797,-2.6199622,-0.80129576
0.14623544,-0.011871114,0.009950931,-1.3432232,-2.5384057,-0.7763522
0.1416833,-0.0115015805,0.0096411705,-1.3014102,-2.459388,-0.75218534
0.13727288,-0.011143551,0.009341054,-1.260899,-2.3828304,-0.7287708
0.13299978,-0.010796669,0.00905028,-1.221649,-2.3086565,-0.7060852
0.1288597,-0.010460585,0.0087685585,-1.1836209,-2.2367914,-0.6841058
0.12484851,-0.010134964,0.008495607,-1.1467768,-2.1671638,-0.66281074
0.12096219,-0.009819481,0.008231154,-1.1110796,-2.0997038,-0.6421786
0.11719686,-0.009513818,0.007974933,-1.0764937,-2.0343437,-0.62218875
0.11354875,-0.009217671,0.007726689,-1.0429846,-1.9710187,-0.60282123
0.1100142,-0.008930744,0.0074861725,-1.0105186,-1.9096648,-0.5840566
0.10658969,-0.008652749,0.0072531435,-0.9790632,-1.8502209,-0.5658761
0.10327178,-0.008383406,0.007027369,-0.9485871,-1.7926275,-0.54826164
0.10005716,-0.00812245,0.0068086227,-0.9190597,-1.736827,-0.53119546
0.09694261,-0.007869617,0.006596686,-0.8904515,-1.6827636,-0.5146606
0.093925014,-0.007624654,0.0063913465,-0.8627338,-1.630383,-0.4986404
0.091001354,-0.007387317,0.006192399,-0.83587897,-1.5796331,-0.48311892
0.08816871,-0.0071573677,0.005999645,-0.8098601,-1.5304631,-0.4680806
0.08542424,-0.006934577,0.0058128913,-0.7846512,-1.4828236,-0.45351043
0.0827652,-0.0067187212,0.0056319507,-0.760227,-1.4366671,-0.43939382
