ax,ay,az,gx,gy,gz
-0.22636569,-0.63909674,-1.1400104,23.748398,-23.526577,18.200167
-0.23476785,-1.4814442,-0.8817603,32.90638,-25.723291,16.595346
-0.3644324,-1.9350257,-0.8427347,34.974842,-35.75427,4.2499723
-0.24241234,-1.76243,-0.860181,30.715961,-39.61237,-0.8696827
-0.21352404,-1.6658616,-0.93018955,25.293753,-40.768326,0.5784943
-0.325474,-1.8115157,-0.9900655,21.966454,-44.28394,2.0989337
-0.29400635,-1.994133,-0.93953073,20.111792,-46.68348,3.7159004
-0.18015245,-2.2619097,-0.856399,19.616945,-45.986603,4.6065054
-0.031846385,-2.779076,-0.81070954,21.611038,-44.377842,5.989392
0.14977318,-3.1145282,-0.769074,25.198202,-42.17623,9.147136
0.3277636,-3.298511,-0.723269,27.726784,-40.16081,13.37781
0.49414572,-3.5115237,-0.6523417,30.317686,-38.20472,17.609842
0.6321806,-3.7897394,-0.5954764,34.394894,-36.365242,20.836634
0.7829887,-4.194628,-0.5759216,39.790173,-34.524136,24.69759
1.0111223,-4.488392,-0.53520685,46.241226,-32.15683,30.567356
1.2786422,-4.470169,-0.46929777,52.22871,-28.662188,37.787174
1.47119,-4.1877923,-0.43182927,57.20876,-24.814089,44.41504
1.55265,-3.8365006,-0.43754202,60.884335,-21.746254,48.552006
1.6228337,-3.5831168,-0.4451774,64.66506,-19.061619,52.205265
1.7253224,-3.1416175,-0.4358512,67.435074,-16.24471,56.33773
1.8203083,-2.5210004,-0.42914233,68.45555,-13.338368,60.270008
1.9063852,-1.8768865,-0.420261,68.47908,-10.242119,62.53956
1.9524333,-1.2207947,-0.44195035,67.3723,-6.7993093,62.78288
1.8829092,-0.49774855,-0.5493755,64.668686,-3.9125283,62.186016
1.7383478,0.09106874,-0.69453937,60.921978,-2.457559,60.587124
1.603804,0.51993906,-0.83296496,57.11893,-2.0455508,57.895226
1.5038075,0.8625983,-0.96178913,53.230614,-2.038637,54.746964
1.4273407,1.1373196,-1.0895798,48.541092,-1.7636412,51.588688
1.3001584,1.318088,-1.2590113,43.49374,-2.0241072,48.271015
1.1414639,1.397175,-1.4484234,38.860657,-3.10816,44.780937
0.98638725,1.4072729,-1.6256616,34.85241,-5.213978,41.23019
0.87907434,1.4271182,-1.7686162,30.935947,-7.979494,37.81413
0.8247233,1.4672942,-1.8770876,27.21855,-10.955291,34.329563
0.78997964,1.4941562,-1.9490757,23.786692,-13.743959,30.718494
0.73234904,1.5056454,-2.0086849,19.648777,-16.808329,27.375662
0.70705163,1.4842442,-2.0248632,15.257793,-20.038809,24.428286
0.74438035,1.4691817,-1.9891641,11.003279,-22.625902,21.692167
0.7898846,1.4893929,-1.9262618,6.705283,-24.663475,18.881077
0.82189065,1.4850918,-1.8232626,2.352552,-26.686443,15.35275
0.86533475,1.3970015,-1.659146,-1.467272,-28.750343,11.251728
0.95044214,1.249572,-1.4280761,-4.534424,-30.281649,7.127443
1.0789163,1.1050271,-1.1569601,-7.465396,-30.80025,3.887626
1.2229725,0.99528825,-0.86789495,-10.125619,-29.817862,1.3858213
1.3457499,0.8980728,-0.57197976,-12.362518,-28.010574,-1.4917456
1.4192256,0.74637616,-0.29554307,-14.081046,-26.049627,-4.8041725
1.5059187,0.5333809,-0.025030978,-15.008519,-23.755175,-8.026525
1.6123343,0.31760854,0.2225876,-15.508017,-20.864353,-10.163735
1.7170684,0.12994419,0.4425881,-15.424123,-16.975206,-11.408207
1.7696396,-0.028183648,0.6162448,-15.062651,-12.723561,-12.802626
1.7949785,-0.20081925,0.7639246,-14.415391,-8.217597,-14.617955
1.796733,-0.3857858,0.86129785,-13.107839,-3.4013202,-16.004383
1.7770748,-0.5215504,0.91572505,-11.637536,1.545126,-16.493534
1.7362487,-0.59302336,0.93437546,-10.141579,6.6623983,-16.393162
1.6612996,-0.63885856,0.9308371,-8.65312,11.426933,-17.19186
1.6076891,-0.7285067,0.9174258,-5.814772,16.078985,-18.64226
1.5713649,-0.75406605,0.8781401,-2.9580142,20.706837,-18.96969
1.5142018,-0.6737299,0.80865306,-1.2310152,24.947178,-18.036833
1.4241025,-0.5627371,0.705135,-0.5645786,28.136168,-17.14568
1.289566,-0.5308929,0.56517434,-0.033680074,30.255825,-17.3273
1.1510806,-0.63252354,0.42891663,0.6513156,31.158978,-18.44483
1.0672088,-0.845298,0.3126977,1.9763228,31.32649,-19.467443
1.0744915,-1.0484533,0.21651922,3.7848725,32.02004,-19.12544
1.0943513,-1.1583852,0.094307356,4.968369,33.51007,-16.475626
1.0248221,-1.162242,-0.095264345,5.270643,34.336575,-13.4902725
0.905783,-1.2078252,-0.29743907,5.925852,34.247078,-11.877978
0.77330786,-1.3380653,-0.49637288,7.2308984,32.93969,-11.33784
0.6950047,-1.4865737,-0.67092645,8.642264,31.14857,-10.411145
0.6597507,-1.5859827,-0.84006405,9.291317,29.378885,-7.6588454
0.5949582,-1.6423203,-1.0398608,9.715815,27.230095,-4.199866
0.49113584,-1.6796815,-1.2486924,10.02101,24.094463,-1.0551538
0.38988104,-1.7374172,-1.4326087,10.304384,20.01972,1.1996801
0.32028425,-1.8525677,-1.5881971,10.980061,15.406791,3.1526403
0.28686976,-1.9587674,-1.7126673,11.984221,10.721526,5.6825733
0.29492962,-2.0189707,-1.8020836,12.85271,6.647413,8.84734
0.29179564,-2.047641,-1.8906872,13.537999,2.7515154,12.36259
0.27287847,-2.0670507,-1.976518,14.057924,-1.2950275,15.645
0.25758165,-2.1066916,-2.0439637,14.3814535,-5.6089525,18.469137
0.27575502,-2.171478,-2.0803483,15.054944,-9.79798,21.305496
0.33063644,-2.2163653,-2.0762982,15.500498,-13.720108,24.74703
0.4116442,-2.253305,-2.0367837,15.660299,-17.25358,28.912333
0.5108287,-2.2602577,-1.9673567,16.024534,-20.480694,33.49499
0.61465627,-2.166973,-1.875297,16.142601,-23.471273,37.84356
0.7195185,-2.0411398,-1.751561,16.496899,-26.21593,40.737072
0.8792393,-1.9319822,-1.6030611,17.526752,-28.271925,43.39189
1.0570003,-1.679877,-1.4530022,17.992453,-29.916866,46.37591
1.2503989,-1.3303567,-1.2814586,17.525223,-30.949585,48.817966
1.401595,-1.0209924,-1.1163012,16.957981,-31.399584,50.07487
1.4760445,-0.7995327,-0.9677943,16.098648,-31.89076,50.089367
1.5140748,-0.7483472,-0.8241708,15.649395,-31.99505,49.550358
1.5422153,-0.7463306,-0.70654845,16.342987,-32.00614,49.150894
1.6010709,-0.61456144,-0.5986745,17.18855,-32.020706,49.217278
1.6805439,-0.3815042,-0.4940642,17.70722,-31.63915,49.163033
1.7296406,-0.13695249,-0.3966798,18.077648,-31.040422,48.031036
1.7485834,0.08024238,-0.29442823,18.262562,-30.40334,46.0124
1.6938848,0.077732265,-0.285218,17.691278,-29.452272,44.57306
1.6409135,0.07530141,-0.27629864,17.138035,-28.531237,43.179165
1.5896132,0.07294725,-0.26766065,16.602245,-27.63926,41.829243
1.5399301,0.0706673,-0.25929496,16.083345,-26.775398,40.521877
1.491812,0.06845915,-0.25119278,15.58079,-25.93875,39.25569
1.4452084,0.06632052,-0.24334563,15.094051,-25.128433,38.02936
1.4000707,0.06424916,-0.2357453,14.622624,-24.343605,36.841602
1.3563519,0.062242903,-0.22838388,14.166017,-23.583448,35.69118
1.3140066,0.060299676,-0.22125372,13.723753,-22.847172,34.5769
1.2729907,0.05841746,-0.21434744,13.295375,-22.134012,33.49761
1.2332621,0.056594312,-0.20765789,12.880441,-21.443233,32.452183
1.1947794,0.05482835,-0.20117815,12.47852,-20.77412,31.439547
1.1575032,0.053117752,-0.19490156,12.089201,-20.125986,30.45866
1.1213953,0.051460758,-0.18882166,11.712082,-19.498161,29.50851
1.0864184,0.049855668,-0.1829322,11.346775,-18.890003,28.588123
1.0525366,0.048300836,-0.17722717,10.992908,-18.300886,27.696556
1.0197154,0.046794675,-0.1717007,10.650116,-17.730211,26.832895
0.9879212,0.04533564,-0.16634715,10.31805,-17.177391,25.996258
0.9571215,0.04392224,-0.16116107,9.996372,-16.641865,25.185793
0.9272849,0.042553045,-0.15613715,9.684753,-16.123083,24.40067
0.89838105,0.04122665,-0.1512703,9.382875,-15.620522,23.64009
0.8703806,0.03994171,-0.14655556,9.090433,-15.133665,22.903284
0.84325504,0.03869692,-0.14198811,8.807128,-14.662022,22.189499
0.8169768,0.037491012,-0.13756336,8.532673,-14.2051115,21.49801
0.7915193,0.03632277,-0.1332768,8.266789,-13.762471,20.82812
0.76685673,0.035191003,-0.12912409,8.009208,-13.3336525,20.179146
0.7429641,0.034094572,-0.12510103,7.7596684,-12.918221,19.550432
0.7198172,0.033032365,-0.121203534,7.5179176,-12.515758,18.941343
0.6973927,0.032003306,-0.11742768,7.283712,-12.125854,18.351263
0.67566794,0.031006357,-0.113769636,7.0568137,-11.748116,17.779594
0.65462095,0.030040512,-0.11022572,6.8369946,-11.382163,17.225761
0.6342305,0.029104795,-0.10679235,6.6240325,-11.027626,16.689205
0.61447597,0.028198263,-0.10346608,6.4177127,-10.684147,16.169384
0.59533757,0.027320003,-0.10024353,6.2178273,-10.351379,15.665773
0.57679594,0.026469128,-0.09712148,6.0241747,-10.028988,15.177867
0.5588324,0.025644785,-0.09409676,5.83656,-9.716649,14.7051735
0.5414289,0.024846138,-0.09116634,5.654794,-9.414047,14.247216
0.52456796,0.02407239,-0.088327274,5.478695,-9.120879,13.8035345
0.50823253,0.02332276,-0.0855767,5.3080845,-8.836848,13.373683
0.49240625,0.022596492,-0.08291186,5.1427917,-8.56167,12.957229
0.4770732,0.021892859,-0.08033006,4.98265,-8.295068,12.553753
0.46221796,0.021211153,-0.07782872,4.827499,-8.036774,12.16285
0.4478256,0.020550689,-0.07540532,4.677182,-7.786528,11.784128
0.4338817,0.019910803,-0.07305743,4.531549,-7.5440793,11.417207
0.42037222,0.019290855,-0.07078269,4.3904533,-7.3091846,11.061718
0.40728363,0.01869022,-0.068578824,4.2537537,-7.0816083,10.717303
0.3946028,0.018108297,-0.066443615,4.121312,-6.861121,10.383618
0.38231698,0.017544502,-0.064374916,3.9929967,-6.6475024,10.0603285
0.37041387,0.016998269,-0.062370654,3.868678,-6.4405384,9.747108
0.3588815,0.01646905,-0.060428828,3.748232,-6.2400203,9.443645
0.34770834,0.015956314,-0.05854748,3.6315372,-6.045748,9.149633
0.3368832,0.015459549,-0.056724727,3.518477,-5.857527,8.8647785
0.32639518,0.014978254,-0.054958746,3.408938,-5.675167,8.588796
0.3162338,0.014511948,-0.05324776,3.3028104,-5.498487,8.321408
0.30638888,0.014060166,-0.051590063,3.199988,-5.327309,8.062348
0.29685053,0.013622452,-0.049983986,3.1003675,-5.1614623,7.811355
0.28760922,0.013198368,-0.048427925,3.0038493,-5.0007796,7.568178
0.27865568,0.012787491,-0.04692032,2.9103367,-4.845101,7.3325734
0.26998094,0.0123894075,-0.045459658,2.819736,-4.6942697,7.1043057
0.2615763,0.01200372,-0.04404448,2.7319565,-4.548135,6.8831453
0.25343338,0.0116300415,-0.042673364,2.64691,-4.4065504,6.668872
0.245544,0.011267998,-0.041344944,2.5645118,-4.2693744,6.46127
0.23790027,0.010917228,-0.040057883,2.484679,-4.13647,6.260132
0.23049453,0.010577379,-0.038810898,2.407332,-4.0077033,6.0652566
0.22331937,0.010248112,-0.037602738,2.3323932,-3.8829455,5.8764486
0.2163676,0.009929095,-0.03643219,2.2597873,-3.7620723,5.693519
0.20963226,0.009620011,-0.03529809,2.1894422,-3.6449625,5.516285
0.20310663,0.009320551,-0.034199297,2.121287,-3.5314984,5.3445687
0.19678417,0.009030413,-0.033134714,2.055254,-3.4215672,5.1781983
0.19065852,0.008749307,-0.032103274,1.9912766,-3.3150582,5.017008
0.1847236,0.008476954,-0.031103944,1.929291,-3.2118652,4.8608356
0.17897344,0.00821308,-0.030135725,1.8692352,-3.1118848,4.709525
0.1734023,0.00795742,-0.02919765,1.8110489,-3.0150168,4.5629253
0.16800457,0.0077097192,-0.028288778,1.7546741,-2.9211648,4.4208894
0.1627749,0.00746973,-0.027408201,1.7000543,-2.8302343,4.2832756
0.15770803,0.0072372113,-0.026555035,1.6471349,-2.7421343,4.1499453
0.1527989,0.007011932,-0.02572843,1.5958629,-2.6567774,4.020766
0.14804259,0.006793665,-0.024927558,1.546187,-2.5740774,3.8956077
0.14343435,0.0065821926,-0.024151618,1.4980576,-2.4939518,3.7743459
0.13896956,0.0063773035,-0.023399832,1.4514264,-2.4163208,3.656859
0.13464375,0.006178793,-0.022671448,1.4062468,-2.3411062,3.5430293
0.1304526,0.0059864614,-0.021965738,1.3624736,-2.268233,3.432743
0.12639193,0.0058001173,-0.021281999,1.3200631,-2.1976285,3.32589
0.12245766,0.005619574,-0.020619541,1.2789727,-2.1292217,3.2223632
0.118645854,0.005444651,-0.019977707,1.2391616,-2.0629444,3.122059
0.11495271,0.0052751726,-0.019355852,1.2005897,-1.9987302,3.0248775
