ax,ay,az,gx,gy,gz
-4.8464074,-5.4464135,-6.2464204,78.347984,-69.85791,-14.315584
-4.8057137,-5.539604,-6.2385964,89.5545,-84.789474,-16.597107
-4.345941,-5.872593,-5.8447876,101.08813,-88.02066,-14.60637
-3.9006505,-5.9718394,-5.6744537,111.18543,-88.467026,-15.856757
-3.2707155,-5.734905,-5.538616,106.396484,-86.053154,-14.787396
-2.7643635,-5.633144,-5.4670224,91.8798,-84.68056,-6.5121737
-2.3808033,-5.8276606,-5.2911797,76.73632,-84.084595,3.7472296
-1.9812113,-6.0490007,-4.9913187,66.64068,-82.86782,11.368196
-1.5593679,-6.22652,-4.653445,59.903404,-80.96909,16.821585
-1.177214,-6.415539,-4.3080583,58.141003,-76.68135,21.854136
-0.9580904,-6.4812474,-4.0066805,57.579765,-71.93706,28.434973
-0.80998534,-6.4134235,-3.7196457,56.741688,-67.44839,36.34418
-0.7055297,-6.2441583,-3.459053,56.738506,-63.117767,44.03365
-0.6801903,-6.022156,-3.242088,57.578835,-60.19842,49.690502
-0.6395272,-5.816634,-3.0386217,59.84257,-58.108788,52.425583
-0.4798716,-5.6800513,-2.8494573,63.69115,-55.638233,54.520477
-0.25340208,-5.262953,-2.66892,66.68119,-52.58185,58.761086
-0.019457942,-4.463831,-2.503252,66.60159,-49.317963,64.36781
0.1631793,-3.6239712,-2.3367155,63.867626,-46.48889,68.1128
0.26352882,-3.0296817,-2.1890094,61.61561,-44.02822,67.374084
0.2388361,-2.777145,-2.112544,60.741524,-42.479034,65.67568
0.25897965,-2.554562,-2.0540826,60.9278,-41.15515,66.08416
0.3483526,-2.083912,-1.989574,59.967323,-39.68556,68.961136
0.4724759,-1.4444977,-1.9208229,57.957813,-37.91788,70.78512
0.55191475,-0.7874607,-1.867004,54.916588,-36.248486,68.87136
0.5653022,-0.32381487,-1.8508513,51.432915,-34.688267,65.13802
0.521117,-0.065997854,-1.8795403,48.564644,-33.78316,61.51798
0.46575752,0.16157962,-1.9244424,45.83954,-33.588448,59.13066
0.45147073,0.45240822,-1.9656355,42.585476,-33.48512,57.075794
0.43423155,0.7398861,-2.0147343,39.090652,-33.71791,53.471733
0.401587,0.9702406,-2.0775304,35.59612,-34.336117,48.845695
0.3743421,1.1432002,-2.1419604,31.977184,-35.194,44.29032
0.34787476,1.2897078,-2.2121181,27.805304,-36.29413,40.78838
0.32794115,1.4506464,-2.283711,22.736523,-37.38448,37.92332
0.28604028,1.5677093,-2.3659751,17.349947,-39.0188,34.16084
0.2253954,1.632846,-2.4186895,12.329232,-41.073402,29.56467
0.17579533,1.665379,-2.4159024,7.573743,-43.44205,24.870626
0.16851553,1.6739603,-2.3712096,3.162121,-45.623234,20.891508
0.18490386,1.6699338,-2.3147,-1.5175322,-47.604675,17.782846
0.2208515,1.6344309,-2.2652376,-6.023838,-49.175953,14.8583975
0.24837317,1.5458201,-2.2263803,-10.055235,-50.864914,11.538289
0.2980053,1.4742279,-2.1454773,-13.924457,-52.589344,8.654749
0.39053202,1.4173951,-2.0132132,-18.275837,-54.06603,6.7756295
0.5532863,1.3127338,-1.8252494,-22.604053,-54.598152,5.3138947
0.7538316,1.1502337,-1.6014098,-26.7007,-53.249,3.8504047
0.8827944,0.8854314,-1.3919579,-29.982977,-51.08471,2.2722237
0.91590226,0.55575454,-1.1957706,-32.093353,-49.363613,1.0835555
0.97194827,0.25359902,-0.9440323,-33.22836,-47.64126,0.42045623
1.0724262,-0.002231563,-0.64560306,-33.458485,-45.17418,0.24587744
1.2065719,-0.22524767,-0.33671242,-32.48344,-41.21521,-0.13700218
1.3340418,-0.40696195,-0.07503209,-30.815578,-36.32559,-0.6470262
1.4190189,-0.551346,0.11972799,-28.88824,-31.02593,-0.43276688
1.4601759,-0.6620792,0.27093792,-26.797646,-25.962408,0.2178633
1.5040767,-0.7185233,0.41490093,-24.280104,-20.888205,0.5557503
1.5568134,-0.73291653,0.5373109,-21.42145,-15.523505,0.31289977
1.6112388,-0.71536255,0.63059556,-19.020517,-9.81646,-0.053940404
1.6665078,-0.7215656,0.7077202,-16.7553,-3.5287604,-0.49773556
1.6699324,-0.74606115,0.7230998,-13.961863,2.915818,-0.711456
1.5941086,-0.75249505,0.68274975,-11.282444,8.353893,-0.385138
1.5186338,-0.73267466,0.6351039,-8.6664095,13.179233,0.048866566
1.4469249,-0.6945835,0.5762426,-6.174356,17.604448,0.22570446
1.3881258,-0.6854285,0.52780044,-3.68252,21.94593,-0.07623104
1.3551571,-0.73056316,0.49064094,-0.59285164,26.643415,-0.84701246
1.3202642,-0.79774123,0.41278353,3.2186286,31.412853,-1.5754336
1.2451609,-0.83105,0.2581609,6.5221996,35.072006,-1.3617502
1.1626354,-0.84446996,0.09038573,9.029046,37.691017,-1.0142738
1.11387,-0.8804448,-0.045638382,11.34711,39.792725,-0.98567814
1.073022,-0.95468116,-0.16955023,13.518544,41.54618,-1.2431182
1.0210276,-1.058519,-0.3018163,15.597475,43.10231,-1.2151055
0.9266734,-1.1257838,-0.46645415,16.980171,44.22491,0.04780969
0.7560863,-1.1420608,-0.6842556,18.110796,44.57942,1.8477819
0.5630206,-1.1020918,-0.9222058,19.120472,43.852875,3.22899
0.37131977,-1.0207664,-1.1614038,19.538597,42.033966,3.9714675
0.20004646,-0.9622905,-1.3837794,19.486088,39.326454,4.2907314
0.06350846,-0.93573433,-1.582192,19.21295,36.031094,4.4912367
-0.053878505,-0.9360908,-1.7713907,18.740145,32.497814,5.013528
-0.16607648,-0.9494602,-1.9512241,18.442915,28.838629,5.8988934
-0.29910114,-0.9619525,-2.1359453,18.093676,24.762585,6.892336
-0.4414098,-1.0111793,-2.3136,17.801992,19.97524,7.7976623
-0.55858773,-1.1042138,-2.4663675,17.895002,14.13051,8.640993
-0.5803382,-1.2296859,-2.554944,18.288828,8.476421,9.770522
-0.54865825,-1.3486915,-2.611453,18.75065,3.3983748,11.530384
-0.5189092,-1.4336078,-2.6518316,18.475681,-1.4492136,14.255156
-0.51658565,-1.5380577,-2.678748,18.096329,-6.3561645,17.564077
-0.51477635,-1.6542118,-2.6900666,18.576714,-11.617955,20.864824
-0.43866745,-1.7762606,-2.663154,19.474884,-16.69427,24.115616
-0.2952839,-1.946825,-2.605559,21.120169,-21.03961,27.737667
-0.09567876,-2.070986,-2.5217257,23.511396,-23.984756,32.79126
0.09816929,-1.9766442,-2.4325964,25.181612,-25.63248,39.220676
0.20800883,-1.7560254,-2.3790188,25.345028,-27.4306,45.719273
0.20553376,-1.5809414,-2.3592198,25.9105,-30.39531,50.254448
0.24390815,-1.4837756,-2.3217614,26.595669,-34.28855,53.416878
0.43128842,-1.4451239,-2.2067003,27.725296,-37.279,56.36834
0.69466245,-1.2769579,-2.0271573,28.773342,-38.925762,59.724907
0.9724541,-0.9461557,-1.8156885,28.06036,-39.000687,62.511448
1.1766782,-0.633148,-1.6401051,27.131317,-38.435734,64.12968
1.3140275,-0.35274366,-1.491289,25.76026,-38.052708,64.530945
1.5666907,-0.17631815,-1.2761217,23.942158,-37.605457,65.11226
1.8007714,-0.0689749,-1.0785122,22.478857,-35.444405,65.20227
1.9309226,0.058013212,-0.9309204,21.50778,-32.573414,64.38376
1.9317371,0.19684194,-0.82382613,20.51387,-30.427528,62.866604
2.0025973,0.33174384,-0.67872363,19.899967,-27.590553,60.791077
2.125336,0.44105324,-0.5411455,19.126242,-24.011908,58.367245
2.2489967,0.57546043,-0.4241809,16.721233,-20.2484,56.556774
2.1788077,0.55750096,-0.41094264,16.19938,-19.616468,54.7917
2.1108205,0.54010475,-0.39811963,15.693897,-19.004358,53.08198
2.0449648,0.5232539,-0.38569865,15.204261,-18.411438,51.42587
1.9811726,0.5069311,-0.37366688,14.729968,-17.837097,49.821655
1.9193788,0.49111968,-0.362012,14.270533,-17.280748,48.26769
1.8595197,0.47580332,-0.35072207,13.825482,-16.741821,46.762383
1.8015344,0.46096635,-0.33978552,13.394362,-16.21976,45.30419
1.7453635,0.44659364,-0.32919115,12.976733,-15.714037,43.89163
1.6909496,0.43267053,-0.3189282,12.572166,-15.224132,42.52325
1.6382371,0.41918278,-0.3089862,12.180252,-14.749546,41.197666
1.5871726,0.4061167,-0.29935497,11.800589,-14.289797,39.913517
1.5377041,0.39345896,-0.29002476,11.432792,-13.844417,38.669506
1.4897813,0.38119674,-0.28098607,11.076487,-13.412952,37.464363
1.4433554,0.36931756,-0.27222976,10.731312,-12.994967,36.296867
1.3983796,0.35780942,-0.26374692,10.396917,-12.590035,35.165833
1.3548081,0.34666058,-0.25552893,10.072965,-12.197749,34.070118
1.3125969,0.33585984,-0.24756752,9.759125,-11.817708,33.00861
1.2717032,0.32539618,-0.23985462,9.455082,-11.449531,31.980232
1.2320858,0.3152591,-0.23238242,9.160527,-11.092843,30.983952
1.1937046,0.30543834,-0.22514337,8.875164,-10.747285,30.018757
1.1565208,0.29592395,-0.21813017,8.598703,-10.412508,29.083675
1.120497,0.2867064,-0.21133575,8.330867,-10.088174,28.177763
1.0855967,0.27777627,-0.20475323,8.071383,-9.773956,27.300106
1.0517848,0.2691247,-0.19837601,7.819993,-9.469537,26.44982
1.0190272,0.26074287,-0.19219765,7.5764413,-9.174611,25.626045
0.987291,0.2526224,-0.18621191,7.3404837,-8.888881,24.827957
0.95654416,0.24475507,-0.1804128,7.1118817,-8.612058,24.05475
0.92675585,0.23713301,-0.17479445,6.8904066,-8.343864,23.305647
0.897896,0.22974852,-0.16935122,6.675834,-8.08403,22.579893
0.8699357,0.22259419,-0.16407765,6.46795,-7.832295,21.876759
0.8428467,0.21566282,-0.15896843,6.266544,-7.5884047,21.195538
0.8166019,0.20894745,-0.15401843,6.0714145,-7.3521147,20.535543
0.7911749,0.20244132,-0.14922266,5.882365,-7.1231875,19.896116
0.76654017,0.19613792,-0.14457633,5.699207,-6.9013934,19.276613
0.7426729,0.19003092,-0.14007476,5.5217543,-6.6865096,18.67641
0.7195493,0.18411417,-0.13571343,5.3498306,-6.4783206,18.094908
0.697146,0.17838174,-0.13148797,5.183263,-6.276617,17.53152
0.6754406,0.1728279,-0.12739414,5.021884,-6.081197,16.985682
0.6544113,0.16744705,-0.12342783,4.865532,-5.891864,16.456848
0.6340371,0.1622338,-0.11958507,4.71405,-5.7084284,15.944485
0.61429745,0.15718293,-0.115862,4.567286,-5.5307064,15.448081
0.5951726,0.15228938,-0.11225488,4.425093,-5.3585196,14.967137
0.5766434,0.14754823,-0.1087601,4.287329,-5.191695,14.501173
0.55869126,0.14295474,-0.105374165,4.1538553,-5.030067,14.049721
0.54129815,0.1385043,-0.10209368,4.0245385,-4.8734717,13.612328
0.5244467,0.13419245,-0.09891535,3.8992484,-4.721753,13.188556
0.5081201,0.13001488,-0.095836,3.7778602,-4.5747595,12.77798
0.49230185,0.1259674,-0.09285253,3.6602519,-4.432343,12.380189
0.47697616,0.12204594,-0.08996197,3.5463057,-4.294361,11.994785
0.4621277,0.1182466,-0.087161414,3.4359076,-4.1606755,11.621383
0.44774154,0.11456556,-0.08444806,3.328947,-4.031153,11.259607
0.43380335,0.11099913,-0.08181919,3.225317,-3.9056633,10.909096
0.42029914,0.10754375,-0.07927218,3.1249135,-3.7840807,10.569497
0.40721542,0.10419596,-0.07680447,3.0276363,-3.6662838,10.240473
0.39453903,0.100952394,-0.07441359,2.9333878,-3.5521545,9.921693
0.3822573,0.09780982,-0.07209715,2.8420734,-3.4415786,9.612838
0.370358,0.09476509,-0.06985283,2.7536023,-3.3344452,9.313599
0.3588291,0.09181515,-0.067678384,2.6678855,-3.2306476,9.023677
0.3476592,0.08895706,-0.065571636,2.5848374,-3.1300812,8.74278
0.33683702,0.08618794,-0.063530475,2.5043747,-3.032646,8.470629
0.32635176,0.08350503,-0.061552864,2.426417,-2.9382439,8.20695
0.31619292,0.080905646,-0.059636816,2.3508863,-2.8467808,7.9514804
0.30635035,0.078387186,-0.05778042,2.2777073,-2.7581654,7.7039638
0.2968142,0.07594713,-0.055981815,2.2068062,-2.6723084,7.464153
0.28757492,0.07358304,-0.054239206,2.1381123,-2.5891244,7.231807
0.27862328,0.071292534,-0.05255084,2.071557,-2.50853,7.0066953
0.2699503,0.06907334,-0.05091504,2.0070736,-2.4304445,6.788591
0.2615473,0.06692323,-0.04933016,1.9445976,-2.3547897,6.577276
0.2534059,0.064840056,-0.04779462,1.8840665,-2.28149,6.3725395
0.24551794,0.06282173,-0.04630688,1.8254197,-2.2104726,6.1741767
0.23787552,0.060866237,-0.04486545,1.7685986,-2.1416655,5.981989
0.23047101,0.058971614,-0.043468896,1.7135463,-2.0750005,5.7957835
0.22329701,0.05713597,-0.042115815,1.6602076,-2.0104108,5.6153746
0.21634632,0.055357467,-0.04080485,1.6085294,-1.9478316,5.440582
0.20961201,0.053634327,-0.0395347,1.55846,-1.8872005,5.27123
0.20308731,0.051964827,-0.038304087,1.5099491,-1.8284568,5.10715
