ax,ay,az,gx,gy,gz
0.0,1.3572851,-0.5218229,-8.544623,-14.759226,10.098273
-0.5565134,1.2008681,-0.9616863,-18.868412,-32.242596,8.921746
-0.7276254,0.64409584,-1.1211085,-22.120298,-43.00706,4.7171164
-0.72159696,0.08223887,-1.0456812,-21.50135,-48.4665,0.57396364
-0.6727441,-0.37398404,-0.98576254,-20.751314,-49.573498,-2.730541
-0.68966645,-0.8117075,-1.0569625,-17.882826,-48.54109,-4.854349
-0.82073766,-1.174562,-1.2455106,-15.443642,-47.832863,-4.8584385
-0.94970363,-1.5753648,-1.4191164,-14.453944,-47.6435,-3.8337052
-1.047322,-2.0518944,-1.5678419,-13.041664,-48.29821,-1.8039005
-1.056152,-2.5355866,-1.6459928,-10.4819975,-48.93661,0.97267336
-0.999613,-2.9190798,-1.6763079,-6.481234,-48.858204,4.4571886
-0.9563974,-3.1994154,-1.7112595,-2.5154114,-49.102776,8.579601
-0.8793256,-3.4247298,-1.6895137,1.8061521,-49.43308,12.872865
-0.81151026,-3.6299248,-1.6596711,6.4542856,-49.754234,16.74972
-0.7429707,-3.8181202,-1.6174188,11.063651,-49.84407,20.924706
-0.643026,-3.8943098,-1.5588543,15.1089735,-49.645443,26.188583
-0.5138901,-3.8088362,-1.4895597,18.87504,-49.387783,32.00162
-0.3506504,-3.4686434,-1.395982,21.732548,-49.09097,36.551006
-0.17299706,-3.09293,-1.2937583,24.38403,-48.57938,39.25642
-0.015456754,-2.7353997,-1.2012781,26.731682,-47.86803,40.532677
0.11702427,-2.4158707,-1.1092154,28.706186,-46.79795,41.3392
0.22470398,-2.1124504,-1.01787,29.997467,-45.408325,43.131
0.34152028,-1.683955,-0.9143377,30.186085,-43.734253,45.12818
0.42844686,-1.2308224,-0.8331693,29.821457,-42.14703,45.867798
0.48793882,-0.82807493,-0.78032917,29.20664,-40.77467,44.914886
0.5241695,-0.55380106,-0.7624077,28.726326,-39.642162,42.777264
0.552484,-0.40301412,-0.76536113,28.584385,-38.698162,40.52684
0.61428523,-0.25556332,-0.7634972,27.818077,-37.556656,39.283398
0.6684043,-0.053310987,-0.7825531,26.388824,-36.357258,38.21725
0.6924858,0.15755439,-0.81760144,24.801153,-35.38697,36.527046
0.7006659,0.36883032,-0.86180764,23.159748,-34.705032,34.02844
0.6838342,0.5611746,-0.9330621,21.38791,-34.522217,30.647158
0.6528248,0.7099244,-1.0156223,19.332615,-34.75765,27.190487
0.6399071,0.8295982,-1.0825062,17.269697,-35.064384,23.839094
0.62119216,0.9517892,-1.1439626,15.264532,-35.35715,20.521673
0.57191926,1.1068726,-1.2002401,13.021973,-35.84049,16.754292
0.49310052,1.2335067,-1.2531067,11.301322,-36.828053,11.833743
0.4344235,1.3154434,-1.2982101,9.375817,-38.26416,7.1169453
0.4535498,1.3826456,-1.305593,6.4129996,-39.694294,3.3805373
0.51079166,1.4111798,-1.2883123,2.6031785,-40.829502,0.52074736
0.5652525,1.3975238,-1.2740722,-1.2035626,-41.645016,-2.090214
0.5894205,1.3628535,-1.2778002,-4.5802274,-42.44128,-5.148249
0.6205205,1.3072431,-1.2757448,-7.4863176,-43.165413,-8.526823
0.6477309,1.2235025,-1.2643262,-10.496568,-43.888268,-11.397066
0.68081623,1.1170471,-1.2286139,-13.647646,-44.48415,-13.753957
0.712028,0.97578704,-1.1742784,-16.35485,-44.796303,-16.111738
0.7039848,0.80866814,-1.1337471,-18.206705,-45.156673,-18.427044
0.671471,0.63207996,-1.094862,-19.805407,-45.692898,-19.982622
0.650521,0.45342267,-1.0273598,-21.340117,-46.18894,-21.028513
0.630737,0.2545583,-0.93136394,-22.307274,-46.543312,-21.993826
0.61769336,0.05392956,-0.81020325,-22.777693,-46.65126,-22.892698
0.62361056,-0.15569495,-0.66947186,-22.892014,-46.230656,-23.126062
0.6486455,-0.36997873,-0.52019286,-22.78992,-45.48756,-22.592047
0.68724203,-0.5601422,-0.36059207,-22.590181,-44.478016,-21.655834
0.7399401,-0.74038506,-0.17555453,-22.15521,-43.040974,-20.641205
0.78627604,-0.91587377,0.024485197,-21.34954,-41.20966,-19.587366
0.8675874,-1.0706596,0.2606372,-20.547136,-38.74267,-17.833391
1.0248451,-1.1450324,0.5216849,-20.05377,-34.660557,-15.0846195
1.1653618,-1.1470242,0.6991233,-18.834322,-29.512312,-12.538011
1.1755779,-1.0956235,0.7697046,-17.99618,-25.364122,-11.002365
1.1726681,-1.0859885,0.8605022,-16.658262,-21.839985,-10.40312
1.2166748,-1.0894231,0.9913719,-15.074499,-17.818317,-9.285012
1.3021669,-1.0607108,1.1176918,-13.658236,-13.143513,-7.5311685
1.3883816,-0.9973609,1.2089518,-12.279093,-7.9846687,-5.6666927
1.4342499,-0.9072291,1.2350146,-10.576169,-2.6789463,-4.498551
1.3849865,-0.82954985,1.189676,-8.596252,1.3384129,-4.1581125
1.3502469,-0.76832056,1.1676375,-6.548569,4.6051497,-4.2987037
1.367354,-0.7125184,1.1699204,-4.9547067,8.013442,-4.1123667
1.3851317,-0.66453224,1.1501219,-3.6697888,11.7145605,-3.5794837
1.386116,-0.61741835,1.0981743,-2.4531515,15.50787,-3.1714756
1.3480638,-0.6006573,1.0021081,-0.835909,19.044603,-3.2182012
1.2765852,-0.6005728,0.87075704,0.8052822,21.668295,-3.568042
1.2553549,-0.63910425,0.7691195,2.3011506,23.678104,-3.6427267
1.2646997,-0.6687548,0.6765702,3.4631665,25.596535,-3.188444
1.2893554,-0.6910646,0.5869322,4.571578,27.761366,-2.4300344
1.292477,-0.69555616,0.47114572,5.921847,29.980894,-1.8702668
1.2431458,-0.67628634,0.3158586,7.257022,31.421844,-1.9558661
1.1707848,-0.66506535,0.15807502,8.346347,32.25687,-2.1099946
1.1154131,-0.66294914,0.015224379,9.1114435,32.78554,-1.981788
1.0745078,-0.6620995,-0.12013384,9.709364,33.308643,-1.4362915
1.023456,-0.6362634,-0.26829094,10.018781,33.75909,-0.67767614
0.9410891,-0.60763943,-0.4469328,10.2548275,33.71278,-0.029978087
0.81377345,-0.58748585,-0.6588398,10.337349,32.967125,0.27435142
0.6812374,-0.61265254,-0.87054926,10.409551,31.556524,0.49214375
0.5681217,-0.66573006,-1.0703566,10.429579,29.688683,1.0308801
0.47922173,-0.72131824,-1.2565845,10.356993,27.583477,1.9280411
0.40050346,-0.7701733,-1.4368678,10.286724,25.114506,3.0800557
0.31905565,-0.79780334,-1.6141027,10.188048,22.226414,4.1168694
0.23132706,-0.86114335,-1.7771372,10.253262,18.829353,5.0575385
0.15224732,-0.9713598,-1.924209,10.425433,14.930085,6.2093096
0.09607135,-1.1038592,-2.046814,10.817751,10.722479,7.88664
0.07117439,-1.192326,-2.1454592,11.0447235,6.227823,10.212226
0.08528641,-1.2315379,-2.2105544,11.190007,1.8678453,12.538691
0.07917555,-1.263689,-2.2867637,11.35745,-2.7323568,14.543253
0.0472002,-1.3313297,-2.3523376,11.22746,-7.7866793,16.662014
0.03900064,-1.4266056,-2.3766253,11.405071,-12.8569975,19.651068
0.07279615,-1.4355593,-2.3772624,10.998898,-17.90091,23.639187
0.17116146,-1.3447777,-2.3248086,10.500606,-22.566446,27.27268
0.29305083,-1.2272336,-2.2400415,10.092407,-26.7589,29.632149
0.37986404,-1.1745564,-2.1467588,9.340489,-30.81558,31.141329
0.44033468,-1.2294773,-2.033392,8.940103,-34.775177,32.995724
0.54986554,-1.2311174,-1.8739702,8.340745,-37.870808,36.108795
0.74558824,-1.0782603,-1.6593645,7.3333755,-39.826874,38.98688
0.93291825,-0.8807591,-1.4474391,6.3709636,-40.940384,40.86012
1.1101876,-0.6709177,-1.2294933,5.3340163,-41.28751,41.61166
1.287139,-0.47393003,-0.99613506,4.0286627,-40.77622,41.93017
1.4546431,-0.2759735,-0.7691881,2.295778,-39.425976,41.99303
1.6306237,-0.09211263,-0.531884,0.038409945,-37.337395,41.469425
1.7913915,0.01836782,-0.3005161,-2.0740142,-34.383324,40.619534
1.9102628,0.09002324,-0.12460736,-3.8366826,-30.594763,39.769615
1.98157,0.1442185,-0.0068727387,-4.976991,-26.507961,38.105053
1.9994493,0.16790812,0.070916176,-5.3565707,-22.537626,35.69902
1.9720314,0.15908809,0.118992604,-5.240951,-18.914114,33.22362
1.9105567,0.1541288,0.11528322,-5.077574,-18.3245,32.187935
1.8510039,0.14932455,0.1116898,-4.919304,-17.753317,31.184626
1.7933124,0.14467044,0.108208686,-4.7659802,-17.199987,30.212671
1.7374234,0.14016177,0.10483634,-4.617448,-16.663946,29.271088
1.6832805,0.13579392,0.10156934,-4.473555,-16.14465,28.358917
1.6308284,0.1315625,0.09840438,-4.334156,-15.641573,27.475237
1.5800141,0.1274632,0.09533824,-4.19911,-15.154204,26.619148
1.5307863,0.12349189,0.09236783,-4.06828,-14.682051,25.789785
1.4830949,0.11964453,0.08949013,-3.941534,-14.224635,24.986311
1.436892,0.115917236,0.08670224,-3.8187432,-13.781494,24.207912
1.3921309,0.11230625,0.08400134,-3.6997838,-13.352181,23.4538
1.3487661,0.10880792,0.0813847,-3.5845358,-12.936262,22.723217
1.306754,0.10541871,0.078849696,-3.472883,-12.533317,22.015423
1.2660524,0.10213522,0.07639375,-3.3647125,-12.14294,21.329704
1.22662,0.098954126,0.074014395,-3.2599156,-11.764736,20.66537
1.1884172,0.09587223,0.07170924,-3.1583865,-11.398327,20.021753
1.1514056,0.09288642,0.069475956,-3.0600228,-11.043342,19.398205
1.1155479,0.08999369,0.06731229,-2.9647257,-10.699424,18.794094
1.0808079,0.08719114,0.06521608,-2.8723993,-10.366226,18.208815
1.0471507,0.08447595,0.0631852,-2.7829509,-10.043414,17.641779
1.0145427,0.08184538,0.061217625,-2.69629,-9.730664,17.092417
0.98295075,0.0792968,0.059311368,-2.6123302,-9.427661,16.560177
0.95234334,0.07682763,0.057464514,-2.5309868,-9.134099,16.04452
0.9226897,0.074435405,0.05567521,-2.452178,-8.849686,15.544932
0.89396,0.072117716,0.053941652,-2.3758247,-8.574134,15.060911
0.86612535,0.06987224,0.05226211,-2.3018503,-8.307167,14.59197
0.83915794,0.06769671,0.05063489,-2.2301805,-8.048517,14.137639
0.81303066,0.065588966,0.049058367,-2.1607435,-7.7979255,13.697461
0.7877172,0.06354687,0.047530953,-2.0934696,-7.55514,13.270996
0.7631923,0.061568398,0.046051115,-2.0282912,-7.319917,12.857815
0.7394313,0.059651546,0.044617373,-1.965143,-7.092021,12.457503
0.7164104,0.0577944,0.04322829,-1.9039617,-6.871223,12.06966
0.69410646,0.05599509,0.04188247,-1.8446858,-6.6573024,11.693897
0.6724972,0.054251827,0.040578563,-1.7872561,-6.4500437,11.329837
0.6515609,0.05256285,0.039315265,-1.7316151,-6.24924,10.977115
0.63127667,0.050926473,0.03809131,-1.6777067,-6.05469,10.635378
0.61162406,0.049341056,0.03690547,-1.6254772,-5.8661985,10.304282
0.5925835,0.04780501,0.03575656,-1.5748742,-5.6835766,9.983498
0.5741358,0.046316795,0.034643423,-1.5258468,-5.5066414,9.672702
0.55626255,0.04487492,0.03356495,-1.4783462,-5.335216,9.371584
0.53894585,0.043477945,0.03252006,-1.4323246,-5.1691284,9.079843
0.5221684,0.04212447,0.031507704,-1.3877361,-5.0082126,8.797186
0.50591326,0.040813133,0.030526869,-1.3445358,-4.852307,8.523329
0.4901643,0.03954263,0.029576574,-1.3026807,-4.7012553,8.257999
0.47490567,0.038311683,0.028655866,-1.2621288,-4.5549073,8.000932
0.46012214,0.037119064,0.027763825,-1.2228395,-4.4131155,7.751867
0.44579887,0.035963573,0.026899558,-1.1847733,-4.2757387,7.510557
0.43192154,0.03484406,0.026062198,-1.1478925,-4.1426387,7.27676
0.41847628,0.0337594,0.02525091,-1.1121597,-4.0136824,7.050242
0.4054496,0.03270851,0.02446488,-1.0775394,-3.8887413,6.830776
0.3928285,0.031690337,0.023703318,-1.043997,-3.76769,6.618143
0.3806003,0.030703861,0.022965468,-1.0114989,-3.650407,6.41213
0.3687528,0.029748097,0.022250589,-0.98001254,-3.5367756,6.21253
0.35727414,0.028822089,0.021557964,-0.94950634,-3.4266815,6.019144
0.3461528,0.027924906,0.020886902,-0.9199499,-3.320015,5.831779
0.33537772,0.027055657,0.02023673,-0.89131355,-3.2166688,5.650246
0.32493806,0.026213465,0.0196068,-0.86356866,-3.1165402,5.4743648
0.3148234,0.025397493,0.01899648,-0.8366875,-3.0195286,5.303959
0.30502358,0.024606923,0.01840516,-0.8106432,-2.9255369,5.138858
0.29552886,0.023840962,0.017832248,-0.78540957,-2.8344712,4.978896
0.2863297,0.023098845,0.017277168,-0.76096153,-2.7462406,4.823914
0.2774169,0.02237983,0.01673937,-0.7372745,-2.6607563,4.673757
0.26878157,0.0216832,0.016218312,-0.71432495,-2.5779333,4.5282736
0.26041505,0.021008253,0.015713476,-0.69208974,-2.4976883,4.3873196
0.25230896,0.02035432,0.015224353,-0.67054665,-2.4199414,4.250753
0.24445522,0.01972074,0.014750457,-0.64967424,-2.3446147,4.118438
0.23684596,0.019106884,0.0142913135,-0.6294515,-2.271633,3.9902413
