ax,ay,az,gx,gy,gz
-0.8218256,0.09545541,-2.7445705,43.00221,-8.822807,5.3818674
-0.52602273,0.555982,-2.2168498,37.66425,-10.493393,8.226914
-0.16277689,1.1864846,-1.8080934,31.390224,-9.903165,9.13827
0.17231013,1.9021834,-1.4322908,28.860573,-6.7764416,6.632108
0.35831025,2.7353783,-1.1439667,24.900293,-2.1516554,0.6388608
0.35445264,3.5124564,-1.0172069,17.820091,-0.14911906,-6.214053
0.40491349,4.287543,-0.9826374,8.028845,0.21185517,-11.059208
0.53084135,4.847944,-1.0455158,-2.4678636,0.22356029,-15.3682575
0.681509,5.1873617,-1.2066756,-12.051007,0.5964119,-20.426914
0.7715108,5.303865,-1.4722852,-20.846308,0.7967493,-26.217653
0.7990726,5.184112,-1.8165376,-28.858997,0.5175065,-31.918951
0.71868545,4.7460995,-2.233042,-35.04902,-0.30004457,-37.08289
0.561344,4.1692142,-2.626335,-39.559177,-1.8759522,-41.31256
0.35036305,3.5142612,-2.973072,-42.94015,-4.3972826,-44.0716
0.11110543,2.8111808,-3.2817922,-45.479294,-8.194151,-45.499527
-0.10665695,2.0616355,-3.52418,-45.981014,-13.337916,-45.979424
-0.26569638,1.2782696,-3.6390605,-45.19184,-18.99395,-45.648262
-0.35149345,0.5147989,-3.6357205,-44.083218,-24.758232,-43.693657
-0.36441714,-0.22939748,-3.5401914,-42.759975,-30.080645,-39.936337
-0.3048699,-0.9264249,-3.3971446,-40.384766,-34.800407,-35.580357
-0.18923943,-1.5379587,-3.1955774,-36.417423,-38.450165,-30.811798
-0.03836986,-1.9982646,-2.8978808,-31.72443,-41.003155,-25.627346
0.11426926,-2.275058,-2.568381,-26.828344,-42.696342,-20.433508
0.27568263,-2.376873,-2.209247,-22.004444,-43.67941,-15.558373
0.45532683,-2.3197823,-1.8454283,-17.740091,-44.157627,-10.9314
0.6540344,-2.1513443,-1.4857603,-14.251087,-43.96192,-6.593266
0.8497207,-1.8554105,-1.1493284,-11.240435,-42.784916,-3.1469226
1.0292165,-1.4811126,-0.8522134,-8.994781,-40.899616,-0.4275236
1.1788112,-1.0688571,-0.6129412,-7.487726,-38.631027,1.7093725
1.2934458,-0.63901323,-0.44349378,-6.6488023,-36.14026,3.1544714
1.3786179,-0.22233719,-0.34349772,-6.593356,-33.412495,3.5673172
1.4274603,0.15331823,-0.31259444,-7.050239,-30.642363,3.4569147
1.445011,0.4943616,-0.32457685,-7.9600997,-27.913778,2.8544471
1.4257812,0.8009127,-0.37400648,-9.216934,-25.289068,1.8039902
1.3614787,1.0680631,-0.4542397,-10.695974,-22.984316,0.25485572
1.2611288,1.3002906,-0.5598488,-12.420997,-21.42106,-1.7985076
1.1479216,1.4896562,-0.67604476,-14.548277,-20.47236,-3.88893
1.0444055,1.6414347,-0.78438306,-17.27549,-19.990105,-5.698386
0.9451702,1.7452211,-0.88466084,-20.658606,-19.912241,-7.2290244
0.8574062,1.7846309,-0.9791591,-24.402514,-20.121498,-8.770197
0.7962039,1.7590107,-1.0762569,-28.113213,-20.287952,-10.945353
0.74737614,1.6281168,-1.1998593,-31.485727,-20.435959,-13.197504
0.6772386,1.4233587,-1.3489671,-34.81109,-21.007158,-14.7662115
0.5858445,1.1177983,-1.5002078,-37.70146,-22.068052,-15.838425
0.4829472,0.7107096,-1.6379642,-39.248768,-23.348629,-16.892673
0.37869933,0.2741219,-1.7649416,-38.981407,-24.955166,-17.733076
0.2989088,-0.13586289,-1.8693544,-37.728638,-26.725069,-17.972097
0.22383396,-0.4945544,-1.9422938,-35.78568,-28.655453,-17.629938
0.14866151,-0.7930659,-1.9809809,-33.371124,-30.83942,-16.885284
0.09591755,-1.0400242,-1.9910512,-30.64835,-33.28484,-15.91547
0.093323335,-1.2457261,-1.981201,-27.683743,-35.735874,-14.571726
0.13821813,-1.4203908,-1.9478003,-24.501324,-37.92669,-13.06461
0.1901924,-1.5428818,-1.8752133,-21.337954,-39.852757,-11.166193
0.23924848,-1.6048874,-1.756159,-18.526958,-41.58462,-8.691509
0.29221135,-1.6366937,-1.6093651,-15.901361,-43.17526,-5.9206295
0.36404842,-1.6450531,-1.4602528,-13.179065,-44.524014,-3.2477272
0.4505957,-1.6422564,-1.332131,-10.082343,-45.67108,-0.8990783
0.56066024,-1.5697871,-1.1979874,-7.1555185,-46.668686,1.486723
0.6980466,-1.4242514,-1.0406514,-4.6107097,-47.203823,3.7671297
0.84504616,-1.2341483,-0.87613755,-2.3988955,-47.045982,5.865107
0.97909904,-1.0052084,-0.72970295,-0.70319366,-46.08285,7.3082266
1.0774548,-0.7914102,-0.6166128,0.97267264,-44.65908,7.9197555
1.1583002,-0.5740571,-0.5201232,2.312143,-42.981052,8.279239
1.2252611,-0.34509146,-0.43670428,3.0464284,-41.221245,8.596768
1.1858392,-0.3339884,-0.42265362,2.9484117,-39.89498,8.320173
1.1477629,-0.32326433,-0.4090826,2.853741,-38.613987,8.0530205
1.1109794,-0.31290436,-0.3959723,2.762284,-37.376488,7.794937
1.0754384,-0.3028943,-0.38330486,2.6739166,-36.180782,7.545571
1.0410919,-0.29322073,-0.3710632,2.5885193,-35.025272,7.304587
1.0078948,-0.28387082,-0.35923114,2.5059795,-33.908424,7.0716667
0.9758036,-0.27483243,-0.3477933,2.4261897,-32.82879,6.846506
0.9447773,-0.26609397,-0.336735,2.3490474,-31.784977,6.6288176
0.9147767,-0.25764436,-0.32604223,2.2744553,-30.775671,6.4183245
0.8857641,-0.24947308,-0.3157017,2.20232,-29.799608,6.2147646
0.85770404,-0.24157001,-0.30570057,2.1325526,-28.855587,6.017887
0.83056206,-0.23392557,-0.2960267,2.0650682,-27.942455,5.8274517
0.8043056,-0.22653049,-0.28666845,1.9997855,-27.059113,5.6432295
0.7789033,-0.21937601,-0.27761465,1.9366266,-26.204508,5.4649997
0.7543252,-0.21245366,-0.2688546,1.8755169,-25.377632,5.2925534
0.7305426,-0.20575535,-0.26037803,1.8163849,-24.577517,5.125688
0.70752794,-0.19927332,-0.2521752,1.7591623,-23.803238,4.9642105
0.6852547,-0.19300012,-0.24423663,1.7037833,-23.053904,4.807935
0.66369754,-0.18692861,-0.23655331,1.6501846,-22.328661,4.6566844
0.64283216,-0.18105194,-0.22911651,1.598306,-21.62669,4.5102873
0.622635,-0.17536347,-0.22191791,1.5480888,-20.9472,4.3685784
0.60308367,-0.16985689,-0.21494947,1.4994774,-20.289438,4.231401
0.58415645,-0.16452608,-0.20820348,1.4524176,-19.652674,4.0986023
0.5658325,-0.15936518,-0.2016725,1.4068577,-19.036203,3.9700363
0.5480917,-0.15436853,-0.19534938,1.362748,-18.439352,3.845562
0.5309148,-0.14953071,-0.18922722,1.3200402,-17.861473,3.7250443
0.5142831,-0.14484645,-0.18329942,1.2786881,-17.301937,3.608352
0.4981788,-0.14031072,-0.17755955,1.2386471,-16.760143,3.4953597
0.48258454,-0.13591863,-0.17200148,1.1998742,-16.235506,3.3859458
0.46748358,-0.13166548,-0.16661926,1.162328,-15.7274685,3.2799933
0.45285994,-0.12754677,-0.16140713,1.1259685,-15.235487,3.1773899
0.43869802,-0.12355811,-0.15635958,1.090757,-14.759041,3.078026
0.42498294,-0.11969529,-0.15147127,1.0566565,-14.2976265,2.981797
0.41170016,-0.115954235,-0.14673707,1.0236309,-13.850757,2.8886015
0.39883578,-0.11233102,-0.14215198,0.99164546,-13.417962,2.7983415
0.38637632,-0.10882185,-0.13771121,0.9606669,-12.998791,2.7109225
0.37430876,-0.10542305,-0.13341013,0.9306627,-12.592804,2.6262531
0.36262053,-0.10213109,-0.12924424,0.90160173,-12.199579,2.5442455
0.3512995,-0.098942555,-0.12520923,0.8734537,-11.818707,2.464814
0.34033394,-0.095854126,-0.121300906,0.8461894,-11.449795,2.3878765
0.32971245,-0.09286262,-0.117515236,0.8197807,-11.092459,2.3133533
0.31942415,-0.08996495,-0.1138483,0.79420036,-10.74633,2.2411675
0.30945837,-0.08715811,-0.11029633,0.76942194,-10.411054,2.171245
0.29980493,-0.08443924,-0.10685567,0.74542004,-10.086285,2.1035137
0.29045382,-0.081805535,-0.10352278,0.72217,-9.7716875,2.037904
0.28139555,-0.0792543,-0.10029425,0.69964796,-9.466941,1.9743485
0.2726208,-0.07678291,-0.09716678,0.6778309,-9.171734,1.9127825
0.2641206,-0.07438886,-0.09413716,0.65669644,-8.885764,1.8531429
0.25588632,-0.07206969,-0.09120232,0.6362231,-8.608739,1.7953688
0.24790952,-0.06982305,-0.088359244,0.61638993,-8.340377,1.7394013
0.24018209,-0.06764664,-0.085605055,0.5971768,-8.080404,1.6851835
0.23269616,-0.06553824,-0.08293694,0.57856417,-7.828556,1.6326603
0.22544414,-0.06349573,-0.080352195,0.5605331,-7.5845776,1.581778
0.21841866,-0.061517026,-0.077848196,0.5430653,-7.348221,1.5324854
0.2116126,-0.059600115,-0.0754224,0.5261431,-7.1192455,1.4847322
0.20501906,-0.05774306,-0.073072344,0.50974923,-6.8974204,1.4384701
0.19863136,-0.055943985,-0.070795655,0.49386716,-6.68252,1.3936522
0.19244304,-0.054201063,-0.06859004,0.47848085,-6.474328,1.3502333
0.18644786,-0.052512538,-0.06645325,0.4635747,-6.2726326,1.3081695
0.18063974,-0.050876696,-0.064383134,0.4491337,-6.0772314,1.2674181
0.17501283,-0.04929189,-0.062377606,0.43514323,-5.887926,1.2279382
0.16956145,-0.047756523,-0.060434636,0.42158917,-5.704526,1.1896898
0.16428009,-0.04626904,-0.05855227,0.40845788,-5.5268464,1.1526343
0.15916343,-0.04482795,-0.056728605,0.39573607,-5.3547077,1.1167344
0.15420634,-0.043431796,-0.054961808,0.383411,-5.187937,1.081954
0.1494038,-0.042079173,-0.0532501,0.37147015,-5.0263653,1.0482581
0.14475097,-0.040768716,-0.051591754,0.35990164,-4.8698316,1.0156126
0.14024319,-0.039499115,-0.049985103,0.3486937,-4.718177,0.98398477
0.13587591,-0.038269084,-0.04842853,0.33783513,-4.5712495,0.9533428
0.13164476,-0.03707739,-0.046920475,0.327315,-4.4289017,0.9236558
0.12754546,-0.035922837,-0.045459416,0.31712273,-4.29099,0.89489406
0.12357392,-0.03480426,-0.044043887,0.30724806,-4.157376,0.8670286
0.11972613,-0.033720538,-0.042672466,0.2976811,-4.027925,0.84003145
0.11599822,-0.032670587,-0.04134378,0.28841224,-3.902508,0.81387544
0.11238647,-0.031653345,-0.040056486,0.27943215,-3.7809982,0.7885344
0.10888724,-0.030667795,-0.0388093,0.27073184,-3.6632743,0.7639828
0.10549702,-0.029712949,-0.037600964,0.26230255,-3.5492177,0.74019605
0.10221241,-0.028787848,-0.036430273,0.25413585,-3.438714,0.71715033
0.09903011,-0.027891561,-0.035296045,0.24622354,-3.3316526,0.6948225
0.09594693,-0.027023194,-0.034197148,0.2385577,-3.227926,0.67319006
0.09295979,-0.026181875,-0.03313248,0.23113061,-3.12743,0.65223145
0.09006569,-0.025366757,-0.03210097,0.22393486,-3.030064,0.63192564
0.087261714,-0.024577027,-0.031101588,0.2169632,-2.9357307,0.6122522
0.084545076,-0.023811892,-0.03013333,0.21020867,-2.844335,0.5931915
0.08191303,-0.023070583,-0.029195223,0.2036645,-2.7557857,0.5747244
0.07936296,-0.022352362,-0.028286332,0.19732411,-2.669994,0.5568323
0.076892294,-0.021656506,-0.027405744,0.19118118,-2.586874,0.53949744
0.074498564,-0.02098232,-0.026552578,0.18522952,-2.5063422,0.5227024
0.07217937,-0.020329125,-0.02572598,0.17946321,-2.428318,0.5064303
0.0699324,-0.019696271,-0.024925118,0.17387645,-2.3527234,0.49066493
0.067755386,-0.019083122,-0.024149194,0.16846363,-2.2794826,0.47539043
0.065646164,-0.018489065,-0.023397429,0.16321936,-2.2085223,0.46059152
0.06360261,-0.017913504,-0.022669073,0.15813838,-2.1397715,0.44625342
0.061622687,-0.017355863,-0.021963393,0.15321559,-2.0731614,0.43236172
0.059704408,-0.016815584,-0.021279685,0.14844608,-2.008625,0.41890255
0.057845853,-0.016292129,-0.020617265,0.14382505,-1.946098,0.40586242
0.056045163,-0.01578497,-0.019975467,0.13934791,-1.8855176,0.3932283
0.054300535,-0.015293599,-0.019353652,0.13501015,-1.8268235,0.3809875
0.052610226,-0.0148175275,-0.018751195,0.13080746,-1.7699566,0.3691278
0.050972536,-0.014356277,-0.018167496,0.12673558,-1.7148601,0.35763735
0.049385834,-0.0139093865,-0.017601967,0.122790486,-1.661479,0.3465046
0.04784853,-0.013476409,-0.017054046,0.11896821,-1.6097597,0.33571845
0.046359085,-0.013056911,-0.01652318,0.11526492,-1.5596505,0.3252681
0.044916004,-0.012650471,-0.016008843,0.11167693,-1.5111014,0.31514305
0.043517854,-0.012256686,-0.015510517,0.10820063,-1.4640635,0.30533323
0.042163227,-0.011875158,-0.015027705,0.10483255,-1.41849,0.2958288
0.04085077,-0.011505509,-0.014559922,0.101569325,-1.3743353,0.28662023
0.03957917,-0.011147366,-0.014106702,0.098407686,-1.3315551,0.27769834
0.038347155,-0.010800373,-0.013667591,0.09534447,-1.2901067,0.2690542
0.037153494,-0.010464181,-0.013242149,0.092376605,-1.2499485,0.26067913
0.035996992,-0.010138455,-0.012829951,0.089501135,-1.2110405,0.2525648
0.03487649,-0.009822869,-0.012430585,0.08671517,-1.1733437,0.24470304
0.033790868,-0.009517106,-0.012043651,0.084015936,-1.1368203,0.23708603
0.032739043,-0.009220863,-0.011668761,0.08140073,-1.1014339,0.22970612
0.031719957,-0.00893384,-0.011305543,0.07886693,-1.0671489,0.22255594
0.030732596,-0.008655752,-0.010953629,0.076412,-1.0339314,0.21562834
