ax,ay,az,gx,gy,gz
-0.20000182,2.5100226,-1.4354676,36.73215,-22.582932,-10.376457
-0.18237168,2.9512203,-1.3080281,33.422062,-22.176062,-15.6397705
0.0959943,3.3473506,-0.9564145,26.684357,-19.388412,-15.10242
0.51412714,3.8667464,-0.6238643,17.80583,-14.7017145,-12.705161
0.9073366,4.490684,-0.37705892,9.4995985,-8.8143015,-13.474037
1.1119919,4.9211755,-0.3194587,2.5538876,-2.8607526,-18.112713
1.1602349,5.168782,-0.43771413,-4.840653,2.0600197,-23.716227
1.0824183,5.221589,-0.6785255,-12.523644,5.896967,-28.490362
0.9118222,5.1418133,-0.9820146,-20.221441,8.013039,-32.526615
0.62008303,4.8826737,-1.313398,-26.020582,8.639234,-36.979008
0.29752934,4.549991,-1.5738788,-29.798923,8.231878,-41.71077
-0.015424565,4.226056,-1.7668723,-32.77397,6.7497096,-45.778683
-0.28499016,3.904905,-1.9290591,-35.67568,4.4226627,-48.60177
-0.5157653,3.5567987,-2.10435,-38.230137,1.0573153,-50.474483
-0.7133745,3.055373,-2.2976055,-39.721508,-3.0346055,-52.11422
-0.84942144,2.4770756,-2.4188526,-39.987732,-7.2210197,-52.694683
-0.9557667,1.9410778,-2.4816804,-39.544712,-11.430375,-51.81238
-1.0623672,1.484881,-2.5247712,-38.78977,-15.816955,-49.961445
-1.1468556,1.085979,-2.5354135,-37.92999,-20.478174,-47.49205
-1.1939472,0.6681967,-2.5004683,-36.29071,-24.9539,-45.4862
-1.1956159,0.21084857,-2.4457948,-33.60269,-29.237703,-43.33389
-1.1591539,-0.2410923,-2.3789654,-30.601444,-33.390053,-40.286915
-1.0898691,-0.66001546,-2.2890425,-27.417542,-37.434242,-35.957226
-0.9705116,-0.9613734,-2.147646,-24.358795,-41.327377,-30.486115
-0.7610543,-1.1191887,-1.9112214,-21.159927,-44.31742,-25.597174
-0.5115178,-1.219695,-1.6439095,-17.55251,-46.0382,-21.497692
-0.2620442,-1.2876097,-1.4009471,-13.758366,-46.65574,-17.78423
-0.03512469,-1.3116078,-1.1925566,-9.905988,-46.662704,-13.985715
0.17554925,-1.2262721,-0.9967642,-6.5224147,-46.309116,-10.116306
0.37413913,-1.0139734,-0.8001869,-3.5655699,-45.578262,-6.8506584
0.5570216,-0.74150574,-0.6158414,-1.1454242,-44.29476,-4.1352205
0.7189226,-0.42199442,-0.4541087,0.90035915,-42.596733,-1.9503701
0.8617595,-0.047361188,-0.3076287,2.4202898,-40.449875,-0.39207062
0.96957904,0.36367905,-0.1895487,2.8420224,-37.85306,0.37135065
1.0270715,0.7710336,-0.11752699,2.525437,-35.21448,0.6840378
1.0538851,1.1603678,-0.07234035,1.5191164,-32.665947,0.5011869
1.0665221,1.507601,-0.040632345,-0.0134498,-30.096148,-0.1964535
1.0654563,1.8099887,-0.030182064,-1.9107095,-27.452295,-1.4162799
1.0416412,2.0597951,-0.048356477,-4.1587152,-24.843216,-3.33523
0.9870983,2.2322466,-0.108713485,-6.5709677,-22.571196,-5.7329836
0.92760885,2.3291965,-0.18689185,-9.106378,-20.651276,-8.358401
0.86789757,2.3450444,-0.28575635,-11.665333,-19.012856,-11.068982
0.7939722,2.2696557,-0.4093357,-13.944001,-17.73121,-13.891907
0.7014941,2.1285157,-0.5432457,-15.940765,-17.056303,-16.282293
0.60105914,1.9345925,-0.6704305,-17.68361,-16.747725,-18.24818
0.49701586,1.723362,-0.7898162,-18.977987,-16.70871,-20.017117
0.3858739,1.4992028,-0.90873003,-19.890314,-17.01681,-21.550865
0.26463538,1.2475526,-1.0267581,-20.466232,-17.808514,-22.68527
0.14368095,0.9725285,-1.1341637,-20.59251,-19.236504,-23.077175
0.03692642,0.69601923,-1.218038,-20.341328,-20.897842,-23.021091
-0.0640506,0.43706045,-1.2791167,-19.679958,-22.702393,-22.654305
-0.15617599,0.20413968,-1.3078082,-18.818731,-24.742735,-21.838676
-0.22866367,-0.008735462,-1.3010329,-17.918852,-26.92166,-20.52799
-0.2797996,-0.20422912,-1.2754196,-16.817295,-29.223715,-18.874735
-0.28828692,-0.40225863,-1.2399923,-15.526202,-31.484653,-17.105032
-0.26045728,-0.5997964,-1.1965296,-13.857645,-33.559628,-15.162799
-0.20454061,-0.7737887,-1.1422218,-11.906723,-35.454605,-13.014407
-0.12098488,-0.8984963,-1.0720152,-9.678243,-37.05708,-10.751625
-0.023532206,-0.97061443,-0.99354243,-7.1407614,-38.217304,-8.769283
0.07465956,-0.99557775,-0.9049268,-4.3892465,-38.95259,-6.8534074
0.1595793,-0.96323913,-0.8115101,-1.7962426,-39.47362,-4.9297605
0.23890212,-0.87002367,-0.70088834,0.66053563,-39.774704,-3.051683
0.33107677,-0.72391236,-0.5764669,2.73205,-39.812847,-1.1935587
0.4428961,-0.54441345,-0.4418659,4.192793,-39.13725,0.56694305
0.56734955,-0.3266124,-0.30525818,5.0181665,-37.881958,2.294479
0.6924996,-0.079192206,-0.17347421,5.1823673,-36.220734,4.008126
0.8031133,0.17453803,-0.05904761,4.9478283,-34.326416,5.3271537
0.77742106,0.16895443,-0.05715863,4.789543,-33.228287,5.156734
0.75259244,0.16355851,-0.055333145,4.636579,-32.16707,4.9920425
0.72859466,0.15834314,-0.053568743,4.488733,-31.141363,4.832862
0.70539635,0.15330152,-0.051863126,4.345813,-30.149828,4.6789846
0.68296784,0.14842722,-0.050214108,4.207635,-29.191196,4.5302134
0.66128075,0.14371403,-0.0486196,4.0740247,-28.264254,4.38636
0.64030796,0.13915607,-0.047077607,3.9448154,-27.367842,4.247245
0.6200236,0.13474774,-0.045586236,3.8198476,-26.500854,4.112696
0.6004031,0.13048367,-0.044143666,3.698969,-25.66224,3.9825506
0.58142257,0.1263587,-0.042748157,3.5820339,-24.85098,3.8566506
0.56305957,0.12236793,-0.04139805,3.4689028,-24.066116,3.7348464
0.5452924,0.11850665,-0.04009174,3.3594425,-23.306715,3.6169944
0.52810025,0.11477033,-0.038827717,3.253525,-22.571894,3.5029566
0.51146317,0.11115465,-0.037604503,3.1510272,-21.860798,3.392601
0.49536213,0.107655466,-0.036420703,3.0518317,-21.172613,3.2858007
0.47977877,0.10426878,-0.03527496,2.9558256,-20.506552,3.182434
0.4646954,0.100990765,-0.03416598,2.8628998,-19.861864,3.0823843
0.45009515,0.09781774,-0.03309252,2.7729506,-19.237825,2.985539
0.43596172,0.094746165,-0.03205338,2.6858773,-18.63374,2.8917902
0.42227948,0.091772646,-0.031047417,2.6015835,-18.048937,2.801034
0.4090333,0.0888939,-0.030073512,2.5199761,-17.482773,2.7131703
0.3962087,0.08610677,-0.029130606,2.4409664,-16.934628,2.6281033
0.38379174,0.08340823,-0.028217668,2.3644679,-16.403906,2.54574
0.37176892,0.08079535,-0.02733371,2.2903976,-15.890031,2.465991
0.3601273,0.07826532,-0.026477778,2.2186759,-15.392448,2.3887706
0.3488544,0.07581541,-0.025648955,2.1492255,-14.9106245,2.3139958
0.3379381,0.073443,-0.024846354,2.0819724,-14.444044,2.241587
0.32736683,0.07114559,-0.02406912,2.0168447,-13.99221,2.1714664
0.31712937,0.06892071,-0.023316426,1.9537737,-13.554645,2.10356
0.3072149,0.06676603,-0.02258748,1.8926924,-13.130882,2.0377958
0.29761297,0.064679265,-0.021881511,1.8335367,-12.720479,1.9741049
0.28831345,0.062658235,-0.021197781,1.7762443,-12.323003,1.9124202
0.27930665,0.060700823,-0.020535572,1.7207551,-11.938037,1.8526769
0.27058318,0.058804974,-0.01989419,1.6670114,-11.565181,1.7948129
0.2621339,0.05696872,-0.019272972,1.6149571,-11.204044,1.7387677
0.25395006,0.055190153,-0.018671269,1.564538,-10.854254,1.6844834
0.2460232,0.05346743,-0.018088458,1.515702,-10.515446,1.6319034
0.23834506,0.05179877,-0.017523937,1.4683986,-10.18727,1.5809734
0.23090777,0.050182443,-0.01697712,1.4225788,-9.869387,1.5316409
0.22370364,0.048616793,-0.01644745,1.3781955,-9.56147,1.4838549
0.21672526,0.04710021,-0.015934376,1.335203,-9.263203,1.4375665
0.20996548,0.045631126,-0.015437373,1.2935574,-8.974278,1.392728
0.20341736,0.044208042,-0.014955933,1.2532157,-8.694401,1.3492935
0.1970742,0.042829506,-0.014489563,1.2141367,-8.423284,1.3072186
0.19092953,0.041494105,-0.014037786,1.1762805,-8.16065,1.2664601
0.18497705,0.040200472,-0.01360014,1.1396084,-7.9062314,1.2269766
0.17921072,0.03894729,-0.0131761795,1.1040832,-7.6597686,1.1887277
0.17362466,0.03773329,-0.012765473,1.0696684,-7.4210105,1.1516746
0.16821317,0.03655723,-0.012367602,1.0363294,-7.1897144,1.1157796
0.16297078,0.035417918,-0.011982163,1.0040319,-6.965646,1.081006
0.15789215,0.034314193,-0.011608765,0.97274345,-6.7485766,1.0473189
0.15297213,0.03324494,-0.0112470295,0.94243217,-6.5382867,1.0146837
0.14820574,0.03220908,-0.010896588,0.91306734,-6.3345633,0.9830677
0.14358816,0.031205554,-0.010557087,0.8846193,-6.1372,0.95243865
0.13911471,0.030233352,-0.010228184,0.8570592,-5.9459968,0.9227657
0.13478085,0.029291492,-0.009909545,0.83035916,-5.760761,0.8940187
0.13058224,0.02837902,-0.009600848,0.8044923,-5.581305,0.86616874
0.12651461,0.027495015,-0.009301783,0.7794324,-5.407448,0.8391877
0.122573875,0.026638586,-0.009012046,0.7551543,-5.2390137,0.81304824
0.11875605,0.02580887,-0.008731347,0.73163337,-5.0758333,0.7877241
0.11505728,0.02500503,-0.0084594,0.708846,-4.9177423,0.76318973
0.11147385,0.024226256,-0.008195935,0.6867692,-4.7645802,0.73942035
0.10800215,0.023471761,-0.0079406835,0.6653807,-4.616194,0.71639216
0.10463868,0.02274079,-0.0076933904,0.644659,-4.4724336,0.69408184
0.101380065,0.022032605,-0.0074538058,0.6245833,-4.3331547,0.672467
0.09822302,0.021346495,-0.007221689,0.6051333,-4.1982174,0.6515259
0.095164366,0.020681767,-0.0069968067,0.5862896,-4.0674853,0.63123745
0.09220104,0.020037757,-0.0067789326,0.56803304,-3.9408278,0.6115813
0.08933006,0.019413816,-0.0065678484,0.5503455,-3.8181174,0.59253776
0.08654854,0.018809317,-0.0063633416,0.533209,-3.6992304,0.57408756
0.083853684,0.018223653,-0.0061652064,0.51660657,-3.5840478,0.55621225
0.08124279,0.017656235,-0.005973245,0.50052136,-3.4724538,0.5388938
0.07871324,0.017106496,-0.0057872636,0.48493728,-3.3643365,0.522115
0.07626249,0.016573882,-0.0056070765,0.46983868,-3.2595873,0.5058589
0.073888086,0.01605786,-0.005432502,0.45521042,-3.1581013,0.49010915
0.07158764,0.015557912,-0.005263366,0.44103783,-3.0597763,0.47485
0.069358855,0.015073537,-0.0050994977,0.42730668,-2.9645143,0.46006617
0.06719948,0.014604248,-0.004940734,0.41400322,-2.8722193,0.44574282
0.06510737,0.014149576,-0.004786914,0.4011141,-2.7827988,0.43186554
0.063080415,0.013709065,-0.004637886,0.38862643,-2.6961634,0.4184205
0.061116587,0.013282272,-0.0044934987,0.37652767,-2.612226,0.40539417
0.059213918,0.012868771,-0.0043536075,0.36480567,-2.5309026,0.3927735
0.0573705,0.012468147,-0.0042180736,0.35344872,-2.452112,0.38054588
0.055584487,0.012079999,-0.00408676,0.34244543,-2.3757746,0.36869904
0.05385409,0.011703936,-0.003959535,0.33178478,-2.3018146,0.3572211
0.052177574,0.011339585,-0.003836272,0.3214561,-2.2301576,0.34610057
0.050553266,0.01098658,-0.0037168472,0.31144905,-2.1607318,0.33532628
0.048979532,0.010644564,-0.003601141,0.30175358,-2.0934677,0.3248875
0.0474548,0.0103132,-0.0034890375,0.29235998,-2.0282981,0.31477377
0.04597754,0.0099921515,-0.0033804246,0.2832589,-1.9651576,0.30497494
0.04454628,0.0096811,-0.0032751933,0.27444115,-1.903983,0.29548118
0.043159578,0.009379733,-0.0031732384,0.26589793,-1.8447131,0.28628302
0.041816052,0.009087749,-0.0030744579,0.25762075,-1.7872885,0.27737126
0.040514357,0.008804855,-0.0029787526,0.24960123,-1.7316519,0.26873693
0.039253186,0.0085307695,-0.002886027,0.2418314,-1.6777474,0.26037142
0.03803128,0.008265217,-0.0027961885,0.23430347,-1.6255211,0.25226638
0.036847416,0.008007931,-0.0027091468,0.22700992,-1.5749207,0.24441364
0.03570041,0.0077586556,-0.0026248149,0.21994342,-1.5258956,0.2368054
0.03458911,0.0075171404,-0.0025431085,0.21309692,-1.4783969,0.22943401
0.03351241,0.007283144,-0.0024639457,0.20646356,-1.4323767,0.22229211
0.032469224,0.007056433,-0.0023872473,0.20003672,-1.3877894,0.21537253
0.03145852,0.006836779,-0.0023129368,0.19380994,-1.3445901,0.20866838
0.030479275,0.006623963,-0.0022409395,0.18777701,-1.3027356,0.20217294
0.029530516,0.0064177723,-0.0021711835,0.18193188,-1.262184,0.1958797
0.028611293,0.0062180003,-0.002103599,0.17626873,-1.2228949,0.18978238
0.027720684,0.0060244477,-0.0020381187,0.17078187,-1.1848288,0.18387486
0.0268578,0.00583692,-0.0019746765,0.1654658,-1.1479477,0.17815125
0.02602178,0.00565523,-0.0019132093,0.16031523,-1.1122147,0.1726058
0.025211783,0.005479196,-0.0018536557,0.155325,-1.077594,0.16723299
0.024427,0.0053086416,-0.0017959558,0.1504901,-1.0440512,0.16202743
0.023666648,0.005143397,-0.0017400521,0.14580572,-1.0115525,0.15698391
0.022929965,0.0049832957,-0.0016858886,0.14126715,-0.98006535,0.1520974
0.022216214,0.0048281783,-0.0016334113,0.13686986,-0.94955844,0.14736299
