ax,ay,az,gx,gy,gz
-2.1663833,3.1236649,-2.7927527,33.680305,17.311975,28.242983
-1.8912792,3.903801,-2.4674435,29.236153,16.420994,27.02943
-1.5289199,4.5395327,-2.2268648,27.914354,14.467458,20.878473
-1.1007711,5.263788,-2.1316676,25.130072,12.883196,13.002896
-0.7032409,5.7584805,-2.064254,18.112408,12.087415,5.620249
-0.37784785,6.057441,-2.0180402,10.630211,12.117299,0.3771565
-0.13480504,6.3081503,-2.0311654,1.9696338,12.661476,-3.7012973
0.02350921,6.4667215,-2.099381,-7.320783,14.007924,-8.743218
0.046723988,6.461694,-2.2780943,-15.994641,15.1915455,-13.98401
-0.062351268,6.330923,-2.5285845,-23.430616,15.409799,-19.050745
-0.23954153,6.1287093,-2.810501,-30.35401,14.3538475,-23.627226
-0.45013937,5.803937,-3.1071694,-37.177685,12.10759,-27.785994
-0.7144368,5.256165,-3.4215686,-42.539803,8.044628,-31.772589
-0.97911143,4.4405594,-3.7056773,-45.58703,3.454242,-34.959167
-1.2356558,3.6093585,-3.9278238,-46.70931,-1.7304773,-36.988174
-1.4379137,2.8227394,-4.0857167,-46.85513,-7.441388,-37.48629
-1.5774171,2.0472512,-4.1730957,-46.157883,-13.433548,-36.476597
-1.667235,1.2992508,-4.170481,-44.22787,-19.920177,-33.80098
-1.6485189,0.6379116,-4.019672,-42.162415,-26.122715,-29.895067
-1.5565541,0.049203914,-3.8042436,-39.646877,-31.56379,-25.751926
-1.4060667,-0.4828898,-3.5373292,-36.280018,-35.856464,-21.898548
-1.2236024,-0.90209883,-3.2156703,-32.59821,-38.943172,-17.594759
-1.0510577,-1.1899529,-2.8555367,-28.627151,-41.101654,-12.988423
-0.85638773,-1.3217965,-2.4574518,-24.60508,-42.5819,-8.422646
-0.62627727,-1.3453082,-2.0825357,-20.645512,-43.230675,-4.101944
-0.37368459,-1.2668848,-1.7476916,-16.667482,-43.0214,-0.585996
-0.13320889,-1.0913292,-1.4509317,-12.803231,-42.128586,2.235359
0.084037445,-0.8057867,-1.1811593,-9.852325,-40.785137,4.7958107
0.28256038,-0.40366527,-0.9368079,-7.908838,-39.11813,6.952244
0.45422348,0.026381573,-0.726217,-6.840909,-37.00867,8.142561
0.59672296,0.4412604,-0.5655595,-6.405932,-34.649403,8.604107
0.70484513,0.80452204,-0.46076232,-6.343965,-32.092197,8.278834
0.7742872,1.1143411,-0.4103458,-6.676298,-29.422852,7.2000437
0.79259884,1.3687217,-0.42002565,-7.1948466,-26.919031,5.612798
0.78022605,1.5976658,-0.46130642,-7.9488764,-24.6316,3.640795
0.7463138,1.7942044,-0.5202524,-9.0005045,-22.617092,1.3361261
0.6959982,1.9547526,-0.5899873,-10.294502,-20.856722,-1.3230172
0.63153243,2.0716226,-0.66899115,-11.969512,-19.429478,-4.327798
0.5514344,2.1177914,-0.76876605,-13.836792,-18.305517,-7.2127314
0.4541171,2.118567,-0.89671814,-15.843857,-17.66739,-9.897179
0.35346115,2.0780685,-1.0297117,-17.994911,-17.48957,-12.416036
0.24859352,2.004889,-1.1494955,-20.274448,-17.63942,-14.840953
0.12660192,1.8789754,-1.2651542,-22.661499,-18.329586,-17.247614
-0.001592049,1.6154003,-1.3855973,-24.572504,-19.373007,-19.569162
-0.11910445,1.2531967,-1.5054196,-25.793179,-20.788479,-21.182875
-0.21209157,0.843975,-1.6109058,-26.489698,-22.604874,-21.528467
-0.28850675,0.4374469,-1.6903993,-26.413843,-24.658129,-21.021343
-0.34785894,0.05826895,-1.7320575,-25.292274,-26.831064,-20.166388
-0.36552462,-0.26301157,-1.7175312,-23.63504,-28.842085,-18.904474
-0.36496437,-0.5308569,-1.6799132,-21.55069,-30.835804,-17.425442
-0.33602756,-0.75197786,-1.6182625,-19.150229,-32.75601,-15.779635
-0.28138804,-0.93421906,-1.5400213,-16.52871,-34.48558,-13.984093
-0.21442713,-1.0847778,-1.4423714,-13.664289,-35.8619,-11.830664
-0.13534749,-1.1749271,-1.3187882,-10.838514,-36.977367,-9.220185
-0.04559318,-1.2056057,-1.1887028,-7.931811,-37.832977,-6.7714825
0.06171392,-1.189514,-1.0490508,-4.912553,-38.264305,-4.7815156
0.17990595,-1.116562,-0.89670074,-2.1900268,-38.22632,-2.8701234
0.29084516,-0.9581196,-0.73087984,0.050064683,-37.71764,-1.0698079
0.41202146,-0.7038815,-0.53940773,1.8150985,-36.73665,0.75177276
0.53374535,-0.41317308,-0.34180784,3.4796307,-35.14838,2.186547
0.5164081,-0.39975226,-0.33070514,3.3666043,-34.00668,2.115523
0.49967772,-0.38680127,-0.3199911,3.2575347,-32.904945,2.0469854
0.48352903,-0.37430057,-0.30964956,3.1522572,-31.841518,1.9808304
0.46793818,-0.36223167,-0.29966527,3.050616,-30.814823,1.9169607
0.4528826,-0.35057712,-0.29002374,2.9524646,-29.82338,1.8552839
0.43834096,-0.3393204,-0.28071135,2.8576636,-28.865778,1.7957125
0.424293,-0.32844585,-0.2717151,2.7660813,-27.940687,1.7381635
0.41071954,-0.31793863,-0.26302272,2.6775923,-27.046843,1.6825582
0.39760232,-0.30778456,-0.25462255,2.5920775,-26.183044,1.6288221
0.38492402,-0.29797027,-0.24650341,2.5094242,-25.348148,1.576884
0.37266815,-0.28848296,-0.2386548,2.429525,-24.541069,1.5266764
0.36081892,-0.27931046,-0.23106663,2.3522766,-23.76077,1.4781348
0.3493614,-0.2704412,-0.22372928,2.277582,-23.006266,1.4311978
0.33828127,-0.26186404,-0.21663362,2.2053475,-22.276613,1.3858068
0.32756484,-0.25356844,-0.20977089,2.1354842,-21.570911,1.3419058
0.3171991,-0.2455443,-0.2031327,2.067907,-20.888302,1.2994413
0.30717152,-0.23778194,-0.1967111,2.0025346,-20.227962,1.2583623
0.29747015,-0.2302721,-0.1904984,1.9392887,-19.589106,1.2186196
0.28808355,-0.22300594,-0.18448727,1.878095,-18.970978,1.1801664
0.27900076,-0.21597493,-0.17867069,1.8188818,-18.372854,1.1429577
0.27021125,-0.20917094,-0.17304192,1.7615805,-17.794043,1.1069504
0.2617049,-0.20258616,-0.1675945,1.7061254,-17.233881,1.0721033
0.25347203,-0.1962131,-0.16232222,1.6524531,-16.691727,1.0383763
0.24550335,-0.19004452,-0.15721911,1.6005031,-16.166971,1.0057318
0.2377899,-0.18407352,-0.15227945,1.5502169,-15.65902,0.9741327
0.23032306,-0.17829344,-0.14749773,1.5015386,-15.167313,0.94354403
0.22309458,-0.17269786,-0.14286865,1.4544141,-14.6913,0.9139317
0.21609649,-0.16728063,-0.13838711,1.4087917,-14.230459,0.88526326
0.20932113,-0.16203581,-0.1340482,1.3646213,-13.784286,0.8575072
0.20276111,-0.15695769,-0.1298472,1.3218548,-13.352294,0.8306334
0.19640934,-0.15204076,-0.12577955,1.2804458,-12.934014,0.8046127
0.19025895,-0.14727975,-0.12184088,1.2403498,-12.528997,0.7794169
0.18430336,-0.14266951,-0.11802694,1.2015237,-12.136807,0.7550192
0.17853618,-0.13820513,-0.11433367,1.1639258,-11.757025,0.7313933
0.17295127,-0.13388184,-0.11075712,1.1275163,-11.389245,0.7085141
0.16754271,-0.12969507,-0.10729351,1.0922564,-11.033079,0.6863573
0.16230479,-0.12564038,-0.10393917,1.0581089,-10.688149,0.6648996
0.15723197,-0.12171351,-0.10069057,1.025038,-10.354094,0.64411825
0.15231895,-0.11791034,-0.0975443,0.9930086,-10.03056,0.62399155
0.14756058,-0.11422687,-0.094497055,0.9619875,-9.717209,0.60449827
0.14295186,-0.11065926,-0.09154566,0.93194205,-9.413715,0.5856182
0.13848802,-0.1072038,-0.08868704,0.9028411,-9.1197605,0.5673316
0.13416442,-0.10385689,-0.085918225,0.87465435,-8.835041,0.5496195
0.12997657,-0.10061507,-0.083236344,0.8473526,-8.559261,0.5324635
0.12592015,-0.09747498,-0.08063863,0.8209076,-8.292136,0.51584584
0.12199094,-0.094433375,-0.07812239,0.7952921,-8.033389,0.49974945
0.11818493,-0.09148713,-0.07568503,0.7704796,-7.782754,0.48415768
0.11449818,-0.08863322,-0.07332406,0.74644476,-7.5399733,0.46905452
0.11092692,-0.0858687,-0.07103705,0.7231627,-7.304797,0.45442444
0.10746748,-0.08319075,-0.06882164,0.7006097,-7.0769854,0.44025248
0.10411633,-0.08059661,-0.06667557,0.6787626,-6.8563037,0.4265241
0.10087003,-0.07808365,-0.06459666,0.65759915,-6.6425276,0.4132253
0.09772528,-0.07564929,-0.062582776,0.63709766,-6.435438,0.40034246
0.094678864,-0.073291056,-0.06063187,0.61723727,-6.234825,0.3878625
0.09172769,-0.071006544,-0.058741953,0.5979977,-6.040483,0.37577268
0.088868745,-0.06879343,-0.0569111,0.57935953,-5.852215,0.3640607
0.08609913,-0.066649474,-0.055137455,0.5613037,-5.6698294,0.3527147
0.083416045,-0.06457248,-0.053419214,0.54381186,-5.4931417,0.34172308
0.080816746,-0.062560365,-0.05175464,0.5268663,-5.321972,0.33107477
0.07829861,-0.060611077,-0.05014204,0.51044995,-5.156147,0.32075897
0.0758591,-0.05872264,-0.048579786,0.49454606,-4.995499,0.3107652
0.07349572,-0.05689315,-0.047066294,0.47913858,-4.8398657,0.30108342
0.07120611,-0.05512076,-0.045600034,0.46421197,-4.689089,0.29170373
0.068987936,-0.053403668,-0.04417953,0.4497511,-4.543017,0.28261673
0.06683897,-0.051740147,-0.04280334,0.4357414,-4.4015026,0.27381325
0.064757034,-0.05012852,-0.04147008,0.4221687,-4.2644024,0.2652844
0.062740035,-0.04856716,-0.040178407,0.40901935,-4.1315784,0.25702155
0.06078594,-0.047054492,-0.03892701,0.39628008,-4.0028963,0.24901636
0.05889278,-0.045588993,-0.03771464,0.38393804,-3.8782275,0.24126081
0.057058647,-0.044169184,-0.03654007,0.37198082,-3.7574453,0.23374708
0.05528169,-0.042793643,-0.03540212,0.36039636,-3.6404288,0.2264676
0.05356013,-0.04146098,-0.034299638,0.34917304,-3.5270598,0.21941502
0.05189223,-0.040169854,-0.033231523,0.33829954,-3.4172246,0.21258229
0.050276313,-0.038918972,-0.0321967,0.32776493,-3.310813,0.20596251
0.048710756,-0.03770707,-0.031194124,0.31755865,-3.2077174,0.19954903
0.047193985,-0.03653294,-0.030222792,0.3076704,-3.1078346,0.19333541
0.04572448,-0.03539539,-0.029281728,0.2980903,-3.011064,0.18731542
0.04430076,-0.034293287,-0.028369986,0.2888087,-2.9173088,0.18148299
0.042921398,-0.03322552,-0.027486648,0.27981627,-2.8264747,0.17583229
0.041585013,-0.03219102,-0.026630834,0.27110398,-2.7384703,0.17035761
0.040290255,-0.031188749,-0.025801677,0.26266313,-2.6532075,0.1650535
0.039035834,-0.030217698,-0.024998352,0.2544852,-2.570601,0.15991463
0.037820484,-0.029276896,-0.02422005,0.24656202,-2.4905674,0.15493582
0.036642995,-0.028365398,-0.02346599,0.23888563,-2.4130268,0.15011209
0.035502177,-0.02748229,-0.022735417,0.23144834,-2.3379014,0.14543861
0.034396894,-0.026626687,-0.022027597,0.22424269,-2.265116,0.1409107
0.03332603,-0.025797732,-0.021341823,0.21726145,-2.1945972,0.1365238
0.03228852,-0.024994593,-0.020677406,0.21049763,-2.1262746,0.13227351
0.03128332,-0.024216466,-0.020033682,0.20394446,-2.0600798,0.1281556
0.030309424,-0.023462571,-0.019410003,0.19759537,-1.9959465,0.12416592
0.029365854,-0.022732154,-0.018805746,0.19144398,-1.9338102,0.12030049
0.028451668,-0.02202448,-0.018220305,0.18548416,-1.873609,0.11655542
0.027565949,-0.021338843,-0.017653096,0.17970991,-1.8152822,0.112926975
0.02670781,-0.020674556,-0.017103547,0.17411546,-1.7587718,0.10941151
0.02587639,-0.020030953,-0.01657111,0.16869521,-1.7040209,0.106005505
0.025070857,-0.01940739,-0.016055252,0.16344373,-1.6509746,0.10270555
0.024290407,-0.01880324,-0.015555455,0.15835576,-1.5995802,0.09950835
0.023534257,-0.018217904,-0.01507122,0.15342622,-1.5497859,0.0964107
0.022801649,-0.01765079,-0.014602061,0.14865014,-1.5015419,0.093409486
0.02209185,-0.017101334,-0.01414751,0.14402276,-1.4548,0.09050172
0.02140415,-0.016568985,-0.013707111,0.13953947,-1.4095134,0.08768448
0.020737862,-0.016053211,-0.013280422,0.13519575,-1.3656367,0.084954955
0.020092316,-0.015553493,-0.012867019,0.13098727,-1.3231261,0.08231041
0.019466868,-0.015069333,-0.012466485,0.1269098,-1.2819388,0.07974819
0.018860893,-0.014600246,-0.012078421,0.12295928,-1.242034,0.07726574
0.018273782,-0.014145763,-0.011702439,0.11913175,-1.2033713,0.07486058
0.017704949,-0.013705429,-0.01133816,0.115423374,-1.1659124,0.07253029
0.017153826,-0.013278802,-0.010985224,0.11183044,-1.1296195,0.07027255
0.016619857,-0.012865458,-0.010643274,0.10834937,-1.0944566,0.0680851
0.016102513,-0.012464981,-0.010311969,0.10497666,-1.0603882,0.065965734
0.015601275,-0.012076971,-0.009990978,0.10170895,-1.0273805,0.063912354
0.015115639,-0.01170104,-0.00967998,0.09854296,-0.99540025,0.061922897
0.014645122,-0.011336812,-0.009378663,0.09547553,-0.96441555,0.05999537
0.014189253,-0.010983922,-0.009086726,0.09250359,-0.9343955,0.05812785
0.013747574,-0.010642017,-0.008803877,0.08962417,-0.90530986,0.056318462
0.013319644,-0.010310757,-0.008529833,0.08683438,-0.87712973,0.0545654
0.012905035,-0.009989807,-0.00826432,0.08413143,-0.84982675,0.05286691
0.012503333,-0.009678849,-0.008007072,0.08151262,-0.82337373,0.051221292
0.012114136,-0.009377571,-0.007757832,0.07897534,-0.7977442,0.0496269
0.011737054,-0.009085671,-0.0075163506,0.07651704,-0.77291244,0.048082143
