ax,ay,az,gx,gy,gz
-3.3627577,-1.5272865,-7.103701,-46.497696,99.87636,18.1438
-4.202408,-2.0079052,-8.497986,-38.30213,91.92634,32.996326
-5.225743,-2.2034512,-9.195705,-32.019096,69.95095,36.51485
-6.208463,-2.24863,-9.70204,-27.363077,44.563675,30.63877
-7.0398273,-2.4083252,-10.100988,-23.108118,22.511824,23.449509
-7.553702,-2.592627,-10.399534,-19.253674,2.5848827,17.760874
-7.791671,-2.9300876,-10.633531,-15.32087,-17.00142,15.966383
-7.8083,-3.2979,-10.731986,-11.15595,-36.018856,18.976152
-7.742273,-3.5340042,-10.711076,-6.4638867,-53.803986,24.562435
-7.6867256,-3.560592,-10.590454,-1.2478203,-69.81753,27.805338
-7.484344,-3.4685674,-10.391735,3.639321,-85.40005,28.878159
-6.989192,-3.2979352,-9.983306,7.490426,-99.402084,29.098267
-6.2781005,-3.106423,-9.396303,10.275854,-111.01996,29.994905
-5.4346476,-2.9163063,-8.674003,12.152841,-118.37441,33.012474
-4.5014277,-2.6214864,-7.8429117,13.520164,-122.22571,36.421776
-3.5911083,-2.2088895,-7.0099616,14.751156,-122.96255,37.517124
-2.73879,-1.7693568,-6.2088995,15.264631,-121.823135,36.65298
-1.9644895,-1.3958279,-5.478695,14.579273,-118.55389,35.892014
-1.2934366,-1.0888151,-4.8553157,12.502352,-113.85533,36.859604
-0.7197062,-0.8196008,-4.3386054,9.969635,-108.58652,38.191246
-0.23954709,-0.5942582,-3.9108434,7.6038156,-103.06975,38.848087
0.15155783,-0.4072172,-3.5695937,5.5399833,-97.48343,38.643826
0.47279653,-0.23604822,-3.3035078,3.458708,-92.12621,37.748055
0.74150944,-0.07807992,-3.0919032,1.4040927,-86.73163,36.232487
0.9550881,0.08023066,-2.9435987,-0.7562473,-81.40157,34.674747
1.1042414,0.22933121,-2.8461943,-3.0959108,-76.33508,33.218166
1.1911329,0.38749662,-2.7912974,-5.7404933,-71.642,31.928581
1.2298926,0.57025844,-2.760703,-8.597908,-67.27569,30.131563
1.2475965,0.7676522,-2.742586,-11.699761,-63.22994,27.409384
1.2422115,0.974552,-2.7304487,-15.209009,-59.371292,24.524118
1.2155315,1.1563406,-2.7150652,-19.144255,-55.55755,21.468563
1.1720946,1.299715,-2.6974847,-23.493664,-51.831707,18.563543
1.1131403,1.3918941,-2.6816573,-28.269264,-48.259995,16.059467
1.0389366,1.4228306,-2.6713862,-33.223278,-44.828747,13.860967
0.92666656,1.3476912,-2.6685362,-37.87541,-41.87185,11.720335
0.79750097,1.1987188,-2.6491697,-42.13667,-39.362873,9.749165
0.6623806,0.9839741,-2.6074452,-45.804012,-37.303867,7.9237757
0.5394515,0.71848786,-2.5432615,-48.699818,-35.56079,6.407323
0.43677783,0.42723897,-2.4570763,-50.605927,-34.082027,5.6608124
0.34800434,0.1566803,-2.354982,-51.82419,-32.64386,5.4047127
0.26176232,-0.08425674,-2.2556705,-52.407383,-31.497341,5.3614936
0.18748191,-0.29990426,-2.161198,-52.48697,-30.702463,5.3881283
0.13810761,-0.49683848,-2.0596673,-52.029137,-30.105537,5.4917097
0.11669467,-0.6649783,-1.9476955,-51.03147,-29.405365,5.6424656
0.113625266,-0.78944236,-1.8385032,-49.691795,-28.515,5.763273
0.10203182,-0.87390405,-1.747997,-48.117733,-27.625923,5.8768954
0.07918116,-0.9246803,-1.6744436,-46.38318,-26.986275,6.1312127
0.06891989,-0.94695055,-1.5971553,-44.654182,-26.546362,6.5677824
0.06984317,-0.9368603,-1.5123574,-43.03183,-26.06371,7.059704
0.07540883,-0.8997396,-1.4257191,-41.537663,-25.413872,7.3169813
0.080926314,-0.8681122,-1.3456938,-40.149055,-24.593796,7.313103
0.08237194,-0.85263646,-1.2786812,-38.838467,-23.702839,7.1475396
0.07915243,-0.8567577,-1.2292492,-37.600113,-22.82741,6.9801183
0.07365902,-0.8710687,-1.1936166,-36.465153,-22.173683,7.0788713
0.07913637,-0.8859739,-1.1581827,-35.247044,-21.610989,7.3801713
0.09358648,-0.8857767,-1.1207532,-33.896526,-21.042837,7.948351
0.10780568,-0.860431,-1.0842279,-32.48687,-20.563633,8.632312
0.10899186,-0.8098156,-1.0585593,-30.966114,-19.987728,8.705451
0.105431154,-0.7833593,-1.0239767,-29.954466,-19.334738,8.421048
0.101996966,-0.75784314,-0.9906228,-28.978765,-18.704952,8.14675
0.09868387,-0.73322666,-0.95844513,-28.037468,-18.097372,7.882126
0.09548675,-0.7094719,-0.9273939,-27.129124,-17.511063,7.6267643
0.0924008,-0.68654305,-0.8974222,-26.25236,-16.945137,7.380281
0.089421436,-0.66440624,-0.8684858,-25.40588,-16.39876,7.142312
0.086544365,-0.64302945,-0.8405429,-24.588465,-15.8711405,6.9125133
0.08376551,-0.62238234,-0.8135538,-23.798952,-15.361533,6.690559
0.08108099,-0.60243624,-0.78748107,-23.036243,-14.869226,6.4761395
0.07848714,-0.5831638,-0.7622889,-22.299295,-14.393548,6.268963
0.075980484,-0.56453925,-0.7379436,-21.58712,-13.93386,6.0687504
0.073557705,-0.5465378,-0.71441287,-20.898773,-13.4895525,5.8752365
0.071215644,-0.5291362,-0.6916661,-20.23336,-13.060048,5.6881704
0.0689513,-0.512312,-0.66967416,-19.590029,-12.644795,5.5073113
0.06676181,-0.49604392,-0.6484092,-18.967962,-12.24327,5.3324313
0.064644426,-0.4803117,-0.62784463,-18.366386,-11.85497,5.163311
0.06259656,-0.4650959,-0.60795516,-17.784557,-11.479416,4.9997425
0.060615696,-0.450378,-0.58871645,-17.221767,-11.116151,4.841526
0.05869946,-0.43614024,-0.57010543,-16.677338,-10.764738,4.688472
0.05684556,-0.42236567,-0.5520999,-16.15062,-10.424756,4.540396
0.055051815,-0.40903804,-0.5346785,-15.640991,-10.095806,4.3971252
0.053316124,-0.39614174,-0.517821,-15.147857,-9.777502,4.258491
0.051636472,-0.38366187,-0.50150776,-14.670645,-9.469476,4.1243334
0.05001094,-0.37158406,-0.48572013,-14.208808,-9.171373,3.994498
0.048437666,-0.35989454,-0.47044006,-13.761819,-8.882854,3.8688366
0.046914876,-0.34858015,-0.45565033,-13.329173,-8.603595,3.7472076
0.04544086,-0.33762813,-0.44133425,-12.910384,-8.333279,3.6294744
0.044013973,-0.32702628,-0.42747593,-12.504986,-8.071606,3.5155053
0.042632636,-0.31676283,-0.41406,-12.112528,-7.8182855,3.4051745
0.041295324,-0.30682653,-0.40107164,-11.732579,-7.5730395,3.2983599
0.040000573,-0.2972065,-0.38849667,-11.364722,-7.335599,3.194945
0.038746975,-0.2878922,-0.3763214,-11.008558,-7.1057053,3.0948172
0.037533175,-0.27887356,-0.36453262,-10.6637,-6.883109,2.9978678
0.036357857,-0.2701409,-0.3531176,-10.329776,-6.6675706,2.9039922
0.03521976,-0.26168478,-0.34206408,-10.006427,-6.458858,2.8130896
0.03411767,-0.2534962,-0.33136028,-9.693308,-6.2567487,2.725063
0.033050414,-0.24556641,-0.3209948,-9.390085,-6.0610275,2.6398187
0.032016855,-0.23788702,-0.3109566,-9.0964365,-5.871486,2.5572658
0.031015906,-0.23044991,-0.3012351,-8.812053,-5.6879244,2.4773176
0.03004651,-0.22324723,-0.29182005,-8.5366335,-5.5101495,2.3998892
0.029107647,-0.21627145,-0.28270155,-8.26989,-5.337974,2.3249002
0.028198337,-0.20951521,-0.27387008,-8.011542,-5.171218,2.2522712
0.027317628,-0.20297149,-0.2653164,-7.76132,-5.009707,2.1819267
0.026464604,-0.19663347,-0.2570316,-7.5189643,-4.8532734,2.1137936
0.025638377,-0.19049457,-0.24900705,-7.2842216,-4.701754,2.0478008
0.024838094,-0.18454841,-0.24123445,-7.0568495,-4.5549917,1.9838802
0.024062922,-0.17878884,-0.23370579,-6.8366127,-4.412835,1.9219654
0.023312066,-0.17320994,-0.22641325,-6.623284,-4.2751374,1.8619925
0.022584748,-0.16780593,-0.21934934,-6.416643,-4.141757,1.8038999
0.021880222,-0.16257127,-0.2125068,-6.2164774,-4.012556,1.7476277
0.021197766,-0.15750058,-0.2058786,-6.022582,-3.887402,1.6931183
0.02053668,-0.15258867,-0.19945794,-5.8347583,-3.7661672,1.6403157
0.019896286,-0.1478305,-0.19323824,-5.652813,-3.648727,1.5891657
0.01927593,-0.14322121,-0.18721317,-5.476561,-3.5349612,1.5396163
0.018674977,-0.13875611,-0.18137656,-5.3058224,-3.4247544,1.4916168
0.018092819,-0.13443065,-0.17572246,-5.140423,-3.3179936,1.4451183
0.017528858,-0.13024038,-0.17024513,-4.9801936,-3.2145705,1.4000734
0.016982524,-0.1261811,-0.16493899,-4.8249726,-3.11438,1.3564363
0.01645326,-0.122248635,-0.15979862,-4.674601,-3.0173194,1.3141627
0.01594053,-0.11843902,-0.15481885,-4.5289273,-2.9232912,1.2732097
0.015443813,-0.11474839,-0.1499946,-4.387803,-2.8321998,1.2335356
0.014962606,-0.11117299,-0.14532098,-4.2510858,-2.7439525,1.1951004
0.014496422,-0.10770922,-0.14079328,-4.118636,-2.6584604,1.1578652
0.01404479,-0.10435356,-0.1364069,-3.9903212,-2.5756366,1.1217922
0.013607251,-0.101102635,-0.1321574,-3.8660104,-2.4953976,1.0868449
0.0131833665,-0.09795314,-0.1280405,-3.7455788,-2.4176624,1.0529882
0.012772705,-0.09490191,-0.12405206,-3.6289043,-2.3423524,1.0201877
0.012374855,-0.09194586,-0.12018803,-3.5158694,-2.2693918,0.9884104
0.011989414,-0.08908201,-0.11644451,-3.4063601,-2.1987066,0.9576242
0.0116159925,-0.086307466,-0.11281774,-3.3002658,-2.130226,0.92779815
0.011254216,-0.083619446,-0.10930406,-3.19748,-2.0638807,0.8989021
0.010903718,-0.08101523,-0.10589994,-3.097899,-1.9996039,0.870907
0.010564148,-0.07849221,-0.10260194,-3.0014222,-1.937331,0.84378475
0.010235163,-0.07604783,-0.09940675,-2.907953,-1.8769994,0.8175079
0.009916433,-0.07367965,-0.09631115,-2.8173974,-1.8185483,0.7920501
0.009607637,-0.07138527,-0.09331204,-2.729664,-1.761919,0.76738584
0.009308464,-0.069162406,-0.09040639,-2.644665,-1.7070545,0.74349016
0.009018615,-0.06700881,-0.08759129,-2.5623145,-1.6538998,0.7203391
0.008737797,-0.06492232,-0.08486391,-2.4825304,-1.6024013,0.69790953
0.008465729,-0.062900834,-0.08222151,-2.405232,-1.5525074,0.67617875
0.008202137,-0.060942333,-0.07966144,-2.330342,-1.5041682,0.6551251
0.007946758,-0.059044853,-0.07718112,-2.257785,-1.4573348,0.6347273
0.0076993345,-0.05720648,-0.07477807,-2.1874886,-1.4119605,0.61496496
0.007459618,-0.05542538,-0.072449885,-2.119382,-1.3679996,0.5958182
0.0072273696,-0.053699758,-0.07019422,-2.0533967,-1.3254081,0.57726794
0.0070023546,-0.052027885,-0.06800881,-1.9894669,-1.2841432,0.5592955
0.0067843483,-0.050408084,-0.065891474,-1.9275283,-1.2441636,0.54188275
0.0065731322,-0.04883874,-0.063840084,-1.8675188,-1.2054292,0.5250124
0.006368494,-0.047318265,-0.061852586,-1.8093783,-1.1679012,0.50866747
0.0061702295,-0.045845147,-0.05992698,-1.7530485,-1.131542,0.49283153
0.005978139,-0.044417903,-0.058061346,-1.6984729,-1.096315,0.47748882
0.0057920306,-0.04303511,-0.05625381,-1.6455969,-1.062185,0.46262386
0.0056117177,-0.041695375,-0.05450256,-1.5943675,-1.029118,0.44822183
0.0054370197,-0.040397357,-0.052805845,-1.5447333,-0.99708056,0.43426827
0.0052677616,-0.03913976,-0.051161963,-1.4966447,-0.9660408,0.4207492
0.005103774,-0.037921324,-0.049569268,-1.4500536,-0.9359675,0.4076511
0.004944892,-0.036740825,-0.048026167,-1.4049131,-0.90683067,0.39496082
0.004790958,-0.035597082,-0.046531115,-1.3611782,-0.878601,0.3826657
0.0046418165,-0.034488954,-0.04508261,-1.318805,-0.85125035,0.3707534
0.0044973185,-0.033415325,-0.043679204,-1.2777511,-0.82475126,0.35921198
0.0043573193,-0.032375127,-0.042319495,-1.2379755,-0.7990772,0.3480299
0.004221679,-0.031367313,-0.04100212,-1.1994382,-0.7742025,0.33719602
0.004090262,-0.030390875,-0.03972576,-1.1621007,-0.7501023,0.3266994
0.003962937,-0.02944484,-0.03848914,-1.1259258,-0.7267524,0.31652957
0.003839575,-0.028528256,-0.03729102,-1.0908769,-0.70412946,0.3066764
0.0037200542,-0.027640209,-0.036130197,-1.0569195,-0.6822108,0.29712996
0.003604254,-0.026779808,-0.035005517,-1.024019,-0.66097456,0.28788072
0.0034920592,-0.025946194,-0.033915848,-0.99214286,-0.64039946,0.27891943
0.003383357,-0.02513853,-0.032860104,-0.96125907,-0.62046486,0.27023715
0.0032780392,-0.024356013,-0.031837225,-0.93133676,-0.6011509,0.2618251
0.0031759997,-0.023597855,-0.030846192,-0.90234596,-0.5824382,0.25367498
0.003077137,-0.022863299,-0.02988601,-0.8742577,-0.564308,0.24577858
0.002981352,-0.02215161,-0.028955719,-0.8470438,-0.5467422,0.23812798
0.0028885487,-0.021462077,-0.028054386,-0.8206771,-0.5297232,0.23071556
0.0027986343,-0.020794008,-0.027181115,-0.79513115,-0.51323414,0.22353387
0.0027115191,-0.020146737,-0.026335027,-0.7703805,-0.49725828,0.21657576
0.0026271157,-0.019519616,-0.025515277,-0.74640036,-0.48177975,0.20983426
0.0025453398,-0.018912015,-0.024721047,-0.72316664,-0.4667831,0.2033026
0.0024661096,-0.01832333,-0.02395154,-0.7006562,-0.45225325,0.19697429
0.0023893456,-0.01775297,-0.023205988,-0.6788465,-0.43817574,0.19084296
0.0023149713,-0.017200364,-0.022483643,-0.65771574,-0.4245364,0.1849025
0.002242912,-0.016664961,-0.021783786,-0.6372427,-0.41132167,0.17914696
