ax,ay,az,gx,gy,gz
5.563687,-0.687279,4.9464087,37.121246,216.62106,-24.636587
5.938339,-0.8134098,4.5960107,36.999153,231.68167,-27.438887
6.0325937,-0.8614291,4.0446863,34.29291,238.9821,-27.802485
6.006009,-0.8625481,3.4621208,30.215908,242.59079,-26.98789
5.957667,-0.8792111,2.8735278,26.698717,245.02817,-25.829716
5.8736534,-0.8715637,2.2515292,24.219725,246.32574,-24.746962
5.7743645,-0.8373714,1.6071829,22.70557,246.01393,-24.272543
5.6428723,-0.8042746,0.91989434,22.099539,244.63564,-24.65852
5.4926867,-0.76770556,0.2763841,21.378494,242.11656,-25.454432
5.3290124,-0.74063796,-0.31919035,20.008999,238.6419,-26.274853
5.152908,-0.72285616,-0.88302165,18.154034,234.23596,-26.835732
4.982332,-0.715804,-1.4306954,16.248236,228.9633,-27.089819
4.80618,-0.72519916,-1.9965345,15.327346,222.06744,-27.315662
4.6242647,-0.72788686,-2.5266597,14.456173,214.09302,-27.349846
4.4428425,-0.7288846,-3.003663,13.326313,205.21428,-27.081923
4.2663074,-0.72815645,-3.4228063,11.875392,195.6056,-26.60949
4.10975,-0.7320885,-3.7817366,9.983306,185.06245,-25.682121
3.985283,-0.7373003,-4.0774283,7.7225885,174.58748,-24.361097
3.8724709,-0.73257816,-4.318619,5.221474,164.39745,-22.864603
3.7546797,-0.7210539,-4.516012,2.808914,154.53853,-21.500538
3.6275065,-0.714979,-4.674744,0.72620845,144.99799,-20.397709
3.49188,-0.71985817,-4.7917275,-0.68294406,135.56981,-19.456358
3.3522768,-0.7228795,-4.850318,-2.046836,126.4472,-18.390007
3.2198858,-0.71747524,-4.868385,-3.791488,117.77042,-17.13968
3.0972638,-0.70205325,-4.8537726,-6.0122137,109.65088,-15.717352
2.9867682,-0.6811448,-4.8139553,-8.413489,102.139854,-14.239931
2.8522825,-0.6504748,-4.597197,-8.034655,97.54079,-13.598747
2.7267768,-0.6218527,-4.394912,-7.6811147,93.24882,-13.000378
2.6093512,-0.5950733,-4.20565,-7.3503356,89.233154,-12.440531
2.4992256,-0.5699587,-4.0281534,-7.0401206,85.46714,-11.915487
2.3957205,-0.5463539,-3.861328,-6.7485547,81.92753,-11.4220085
2.2982407,-0.52412325,-3.704214,-6.4739623,78.59397,-10.957257
2.2062635,-0.5031475,-3.5559688,-6.21487,75.448586,-10.518741
2.1193273,-0.4833213,-3.4158485,-5.9699774,72.47559,-10.104258
2.037023,-0.46455145,-3.2831933,-5.7381325,69.66099,-9.711857
1.9589864,-0.4467549,-3.1574173,-5.5183096,66.99234,-9.339805
1.884893,-0.42985758,-3.0379963,-5.309594,64.45853,-8.98655
1.8144516,-0.41379315,-2.9244618,-5.1111665,62.049618,-8.65071
1.7474012,-0.39850202,-2.8163924,-4.922291,59.756664,-8.331036
1.6835061,-0.3839305,-2.713409,-4.7423034,57.571617,-8.026405
1.6225537,-0.37003005,-2.6151683,-4.5706053,55.487198,-7.7358036
1.5643511,-0.3567567,-2.5213594,-4.406653,53.496815,-7.4583125
1.5087229,-0.34407043,-2.4317002,-4.249953,51.594475,-7.193095
1.4555095,-0.33193493,-2.345933,-4.100055,49.774715,-6.939392
1.4045653,-0.3203169,-2.2638233,-3.9565494,48.032555,-6.6965065
1.3557569,-0.30918592,-2.1851556,-3.8190596,46.363426,-6.463804
1.3089616,-0.29851407,-2.1097329,-3.687241,44.76315,-6.2406993
1.264067,-0.2882757,-2.0373735,-3.5607767,43.227867,-6.0266566
1.2209694,-0.2784471,-1.9679105,-3.4393742,41.75404,-5.821182
1.179573,-0.2690065,-1.9011894,-3.322764,40.33839,-5.6238174
1.1397892,-0.25993362,-1.8370675,-3.210696,38.977886,-5.434141
1.1015359,-0.2512098,-1.7754122,-3.1029394,37.66972,-5.251762
1.0647367,-0.24281758,-1.7161008,-2.999279,36.41128,-5.0763154
1.0293207,-0.23474081,-1.6590186,-2.899515,35.20014,-4.9074636
0.99522173,-0.2269644,-1.6040592,-2.8034608,34.034046,-4.7448907
0.962378,-0.21947426,-1.551123,-2.7109427,32.910873,-4.5883026
0.93073183,-0.21225722,-1.500117,-2.6217978,31.828655,-4.437424
0.9002291,-0.20530094,-1.4509538,-2.5358741,30.78554,-4.291997
0.8708191,-0.19859387,-1.4035519,-2.4530284,29.77979,-4.1517797
0.842454,-0.19212511,-1.3578342,-2.3731263,28.80978,-4.0165443
0.8150892,-0.18588445,-1.3137287,-2.2960417,27.873972,-3.886078
0.78868234,-0.17986225,-1.2711672,-2.2216556,26.970924,-3.7601786
0.76319355,-0.17404942,-1.2300854,-2.1498559,26.099272,-3.6386564
0.73858523,-0.16843739,-1.1904225,-2.0805361,25.25773,-3.5213318
0.71482176,-0.16301803,-1.1521215,-2.0135963,24.445082,-3.4080355
0.6918695,-0.15778367,-1.115128,-1.9489416,23.660172,-3.2986066
0.66969645,-0.15272702,-1.0793904,-1.8864819,22.90191,-3.1928928
0.64827234,-0.14784117,-1.0448599,-1.8261318,22.16926,-3.0907497
0.62756836,-0.14311954,-1.01149,-1.7678103,21.461237,-2.99204
0.6075572,-0.13855591,-0.9792367,-1.7114404,20.776905,-2.8966331
0.58821267,-0.13414432,-0.94805807,-1.6569486,20.115374,-2.804405
0.5695101,-0.12987912,-0.917914,-1.6042649,19.475794,-2.7152374
0.55142576,-0.12575491,-0.88876635,-1.5533227,18.857355,-2.629017
0.5339371,-0.121766545,-0.8605788,-1.5040585,18.259285,-2.5456367
0.5170225,-0.117909096,-0.8333165,-1.4564114,17.68085,-2.4649935
0.5006614,-0.114177875,-0.8069463,-1.4103234,17.121342,-2.386989
0.48483402,-0.11056839,-0.7814364,-1.365739,16.580086,-2.3115294
0.46952155,-0.10707632,-0.75675637,-1.322605,16.05644,-2.2385247
0.45470592,-0.10369755,-0.73287714,-1.2808706,15.549783,-2.1678886
0.4403698,-0.10042814,-0.70977074,-1.2404869,15.059524,-2.0995388
0.42649657,-0.0972643,-0.6874104,-1.2014071,14.585095,-2.0333958
0.41307032,-0.094202384,-0.6657705,-1.1635864,14.125951,-1.9693837
0.4000757,-0.09123891,-0.6448263,-1.1269816,13.681569,-1.9074297
0.38749808,-0.08837053,-0.62455416,-1.0915514,13.251446,-1.8474637
0.3753233,-0.08559402,-0.6049313,-1.057256,12.835099,-1.7894183
0.3635378,-0.08290628,-0.5859359,-1.0240571,12.432065,-1.7332288
0.35212848,-0.08030435,-0.56754684,-0.991918,12.041896,-1.678833
0.3410828,-0.077785335,-0.54974383,-0.9608033,11.664163,-1.6261709
0.3303887,-0.0753465,-0.53250754,-0.9306788,11.298451,-1.575185
0.3200345,-0.07298518,-0.515819,-0.90151185,10.944364,-1.5258194
0.31000897,-0.07069882,-0.49966025,-0.87327075,10.601516,-1.478021
0.3003013,-0.06848495,-0.48401386,-0.84592503,10.269539,-1.4317381
0.2909011,-0.06634119,-0.46886295,-0.8194454,9.948075,-1.3869209
0.28179827,-0.06426526,-0.4541914,-0.79380345,9.636783,-1.3435217
0.27298316,-0.06225493,-0.43998352,-0.768972,9.335328,-1.3014941
0.2644464,-0.060308088,-0.4262243,-0.74492455,9.043392,-1.2607937
0.25617895,-0.058422662,-0.41289917,-0.7216358,8.760667,-1.2213771
0.24817213,-0.056596674,-0.39999408,-0.69908124,8.486854,-1.1832032
0.24041751,-0.0548282,-0.38749546,-0.67723703,8.221665,-1.1462318
0.23290697,-0.05311539,-0.37539026,-0.6560805,7.964824,-1.1104239
0.22563265,-0.051456455,-0.36366585,-0.6355893,7.7160616,-1.0757425
0.21858703,-0.049849667,-0.35230994,-0.6157423,7.4751186,-1.0421512
0.21176273,-0.04829336,-0.34131083,-0.5965188,7.241745,-1.0096152
0.20515269,-0.046785913,-0.33065704,-0.57789886,7.015699,-0.9781007
0.1987501,-0.045325775,-0.3203376,-0.55986327,6.7967463,-0.9475752
0.19254832,-0.043911435,-0.3103418,-0.5423933,6.584661,-0.9180072
0.18654096,-0.042541433,-0.3006594,-0.52547115,6.3792253,-0.8893661
0.18072188,-0.041214366,-0.29128042,-0.5090792,6.1802273,-0.8616226
0.17508505,-0.03992887,-0.2821952,-0.49320075,5.9874625,-0.8347481
0.16962475,-0.03868362,-0.2733945,-0.47781947,5.8007336,-0.8087151
0.16433534,-0.037477348,-0.26486924,-0.46291965,5.6198497,-0.783497
0.15921144,-0.036308825,-0.25661075,-0.44848603,5.4446254,-0.7590679
0.15424782,-0.03517685,-0.24861057,-0.4345039,5.2748823,-0.735403
0.14943942,-0.034080274,-0.24086058,-0.42095903,5.110447,-0.7124781
0.14478134,-0.033017978,-0.23335287,-0.40783757,4.9511523,-0.6902699
0.14026883,-0.031988885,-0.22607979,-0.3951262,4.7968364,-0.66875577
0.13589732,-0.030991944,-0.21903397,-0.38281202,4.647342,-0.6479139
0.13166238,-0.030026147,-0.21220826,-0.3708825,4.5025177,-0.62772304
0.1275597,-0.029090514,-0.2055957,-0.3593256,4.3622165,-0.6081628
0.12358513,-0.028184095,-0.19918965,-0.3481295,4.226296,-0.5892133
0.11973464,-0.027305976,-0.19298357,-0.337283,4.0946193,-0.57085544
0.11600433,-0.026455265,-0.18697122,-0.326775,3.9670522,-0.5530706
0.11239044,-0.025631102,-0.18114649,-0.316595,3.8434665,-0.53584075
0.10888932,-0.024832657,-0.17550352,-0.3067326,3.723737,-0.5191485
0.10549743,-0.024059122,-0.1700366,-0.29717788,3.607743,-0.50297713
0.10221134,-0.023309717,-0.16474022,-0.28792125,3.495367,-0.48731014
0.099027745,-0.022583684,-0.15960903,-0.2789533,3.3864963,-0.4721318
0.095943436,-0.021880295,-0.15463786,-0.27026507,3.2810209,-0.45742682
0.092955306,-0.021198839,-0.1498217,-0.26184773,3.1788344,-0.44318038
0.09006034,-0.02053863,-0.14515571,-0.25369284,3.079834,-0.42937815
0.08725563,-0.019899005,-0.14063519,-0.2457922,2.9839199,-0.4160062
0.08453835,-0.019279318,-0.13625558,-0.23813783,2.8909957,-0.40305108
0.08190576,-0.018678946,-0.13201249,-0.23072204,2.8009682,-0.3904998
0.07935523,-0.018097285,-0.12790164,-0.2235374,2.7137465,-0.37833968
0.07688418,-0.017533753,-0.1239189,-0.21657665,2.629243,-0.36655855
0.074490145,-0.016987782,-0.12006028,-0.20983283,2.5473728,-0.35514456
0.0721707,-0.016458824,-0.11632189,-0.20329913,2.4680538,-0.3440862
0.06992353,-0.015946347,-0.112699986,-0.19696903,2.3912063,-0.3333724
0.06774636,-0.015449837,-0.109190926,-0.19083615,2.316753,-0.32299244
0.06563704,-0.014968796,-0.10579119,-0.18489432,2.2446191,-0.31293583
0.06359342,-0.0145027395,-0.10249736,-0.17913762,2.1747327,-0.30319253
0.06161346,-0.014051202,-0.099306144,-0.17356023,2.107023,-0.29375273
0.059695173,-0.01361373,-0.09621433,-0.16815658,2.0414226,-0.284607
0.057836644,-0.013189884,-0.093218826,-0.16292123,1.9778657,-0.27574614
0.056036,-0.01277924,-0.090316616,-0.15784897,1.9162883,-0.26716125
0.05429144,-0.012381385,-0.087504804,-0.15293469,1.8566287,-0.25884375
0.05260121,-0.011995922,-0.08478056,-0.14817344,1.7988272,-0.2507853
0.05096362,-0.011622463,-0.08214116,-0.14356048,1.7428259,-0.24297781
0.04937703,-0.011260635,-0.07958396,-0.1390912,1.6885685,-0.23541348
0.04783985,-0.010910074,-0.07710639,-0.13476107,1.6360009,-0.22808471
0.04635054,-0.01057043,-0.07470597,-0.13056579,1.5850701,-0.22098416
0.044907603,-0.010241363,-0.072380304,-0.12650116,1.5357255,-0.21410471
0.0435096,-0.009922543,-0.07012706,-0.122563094,1.4879173,-0.20743948
0.042155128,-0.00961365,-0.067943975,-0.11874765,1.4415978,-0.20098181
0.040842827,-0.009314375,-0.06582887,-0.115051016,1.3967205,-0.1947252
0.039571393,-0.009024418,-0.063779615,-0.11146948,1.3532406,-0.18866341
0.038339544,-0.00874349,-0.061794166,-0.10799945,1.3111145,-0.18279035
0.037146047,-0.008471308,-0.059870537,-0.104637474,1.2703,-0.17710017
0.035989713,-0.0082076015,-0.0580068,-0.10138017,1.2307564,-0.17158714
0.03486938,-0.007952105,-0.056201093,-0.09822428,1.1924438,-0.16624576
0.033783928,-0.007704563,-0.054451603,-0.095166646,1.1553241,-0.16107067
0.032732267,-0.0074647283,-0.05275658,-0.092204206,1.1193601,-0.15605672
0.03171335,-0.00723236,-0.051114332,-0.089333996,1.0845157,-0.15119885
0.030726155,-0.007007226,-0.04952321,-0.08655315,1.0507561,-0.14649223
0.029769694,-0.006789101,-0.04798162,-0.08385887,1.0180476,-0.14193213
0.02884301,-0.0065777665,-0.046488028,-0.08124847,0.98635733,-0.137514
0.027945174,-0.0063730115,-0.04504093,-0.07871934,0.95565367,-0.13323341
0.027075289,-0.006174631,-0.043638885,-0.07626895,0.9259058,-0.12908609
0.026232485,-0.005982426,-0.042280488,-0.073894836,0.89708406,-0.12506787
0.025415918,-0.005796205,-0.040964376,-0.071594626,0.8691596,-0.12117476
0.024624772,-0.00561578,-0.03968924,-0.06936603,0.8421044,-0.11740283
0.023858255,-0.0054409727,-0.038453795,-0.067206815,0.81589144,-0.11374833
0.023115598,-0.005271607,-0.03725681,-0.06511481,0.7904945,-0.11020759
0.022396062,-0.0051075136,-0.03609709,-0.06308793,0.76588815,-0.10677707
0.021698924,-0.0049485285,-0.03497347,-0.061124146,0.7420478,-0.103453346
0.021023486,-0.0047944924,-0.033884827,-0.059221495,0.7189496,-0.100233085
0.020369075,-0.004645251,-0.032830074,-0.057378072,0.69657046,-0.097113065
0.019735036,-0.004500656,-0.031808157,-0.055592034,0.6748879,-0.09409018
0.019120734,-0.004360562,-0.030818047,-0.053861596,0.65388036,-0.091161385
0.018525556,-0.004224829,-0.02985876,-0.05218502,0.63352674,-0.088323765
