ax,ay,az,gx,gy,gz
-0.09545541,2.601842,2.7663887,-17.921982,-25.523869,16.59106
-0.10715009,2.9397323,2.8619733,-44.36734,-31.130995,20.463755
-0.10968692,2.7365475,3.1896722,-70.16879,-39.650944,20.852602
-0.005475509,2.4871993,3.6551318,-81.33575,-44.00437,20.260265
0.06920068,2.2344086,4.062152,-82.06307,-43.149757,16.97326
0.12510306,1.883668,4.497034,-74.219666,-39.614933,12.780532
0.22671016,1.5328916,5.0101337,-64.54124,-34.649033,9.153185
0.4152451,1.1623173,5.5602813,-53.27063,-28.085888,6.445946
0.63973075,0.80297047,6.1433992,-41.682323,-21.18861,3.6970425
0.8514452,0.45651168,6.6874495,-30.882689,-13.83217,0.8768536
1.0777828,0.05817852,7.1495867,-21.466484,-5.3060474,-1.2487832
1.3254919,-0.37596264,7.4851027,-12.0976305,4.8265166,-2.4663184
1.5387752,-0.734069,7.6595364,-2.731498,15.967442,-2.8753018
1.7056043,-0.95627993,7.6564183,5.6663556,26.42095,-2.69608
1.8458205,-1.0713516,7.553598,12.700344,36.06955,-2.2595325
1.9861192,-1.1309348,7.38698,18.628752,45.2242,-1.8185005
2.1251645,-1.1606317,7.1640644,23.661188,54.107365,-1.4351352
2.2624369,-1.1918352,6.8734202,27.976013,62.79192,-1.199994
2.4042482,-1.2318634,6.4969645,31.307089,70.79031,-0.86793804
2.5349417,-1.272595,6.0726004,33.687374,77.971886,-0.3939254
2.6635861,-1.3158196,5.5981965,35.494724,84.22798,0.19462872
2.78338,-1.3592646,5.086663,36.962677,89.43201,0.7736862
2.9053369,-1.4124023,4.5616508,38.25786,93.84966,1.5534834
3.008844,-1.4503998,3.9948232,39.05564,97.28672,2.495163
3.0939038,-1.4562564,3.4219232,39.752945,99.8955,3.2850308
3.1560726,-1.4172938,2.8483722,39.94641,101.72727,3.9080567
3.1906502,-1.3562688,2.264849,39.695004,102.7477,4.430144
3.1915455,-1.2736214,1.6725028,39.124653,102.24975,4.7212977
3.1631,-1.1501735,1.0865537,38.393917,100.519585,4.7755456
3.1216934,-1.0032955,0.5232728,37.54891,97.95418,4.50187
3.0758598,-0.85037947,-0.012274743,36.575203,94.72654,3.9362721
3.024109,-0.6970069,-0.53047985,35.38252,90.89206,3.2346997
2.9559493,-0.53812456,-1.0410444,33.90053,85.85241,2.2478821
2.871902,-0.38700423,-1.5307983,32.49496,80.0115,0.93032604
2.8044102,-0.25900334,-1.9751581,31.2188,73.48151,-0.58724856
2.7704911,-0.14641272,-2.3669395,29.976059,66.49279,-2.072905
2.7543979,-0.02740797,-2.7190301,28.475227,59.24316,-3.4881077
2.7385375,0.09234558,-3.0385554,26.402857,51.347225,-5.1916466
2.7301662,0.18479058,-3.303972,24.188938,43.014935,-7.020712
2.739704,0.2576372,-3.5065107,21.873854,34.56814,-8.902066
2.7662895,0.32383427,-3.6470425,19.108543,26.287142,-10.661406
2.8004284,0.3861841,-3.7343872,15.695107,18.108252,-12.291013
2.844294,0.4323343,-3.7734537,11.935638,9.841878,-13.87894
2.9144366,0.44205716,-3.7336879,8.246822,1.9042014,-15.546457
3.013404,0.41618946,-3.6040204,4.426897,-5.387375,-17.074512
3.112566,0.37444824,-3.3851647,0.16051623,-11.949082,-18.597895
3.1884816,0.29580542,-3.088805,-3.6918278,-17.669203,-20.730467
3.2621026,0.13941395,-2.7110896,-6.1107574,-21.846535,-23.015064
3.3176048,-0.066325665,-2.2554834,-7.6712317,-24.791214,-24.877367
3.331824,-0.2535693,-1.7750398,-9.083178,-26.870571,-26.2295
3.2941904,-0.42771783,-1.2896016,-10.674796,-28.448956,-26.993744
3.214307,-0.5993287,-0.7956863,-12.2359295,-29.681915,-27.202137
3.1072602,-0.764917,-0.2952908,-13.015888,-30.25425,-26.972391
2.9843125,-0.90039873,0.20126435,-13.252922,-30.390919,-26.536072
2.8632538,-1.012622,0.6883977,-12.933177,-30.144384,-25.849068
2.761172,-1.0971841,1.1787522,-12.167968,-29.312737,-24.97387
2.693361,-1.1547238,1.6715168,-11.147665,-27.50788,-24.024204
2.661068,-1.2053341,2.1356618,-9.6441555,-24.11999,-23.048843
2.6457438,-1.270695,2.5180042,-7.520534,-19.744823,-22.170235
2.6420062,-1.3393358,2.8337648,-4.8401656,-14.624514,-21.442127
2.6685765,-1.4159831,3.1043499,-1.8240829,-8.558658,-20.763472
2.7183852,-1.5096449,3.3209486,1.254496,-1.676913,-20.043324
2.7673995,-1.6356003,3.4523883,4.8986793,5.809819,-19.423159
2.8193316,-1.7726498,3.4726894,8.725942,13.181616,-18.633533
2.8779745,-1.8724978,3.4331572,12.032978,19.980215,-17.588238
2.9375377,-1.9326863,3.3462648,14.76071,26.099913,-16.439495
2.9910727,-1.959072,3.2175517,16.88922,31.614769,-15.290623
3.0492296,-1.961597,3.0532293,18.399113,36.783237,-14.200068
3.1107972,-1.9582564,2.8294704,19.700357,41.82866,-13.27092
3.1596224,-1.9676868,2.5541759,21.181873,46.574875,-12.497441
3.200867,-1.9770894,2.246439,22.785042,50.852013,-11.724454
3.2361643,-1.9677705,1.9253528,24.053623,54.597153,-10.868438
3.259816,-1.936881,1.6016393,24.590313,57.569214,-9.920561
3.2676873,-1.8848715,1.2735865,24.836382,59.91107,-9.052302
3.264054,-1.8174309,0.95066386,24.989285,61.669445,-8.432968
3.2490528,-1.7375139,0.6339408,25.137184,62.829502,-8.117817
3.2260685,-1.6486971,0.3279932,25.23973,63.34585,-8.015555
3.2024739,-1.5525053,0.046811067,24.864756,63.40782,-7.8857636
3.167244,-1.4523345,-0.22086178,24.006979,63.149994,-7.688933
3.1203535,-1.3563203,-0.48728055,22.668917,62.300114,-7.4176335
3.067889,-1.2624924,-0.745097,20.956827,60.93544,-7.108973
3.006852,-1.1760634,-0.9940091,19.038576,59.05753,-6.8525033
2.9420521,-1.1038325,-1.2297908,17.135912,56.642845,-6.6407714
2.883544,-1.0551401,-1.4369432,15.102434,54.165558,-6.1134667
2.819558,-1.0311631,-1.6236365,13.345001,51.602695,-5.420884
2.7604752,-1.0102135,-1.7936841,11.630351,49.117947,-4.6756797
2.7116895,-0.9827143,-1.9567972,10.110283,46.823612,-4.1439176
2.6266284,-0.95188826,-1.8954159,9.79314,45.35484,-4.0139303
2.5442746,-0.9220433,-1.8359882,9.486093,43.932808,-3.88808
2.4645383,-0.893147,-1.7784493,9.188803,42.555977,-3.7662294
2.3873334,-0.8651679,-1.7227368,8.900951,41.222855,-3.6482472
2.312576,-0.83807594,-1.6687908,8.622226,39.931995,-3.5340054
2.2401865,-0.81184196,-1.6165533,8.352327,38.682022,-3.4233818
2.1700869,-0.786438,-1.5659685,8.090968,37.471592,-3.3162582
2.1022031,-0.7618369,-1.5169824,7.837869,36.299416,-3.2125201
2.0364628,-0.7380126,-1.4695431,7.5927625,35.164257,-3.1120577
1.9727963,-0.71494,-1.4236006,7.355388,34.06491,-3.0147648
1.9111369,-0.69259465,-1.3791062,7.125497,33.000217,-2.920539
1.8514197,-0.6709532,-1.3360132,6.902847,31.969059,-2.8292809
1.7935821,-0.6499929,-1.2942767,6.687205,30.97036,-2.7408953
1.7375637,-0.6296919,-1.2538531,6.4783454,30.003073,-2.65529
1.6833063,-0.61002904,-1.2147,6.2760515,29.066193,-2.5723755
1.6307534,-0.5909839,-1.176777,6.080113,28.158745,-2.4920657
1.5798506,-0.57253677,-1.1400447,5.8903265,27.279789,-2.4142776
1.5305451,-0.5546685,-1.1044651,5.706496,26.428415,-2.3389306
1.4827862,-0.53736067,-1.0700015,5.5284305,25.603746,-2.2659469
1.4365244,-0.52059543,-1.0366184,5.3559484,24.80493,-2.1952512
1.3917124,-0.5043556,-1.0042814,5.188871,24.031147,-2.126771
1.3483042,-0.48862448,-0.97295725,5.027027,23.281603,-2.0604358
1.3062551,-0.47338593,-0.942614,4.870251,22.555527,-1.9961777
1.2655222,-0.45862436,-0.9132205,4.7183824,21.852179,-1.9339309
1.2260638,-0.44432467,-0.88474673,4.571265,21.17084,-1.873632
1.1878397,-0.43047228,-0.8571636,4.4287505,20.51081,-1.815219
1.150811,-0.41705307,-0.830443,4.290692,19.871422,-1.7586328
1.1149397,-0.40405336,-0.8045578,4.1569495,19.252022,-1.7038156
1.0801896,-0.39145994,-0.7794816,4.0273867,18.651981,-1.6507115
1.0465252,-0.37926003,-0.7551889,3.9018724,18.070688,-1.5992668
1.0139126,-0.3674412,-0.73165506,3.7802792,17.507555,-1.549429
0.9823184,-0.3559915,-0.7088562,3.6624832,16.962008,-1.5011479
0.9517108,-0.34489933,-0.6867693,3.5483656,16.433496,-1.4543743
0.92205876,-0.33415344,-0.66537195,3.4378107,15.921485,-1.409061
0.89333224,-0.32374296,-0.6446424,3.3307064,15.425455,-1.365162
0.8655022,-0.3136574,-0.6245599,3.2269447,14.944905,-1.322633
0.83854055,-0.3038865,-0.6051039,3.1264207,14.47935,-1.2814311
0.8124201,-0.29442048,-0.58625495,3.0290332,14.028319,-1.2415147
0.78711444,-0.2852497,-0.567994,2.9346833,13.591358,-1.2028433
0.76259804,-0.276365,-0.5503026,2.8432763,13.168026,-1.1653782
0.73884624,-0.26775736,-0.53316295,2.7547197,12.757896,-1.1290815
0.7158351,-0.25941813,-0.51655775,2.6689248,12.360555,-1.0939165
0.6935414,-0.2513389,-0.5004702,2.5858047,11.975602,-1.059848
0.6719427,-0.24351156,-0.4848843,2.5052762,11.602651,-1.0268415
0.6510173,-0.23592822,-0.46978423,2.4272578,11.241325,-0.99486405
0.63074416,-0.22858125,-0.4551548,2.3516712,10.891263,-0.9638833
0.6111029,-0.22146326,-0.44098136,2.2784405,10.552111,-0.9338681
0.59207374,-0.21456711,-0.4272496,2.207492,10.223528,-0.9047883
0.5736376,-0.20788586,-0.4139458,2.1387546,9.905185,-0.87661475
0.5557759,-0.2014128,-0.40105653,2.0721588,9.596761,-0.8493191
0.53847075,-0.19514142,-0.38856885,2.0076382,9.297948,-0.82287395
0.52170473,-0.18906544,-0.37647027,1.9451278,9.008444,-0.79725266
0.5054611,-0.18317875,-0.3647486,1.8845649,8.72796,-0.77242965
0.4897235,-0.17747545,-0.3533921,1.8258888,8.456213,-0.74837995
0.47447613,-0.17194982,-0.34238935,1.7690403,8.192932,-0.7250794
0.4597037,-0.16659631,-0.33172935,1.7139628,7.9378524,-0.70250463
0.44539145,-0.16140954,-0.3214014,1.6606008,7.6907177,-0.68063307
0.43152496,-0.15638433,-0.3113951,1.6089008,7.45128,-0.6594428
0.41809034,-0.15151565,-0.3017005,1.5588111,7.2193007,-0.63891244
0.40507415,-0.14679858,-0.2923078,1.5102814,6.9945455,-0.6190215
0.39246333,-0.14222842,-0.28320763,1.4632632,6.7767906,-0.59975
0.38024524,-0.1378006,-0.27439088,1.4177091,6.565817,-0.5810787
0.36840764,-0.13351066,-0.26584867,1.3735737,6.361413,-0.5629889
0.35693866,-0.12935431,-0.25757247,1.3308127,6.1633744,-0.5454623
0.3458268,-0.1253274,-0.24955401,1.2893833,5.971503,-0.5284816
0.33506098,-0.12142587,-0.24178523,1.2492439,5.785606,-0.5120296
0.3246304,-0.11764583,-0.23425834,1.2103543,5.605498,-0.4960899
0.3145246,-0.11398349,-0.22696583,1.1726757,5.4309974,-0.48064652
0.30473346,-0.11043519,-0.21990038,1.1361704,5.2619305,-0.465684
0.29524717,-0.10699736,-0.21305494,1.1008017,5.098128,-0.45118734
0.28605622,-0.103666574,-0.20642263,1.0665342,4.939425,-0.43714207
0.27715147,-0.1004395,-0.1999968,1.0333335,4.7856636,-0.42353407
0.26852393,-0.09731288,-0.19377105,1.0011666,4.636689,-0.4103498
0.26016504,-0.094283625,-0.18773913,0.9700012,4.4923534,-0.39757594
0.25206637,-0.09134867,-0.181895,0.93980604,4.352511,-0.38519982
0.24421982,-0.0885051,-0.17623283,0.910551,4.2170224,-0.373209
0.23661758,-0.08575004,-0.17074692,0.88220674,4.085752,-0.3615915
0.22925201,-0.08308077,-0.16543183,0.8547449,3.9585683,-0.35033566
0.22211576,-0.08049459,-0.16028218,0.828138,3.8353443,-0.33943024
0.21520166,-0.07798893,-0.15529285,0.8023594,3.7159562,-0.32886437
0.2085028,-0.07556127,-0.15045887,0.7773834,3.600285,-0.3186274
0.2020125,-0.07320919,-0.14577536,0.75318485,3.4882147,-0.30870908
0.19572423,-0.070930324,-0.14123765,0.72973967,3.3796334,-0.29909956
0.18963173,-0.068722405,-0.13684121,0.70702434,3.2744322,-0.2897892
0.18372889,-0.06658322,-0.13258162,0.68501616,3.1725059,-0.28076866
0.17800981,-0.06451063,-0.12845464,0.6636931,3.0737526,-0.27202895
0.17246875,-0.062502556,-0.12445614,0.6430338,2.9780736,-0.26356128
0.1671002,-0.060556997,-0.120582104,0.6230176,2.8853729,-0.25535724
0.16189876,-0.058672,-0.116828665,0.6036245,2.795558,-0.24740855
0.15685925,-0.05684568,-0.11319207,0.5848352,2.708539,-0.23970732
0.1519766,-0.055076215,-0.10966868,0.56663066,2.624229,-0.23224583
0.14724596,-0.05336183,-0.106254965,0.5489929,2.5425432,-0.2250166
0.14266255,-0.05170081,-0.102947526,0.53190416,2.4634004,-0.2180124
