ax,ay,az,gx,gy,gz
5.010955,1.6881971,8.0564375,-0.2218202,-160.96783,4.6054964
5.2363453,1.80722,8.273974,20.967533,-147.11655,4.853976
5.307007,2.6506119,8.7422495,32.06197,-136.3795,8.492509
5.4276953,3.3043432,9.333889,36.674397,-122.088486,9.222646
5.5256205,3.5578163,9.900776,40.902824,-106.42945,6.8729763
5.683395,3.7125797,10.413005,45.0123,-90.85677,3.3215668
5.876163,3.8690686,10.918401,47.935165,-74.73547,-1.4645872
6.0739403,4.0226235,11.405054,47.09633,-56.684296,-6.718595
6.2432594,3.9700508,11.703986,46.39903,-39.003143,-12.036017
6.3155613,3.860535,11.796181,45.22884,-22.103313,-15.939492
6.3593483,3.7012641,11.742997,43.583385,-7.2663584,-19.121065
6.398087,3.5349658,11.619712,42.50506,6.91052,-22.269356
6.421489,3.3727918,11.396712,41.822998,21.182264,-25.479832
6.3869934,3.187152,11.017465,41.766994,34.38766,-28.703478
6.3288827,3.027441,10.586334,41.813087,46.42443,-31.88663
6.26052,2.886389,10.105711,40.60422,57.254566,-34.65325
6.1789117,2.7299535,9.571199,38.542576,66.86298,-37.07188
6.1001754,2.543415,8.9809885,35.560184,75.49199,-38.895866
6.0076985,2.296193,8.298407,32.71484,83.14979,-40.1853
5.8930745,2.024224,7.5877223,30.651482,89.75763,-41.069218
5.7471266,1.7650486,6.880425,29.722702,95.30497,-41.807575
5.5877004,1.5450655,6.1913486,29.643578,99.791664,-42.53931
5.428614,1.366017,5.53031,29.908249,103.173744,-43.29064
5.2713003,1.2264252,4.882932,29.524458,105.537544,-43.79853
5.112458,1.105057,4.248666,28.515936,107.0931,-44.010826
4.952481,0.99973965,3.628792,26.774601,107.94485,-43.87543
4.791982,0.89740473,3.0194042,24.538437,108.11366,-43.353683
4.6339726,0.7985588,2.4199493,22.199146,107.454796,-42.31886
4.463656,0.7165841,1.8271338,20.304802,106.20487,-41.33227
4.2863708,0.65667164,1.2505764,18.734308,104.24956,-40.437954
4.1037154,0.6090581,0.69008446,17.420034,101.64843,-39.645397
3.915133,0.5620598,0.14020863,16.686409,98.31707,-38.966038
3.7253096,0.5265591,-0.39223465,16.560886,93.813225,-38.40074
3.5426981,0.4980872,-0.8921081,16.754879,88.57493,-37.83278
3.3670194,0.48320994,-1.3495433,16.836632,82.65812,-37.058025
3.1927505,0.5030077,-1.7768607,16.240747,76.17131,-36.152782
3.0218785,0.5390143,-2.187995,15.361009,69.12352,-35.4895
2.868884,0.5717886,-2.5801344,14.412856,61.27578,-35.251236
2.7471266,0.5718703,-2.9454153,13.8779955,52.951008,-35.15526
2.6618872,0.56269705,-3.264107,13.553548,44.227917,-35.06603
2.6154032,0.5556479,-3.5222132,13.343463,35.38947,-34.99416
2.600538,0.5592477,-3.7242312,12.724707,26.533752,-34.897087
2.6045372,0.5529803,-3.8884032,11.380197,17.648691,-34.795597
2.6265976,0.49852344,-4.0219584,9.958404,8.667122,-34.63608
2.6669679,0.4335084,-4.116497,8.898457,-0.5061017,-34.46629
2.7316036,0.3905051,-4.141569,8.054748,-9.858931,-34.452103
2.8312304,0.3557301,-4.079386,7.0625606,-18.832289,-34.539597
2.9471493,0.29955947,-3.943725,5.7380614,-26.78804,-34.420494
3.0610535,0.20956534,-3.7625911,4.254306,-33.940495,-33.914925
3.1704617,0.12831093,-3.555516,2.9532773,-40.763016,-33.30929
3.2830276,0.06684933,-3.2968104,1.8532188,-47.41448,-32.830185
3.4050574,0.022687085,-2.9565003,1.0064813,-53.44135,-32.49651
3.536045,-0.016288629,-2.5643837,0.4141561,-58.0993,-32.122498
3.6689613,-0.027521817,-2.10967,-0.16807926,-61.867554,-31.610302
3.7981935,-0.008522388,-1.6068693,-0.8560385,-64.81427,-30.985704
3.918873,0.028885428,-1.070304,-1.705988,-66.79445,-30.283411
4.0262084,0.07528755,-0.52199775,-2.9384222,-67.73904,-29.46822
4.116622,0.11404842,0.012789697,-4.3203416,-67.347305,-28.564468
4.1873965,0.14861119,0.51995814,-5.6806564,-65.98857,-27.619324
4.2470894,0.17337918,0.9863695,-6.404175,-63.719852,-26.892647
4.297824,0.1929212,1.4133371,-6.380522,-60.617184,-26.413643
4.3374844,0.20866896,1.7941916,-5.8534617,-56.66014,-26.089808
4.3582816,0.22108984,2.1161716,-5.0370245,-51.674892,-25.897585
4.344117,0.2255366,2.3449364,-4.1503816,-46.304905,-25.71397
4.30766,0.22690283,2.502882,-3.0761986,-40.862015,-25.542547
4.2584476,0.22761235,2.6102586,-1.7349312,-35.55984,-25.404396
4.2052336,0.2319833,2.6914601,-0.4743891,-30.351627,-25.360926
4.148027,0.23067221,2.7490926,0.983731,-25.141653,-25.504406
4.08479,0.24224393,2.7950153,2.7027886,-20.007385,-25.873075
4.033108,0.26656586,2.84428,4.7788544,-14.910605,-26.57197
4.000374,0.3074301,2.9016464,6.671097,-9.746557,-27.548784
3.980744,0.34801942,2.9574273,8.265739,-4.503538,-28.764877
3.984245,0.38666368,3.0136504,9.202973,1.0332702,-30.155907
4.0189023,0.40338835,3.0592048,9.840263,6.707115,-31.667593
4.083499,0.41592094,3.1109934,10.218819,12.660675,-33.261124
4.1767087,0.43108135,3.1562457,9.905097,18.877165,-34.88751
4.2909355,0.41141555,3.1523812,8.588638,25.649145,-36.350853
4.3963294,0.34687862,3.059168,6.1545577,32.686596,-37.269257
4.479119,0.2308557,2.8512173,3.393059,39.56311,-37.714893
4.5405006,0.0875009,2.5691264,0.91530836,46.117027,-37.797787
4.5688696,-0.07428575,2.2284427,-1.0440348,52.20166,-37.554962
4.561822,-0.24112263,1.8508219,-2.1274931,57.625263,-37.148964
4.5236998,-0.39174238,1.4547955,-2.6673067,61.96056,-36.421925
4.447818,-0.5131646,1.0415478,-3.1341531,65.22417,-35.395847
4.352278,-0.60785615,0.63672864,-3.6205766,67.45318,-34.06705
4.2416124,-0.66629785,0.25009698,-4.2773414,68.92481,-32.502842
4.1138916,-0.6847424,-0.12237252,-5.1181107,69.70584,-30.783594
3.9744942,-0.6751204,-0.47999042,-5.8727336,69.774635,-29.10001
3.8212233,-0.6432929,-0.81961083,-6.471278,69.30736,-27.531242
3.6671202,-0.5927018,-1.1377814,-7.1961827,68.29828,-26.035276
3.510265,-0.5296198,-1.4371746,-8.121778,66.80309,-24.705368
3.3555338,-0.46822473,-1.7185264,-9.398368,64.83161,-23.484512
3.2057028,-0.42329845,-1.9792919,-10.882914,62.469784,-22.304232
3.0595794,-0.39791146,-2.2159426,-12.020623,59.659348,-21.151749
2.9161348,-0.38590208,-2.427127,-12.811153,56.490974,-19.999403
2.7769072,-0.3751788,-2.6123478,-13.559554,52.937836,-18.709759
2.6446042,-0.36269918,-2.772436,-14.33205,48.928177,-17.323399
2.5285985,-0.35061297,-2.9002545,-15.440751,44.373405,-15.692697
2.4304645,-0.3404073,-2.9808323,-16.648016,39.66079,-13.812015
2.3433228,-0.3306791,-3.0298839,-17.706694,34.970642,-11.918083
2.2686353,-0.31900808,-3.0604954,-18.648212,30.422304,-9.980782
2.1903315,-0.32175574,-3.0802772,-19.356195,26.034115,-8.388349
2.1303163,-0.33231574,-3.0842023,-20.040033,21.930485,-7.366162
2.06382,-0.32194272,-2.987931,-19.414497,21.245941,-7.136232
1.9994103,-0.31189525,-2.894681,-18.808592,20.582876,-6.913518
1.9370209,-0.3021629,-2.8043556,-18.221691,19.94061,-6.697789
1.8765874,-0.29273567,-2.716862,-17.653189,19.31848,-6.4888234
1.8180478,-0.28360385,-2.6321104,-17.102503,18.715845,-6.2864065
1.7613419,-0.2747581,-2.5500133,-16.569065,18.132088,-6.09033
1.7064116,-0.2661893,-2.4704869,-16.052332,17.566608,-5.900393
1.6532006,-0.25788873,-2.3934498,-15.551773,17.018831,-5.7164016
1.6016546,-0.24984789,-2.3188233,-15.066876,16.488192,-5.538167
1.551721,-0.24205856,-2.246531,-14.597147,15.974151,-5.3655076
1.5033488,-0.23451282,-2.1764994,-14.142107,15.476185,-5.198247
1.4564888,-0.22720297,-2.1086571,-13.701292,14.993787,-5.036216
1.4110935,-0.22012156,-2.042935,-13.274254,14.526464,-4.8792486
1.3671165,-0.21326144,-1.9792665,-12.860559,14.073745,-4.7271857
1.3245132,-0.2066156,-1.9175869,-12.459788,13.635166,-4.579873
1.2832406,-0.20017733,-1.8578337,-12.071533,13.210286,-4.4371614
1.2432567,-0.1939401,-1.7999464,-11.695402,12.798673,-4.298906
1.204521,-0.1878976,-1.7438662,-11.331013,12.39991,-4.1649666
1.1669945,-0.18204369,-1.6895365,-10.977998,12.013594,-4.035208
1.130639,-0.17637247,-1.6369022,-10.636,11.639334,-3.9094992
1.095418,-0.17087822,-1.5859104,-10.304673,11.2767515,-3.7877128
1.0612957,-0.16555537,-1.5365094,-9.983684,10.925482,-3.669726
1.028238,-0.16039857,-1.4886495,-9.672707,10.58517,-3.5554194
0.99621135,-0.15540262,-1.4422823,-9.371429,10.255471,-3.444678
0.96518344,-0.15056245,-1.397361,-9.079548,9.936056,-3.3373904
0.935123,-0.14587323,-1.3538406,-8.796768,9.6266,-3.2334483
0.9059999,-0.14133021,-1.3116771,-8.522804,9.326793,-3.1327472
0.8777847,-0.13692881,-1.2708281,-8.257382,9.036332,-3.035185
0.8504491,-0.13266464,-1.2312524,-8.000234,8.754926,-2.9406645
0.8239655,-0.12853336,-1.1929104,-7.751101,8.482291,-2.8490903
0.79830736,-0.12453085,-1.1557634,-7.5097327,8.218154,-2.76037
0.7734488,-0.12065308,-1.119774,-7.275887,7.962249,-2.6744146
0.749365,-0.116896145,-1.0849061,-7.0493283,7.714318,-2.591138
0.72603154,-0.11325628,-1.0511248,-6.829829,7.4741125,-2.5104563
0.70342517,-0.109729834,-1.018396,-6.6171694,7.241392,-2.4322884
0.6815231,-0.10631325,-0.9866869,-6.411135,7.0159216,-2.356556
0.6603034,-0.103003114,-0.9559657,-6.21152,6.7974763,-2.2831829
0.63974476,-0.099796094,-0.9262016,-6.0181236,6.5858355,-2.2120957
0.6198265,-0.09668898,-0.8973646,-5.8307514,6.380788,-2.1432228
0.6005288,-0.09367865,-0.86942595,-5.6492157,6.1821275,-2.0764954
0.58183205,-0.090762086,-0.84235746,-5.473335,5.989655,-2.0118463
0.5637177,-0.087936364,-0.8161321,-5.302932,5.8031774,-1.949211
0.54616755,-0.085198656,-0.7907236,-5.1378365,5.622508,-1.8885266
0.529164,-0.08254621,-0.7661064,-4.977883,5.4474654,-1.829732
0.51269,-0.07997637,-0.74225587,-4.822911,5.277874,-1.7727685
0.49672905,-0.07748656,-0.7191481,-4.672765,5.113564,-1.717579
0.48126513,-0.075074285,-0.69675994,-4.5272946,4.9543715,-1.6641082
0.46628276,-0.072737135,-0.675069,-4.3863544,4.8001356,-1.6123025
0.45176694,-0.07047276,-0.65405345,-4.249803,4.650703,-1.5621101
0.43770313,-0.068278894,-0.6336923,-4.117504,4.5059233,-1.5134804
0.42407724,-0.06615334,-0.6139652,-3.9893243,4.365652,-1.4663652
0.41087565,-0.06409398,-0.5948523,-3.8651357,4.2297487,-1.4207169
0.3980851,-0.06209873,-0.5763346,-3.7448142,4.0980763,-1.37649
0.38569278,-0.06016561,-0.5583934,-3.628239,3.9705043,-1.3336402
0.3736863,-0.05829268,-0.54101086,-3.5152931,3.846904,-1.2921245
0.36205366,-0.05647806,-0.5241695,-3.405864,3.727152,-1.2519014
0.3507832,-0.05471994,-0.5078525,-3.2998421,3.6111286,-1.2129306
0.33986363,-0.05301656,-0.49204347,-3.197121,3.4987173,-1.1751732
0.32928404,-0.051366206,-0.47672668,-3.0975978,3.3898058,-1.1385913
0.3190338,-0.049767237,-0.46188673,-3.0011733,3.2842853,-1.1031482
0.3091027,-0.04821805,-0.4475088,-2.9077506,3.1820498,-1.0688087
0.29948077,-0.04671709,-0.4335785,-2.8172364,3.082997,-1.0355382
0.2901584,-0.04526286,-0.42008185,-2.7295403,2.9870281,-1.0033034
0.28112623,-0.043853898,-0.4070054,-2.6445742,2.8940468,-0.9720723
0.2723753,-0.042488802,-0.39433604,-2.5622532,2.80396,-0.94181335
0.26389673,-0.041166205,-0.38206106,-2.482495,2.7166781,-0.91249645
0.25568214,-0.03988478,-0.37016824,-2.4052198,2.632113,-0.8840922
0.24772327,-0.03864325,-0.35864565,-2.33035,2.5501807,-0.85657215
0.24001215,-0.037440363,-0.34748176,-2.257811,2.470799,-0.82990885
0.2325411,-0.036274925,-0.3366654,-2.1875303,2.3938882,-0.8040756
0.2253026,-0.035145767,-0.32618576,-2.1194375,2.319372,-0.77904654
0.21828945,-0.03405176,-0.31603235,-2.0534642,2.247175,-0.75479656
0.21149461,-0.03299181,-0.306195,-1.9895446,2.1772258,-0.73130155
0.20491129,-0.031964853,-0.29666388,-1.9276148,2.109454,-0.7085379
0.19853291,-0.030969867,-0.28742948,-1.867613,2.0437918,-0.68648285
0.19235308,-0.030005852,-0.27848253,-1.8094789,1.9801738,-0.66511434
0.18636562,-0.029071847,-0.26981407,-1.7531544,1.9185361,-0.644411
