ax,ay,az,gx,gy,gz
4.4154944,1.1791017,10.736462,-58.760536,-122.57111,121.62747
6.4269023,2.0352645,12.946572,-61.79299,-74.52318,120.6462
7.1737704,2.4601421,13.806978,-76.89389,-43.062916,115.68231
7.2906,2.0593572,14.289254,-78.54001,-22.464823,108.04203
7.111523,1.6984107,14.577077,-69.18524,-6.1822248,96.1418
6.985499,1.2462243,14.73279,-50.81682,8.092972,83.37263
6.961735,0.8696778,14.711697,-28.73708,23.994791,70.13159
6.987655,0.4602995,14.363892,-9.985237,40.392303,59.57736
6.942274,0.129848,13.720607,1.9585115,56.601517,50.862
6.6738176,-0.17880432,12.786901,10.743572,70.38394,44.213314
6.336551,-0.35091546,11.739243,18.765007,82.714195,39.280888
5.8982425,-0.3408428,10.535317,25.267244,92.4096,34.692554
5.315333,-0.16737531,9.134865,30.644707,98.36904,30.100979
4.781614,0.016581718,7.785588,34.497852,101.20222,25.980898
4.309257,0.24375439,6.471326,36.468838,101.37441,23.065443
3.9345403,0.46687803,5.2278576,37.01802,99.05139,20.19539
3.7232878,0.67479765,4.1132174,36.36796,95.229416,17.20773
3.5209565,0.96278113,3.0096684,33.617466,89.49314,13.35353
3.296413,1.2139996,1.9807603,30.207893,81.639946,9.295176
3.0783772,1.4802119,1.056897,25.185907,71.385704,4.8746047
2.9649227,1.6793957,0.40740913,20.300283,61.68566,0.63107514
2.8977232,1.8229152,-0.1034091,16.139631,53.489574,-1.7075517
2.7778714,2.019799,-0.5999328,10.747844,45.163586,-3.746651
2.6299033,2.1429257,-1.0212923,5.833117,37.1941,-5.575047
2.4567702,2.2300193,-1.3957468,0.19779764,28.78294,-7.5608687
2.3076234,2.268646,-1.6308013,-6.0533257,20.24927,-9.358332
2.2513564,2.2177813,-1.7083919,-12.079742,13.464523,-10.921164
2.2017946,2.1469479,-1.714491,-18.13881,7.2912602,-12.90872
2.1313078,1.9912311,-1.6289018,-23.558107,1.3498523,-15.430683
2.0807343,1.7262211,-1.4099083,-27.267515,-3.7611141,-18.331646
2.1124692,1.3876036,-1.095076,-29.859116,-8.246345,-21.331219
2.2883897,0.9800778,-0.6533114,-31.870209,-10.975389,-23.455832
2.569079,0.5283614,-0.023933923,-33.775105,-11.554752,-24.405289
2.8093238,0.07689236,0.61717105,-35.25331,-10.618438,-24.261333
3.0453126,-0.37339723,1.2700224,-35.60511,-8.0206585,-23.591724
3.2688725,-0.79995406,1.8576452,-34.27149,-3.600489,-22.680935
3.4172544,-1.1689507,2.2981377,-31.40548,1.771363,-21.269066
3.5059276,-1.4038699,2.5838752,-28.810759,7.6767573,-19.637089
3.5296915,-1.5873489,2.7527573,-25.943985,14.188793,-17.941582
3.4984388,-1.7424115,2.8127341,-22.448849,21.146494,-16.595905
3.433615,-1.847031,2.7308104,-18.579882,27.8346,-15.217197
3.3260515,-1.828664,2.5012066,-15.695532,32.640224,-13.554747
3.1670969,-1.7595474,2.2203114,-12.736928,36.22622,-12.111237
2.9914114,-1.6934313,1.9193732,-9.829271,38.71796,-10.954288
2.836798,-1.64907,1.6085168,-6.2979126,40.526638,-9.573246
2.7155972,-1.5906183,1.2953675,-2.7343135,41.5214,-7.9340496
2.6147556,-1.5054805,0.9893708,1.6787702,42.116993,-5.920076
2.5011008,-1.3327402,0.62014186,5.7598095,41.947323,-4.578239
2.3753574,-1.1399794,0.24970159,9.481866,41.309986,-3.9893186
2.294822,-1.1013288,0.24123557,9.160387,39.90939,-3.8540626
2.217424,-1.0641841,0.23309934,8.851433,38.563354,-3.7240756
2.1430032,-1.0284681,0.22527611,8.554362,37.2691,-3.599089
2.0714116,-0.9941099,0.21775028,8.268585,36.024044,-3.4788535
2.0025108,-0.9610432,0.21050732,7.9935503,34.825787,-3.3631375
1.9361722,-0.9292061,0.20353371,7.7287426,33.672092,-3.2517247
1.872276,-0.898541,0.19681682,7.4736834,32.560863,-3.1444132
1.8107092,-0.868994,0.19034483,7.227924,31.490156,-3.0410144
1.7513672,-0.84051454,0.18410668,6.991044,30.458134,-2.941352
1.6941508,-0.81305534,0.178092,6.76265,29.463081,-2.8452592
1.6389676,-0.78657186,0.17229106,6.5423717,28.503386,-2.7525811
1.5857302,-0.7610222,0.16669464,6.32986,27.57753,-2.663171
1.5343565,-0.736367,0.16129415,6.1247883,26.684086,-2.576891
1.4847687,-0.71256894,0.15608141,5.9268465,25.821705,-2.4936104
1.436894,-0.6895929,0.15104873,5.735742,24.989113,-2.4132068
1.390663,-0.6674058,0.14618886,5.5511985,24.185106,-2.3355634
1.3460101,-0.64597595,0.14149486,5.3729544,23.408545,-2.2605708
1.3028731,-0.6252737,0.13696024,5.200762,22.658348,-2.188124
1.2611933,-0.60527074,0.13257878,5.0343857,21.933489,-2.118124
1.2209144,-0.5859401,0.12834458,4.873602,21.232996,-2.0504773
1.1819832,-0.56725633,0.12425207,4.718198,20.555943,-1.985094
1.1443491,-0.549195,0.12029591,4.567971,19.901445,-1.921889
1.1079638,-0.53173304,0.11647103,4.42273,19.268667,-1.8607813
1.0727813,-0.51484823,0.112772584,4.2822895,18.656805,-1.8016937
1.0387576,-0.49851963,0.10919596,4.1464753,18.065098,-1.7445523
1.0058508,-0.48272702,0.10573674,4.015119,17.492813,-1.6892866
0.9740208,-0.46745118,0.102390714,3.8880608,16.939255,-1.6358293
0.94322914,-0.4526737,0.09915385,3.7651482,16.403757,-1.584116
0.9134393,-0.43837696,0.096022286,3.6462338,15.885678,-1.534085
0.88461596,-0.4245441,0.09299233,3.531178,15.38441,-1.4856775
0.85672545,-0.41115892,0.090060435,3.4198458,14.899365,-1.4388365
0.8297356,-0.39820594,0.08722321,3.3121083,14.429982,-1.393508
0.8036152,-0.38567027,0.08447739,3.207842,13.975721,-1.3496399
0.7783346,-0.37353763,0.08181985,3.1069279,13.536065,-1.3071822
0.75386524,-0.36179432,0.07924759,3.0092518,13.110517,-1.2660868
0.73017955,-0.35042712,0.076757714,2.9147043,12.698597,-1.2263076
0.7072512,-0.33942336,0.074347444,2.8231797,12.2998495,-1.1878004
0.6850548,-0.32877088,0.072014116,2.734577,11.91383,-1.1505224
0.6635658,-0.3184579,0.06975516,2.648798,11.540113,-1.1144325
0.64276075,-0.30847317,0.06756809,2.5657492,11.178291,-1.0794913
0.62261695,-0.29880577,0.06545055,2.4853399,10.82797,-1.0456605
0.60311264,-0.28944525,0.06340022,2.407483,10.488769,-1.0129038
0.58422667,-0.28038153,0.061414897,2.332095,10.160322,-0.98118556
0.5659389,-0.27160487,0.05949245,2.2590942,9.842278,-0.9504719
0.54822963,-0.26310587,0.057630826,2.1884031,9.534295,-0.92072994
0.53108007,-0.25487548,0.05582804,2.1199462,9.236047,-0.89192796
0.51447207,-0.24690498,0.054082174,2.053651,8.947215,-0.8640355
0.49838802,-0.23918593,0.052391395,1.9894474,8.667497,-0.83702296
0.482811,-0.23171023,0.05075391,1.9272674,8.396596,-0.81086195
0.46772462,-0.22446997,0.049168006,1.8670462,8.134228,-0.78552496
0.4531131,-0.21745764,0.047632016,1.8087205,7.880118,-0.7609855
0.43896118,-0.21066585,0.04614434,1.7522293,7.634001,-0.7372179
0.4252541,-0.20408757,0.04470343,1.6975139,7.3956203,-0.71419746
0.41197765,-0.19771595,0.04330779,1.6445175,7.1647286,-0.69190013
0.39911807,-0.19154438,0.041955967,1.593185,6.9410863,-0.6703029
0.386662,-0.18556648,0.040646564,1.5434633,6.7244625,-0.6493835
0.37459663,-0.17977607,0.039378233,1.4953012,6.514633,-0.62912023
0.36290953,-0.17416722,0.038149662,1.4486492,6.311382,-0.6094922
0.35158867,-0.16873412,0.036959596,1.403459,6.1145,-0.59047925
0.34062243,-0.1634712,0.035806805,1.3596842,5.923785,-0.5720619
0.32999957,-0.15837309,0.034690112,1.3172803,5.7390423,-0.55422115
0.31970918,-0.15343454,0.03360837,1.2762036,5.560082,-0.5369389
0.3097408,-0.14865053,0.03256048,1.2364122,5.3867216,-0.52019745
0.30008426,-0.14401616,0.031545363,1.1978655,5.2187834,-0.5039796
0.29072964,-0.13952671,0.030561993,1.1605241,5.056097,-0.48826894
0.2816675,-0.13517761,0.029609364,1.1243501,4.8984966,-0.4730494
0.27288857,-0.13096444,0.028686509,1.0893067,4.745822,-0.45830554
0.26438394,-0.12688291,0.027792487,1.0553583,4.597917,-0.44402236
0.256145,-0.12292887,0.026926395,1.0224704,4.454633,-0.43018535
0.24816336,-0.119098336,0.026087351,0.99060947,4.315824,-0.41678053
0.24043094,-0.1153874,0.025274508,0.95974356,4.1813493,-0.40379423
0.23293993,-0.111792326,0.02448704,0.9298412,4.0510726,-0.3912134
0.22568275,-0.10830946,0.023724152,0.90087223,3.9248624,-0.37902522
0.21865204,-0.10493529,0.022985073,0.8728073,3.802591,-0.36721745
0.21184072,-0.101666406,0.022269055,0.8456181,3.684135,-0.3557781
0.2052419,-0.09849951,0.021575376,0.81927717,3.5693743,-0.34469563
0.19884892,-0.095431395,0.020903336,0.7937579,3.4581938,-0.3339589
0.19265534,-0.09245898,0.020252256,0.7690346,3.3504808,-0.32355702
0.18665491,-0.08957926,0.01962148,0.7450823,3.2461271,-0.31347954
0.1808416,-0.08678934,0.019010374,0.721877,3.1450274,-0.3037163
0.17520954,-0.0840864,0.018418323,0.69939506,3.0470798,-0.29425746
0.16975306,-0.08146773,0.01784473,0.6776141,2.9521859,-0.28509355
0.16446666,-0.0789307,0.017289015,0.6565121,2.86025,-0.27621526
0.15934506,-0.07647274,0.016750623,0.63606787,2.7711797,-0.2676137
0.15438308,-0.07409139,0.016229011,0.61626077,2.6848855,-0.25928026
0.14957574,-0.07178425,0.015723655,0.59707105,2.601281,-0.25120652
0.1449182,-0.06954902,0.015234047,0.57847923,2.5202813,-0.24338439
0.1404058,-0.06738342,0.014759696,0.5604668,2.4418058,-0.23580599
0.136034,-0.06528532,0.014300124,0.5430156,2.3657756,-0.22846371
0.1317984,-0.063252576,0.0138548715,0.5261081,2.292114,-0.2213502
0.12769477,-0.06128316,0.01342349,0.50972736,2.2207475,-0.2144583
0.12371897,-0.059375096,0.013005547,0.4938569,2.1516042,-0.2077811
0.11986703,-0.057526477,0.012600625,0.47848085,2.0846148,-0.20131192
0.11613507,-0.05573544,0.012208315,0.46358377,2.019712,-0.19504425
0.11251935,-0.054000188,0.011828225,0.44915068,1.956831,-0.1889718
0.109016255,-0.052318983,0.011459974,0.43516716,1.8959084,-0.18308848
0.10562227,-0.050690144,0.011103191,0.42161915,1.8368833,-0.17738841
0.102333985,-0.049112033,0.010757522,0.4084931,1.7796966,-0.17186587
0.09914811,-0.04758307,0.010422617,0.39577582,1.7242908,-0.16651532
0.096061446,-0.046101723,0.010098142,0.38345462,1.6706105,-0.1613314
0.09307091,-0.044666506,0.009783772,0.3715171,1.6186019,-0.1563089
0.0901735,-0.043275986,0.009479191,0.35995132,1.5682129,-0.15144283
0.08736631,-0.041928764,0.009184095,0.3487457,1.519393,-0.14672826
0.084646545,-0.040623493,0.008898188,0.33788902,1.4720932,-0.14216052
0.08201146,-0.039358865,0.008621183,0.32737038,1.4262663,-0.137735
0.07945842,-0.038133617,0.008352804,0.31717926,1.3818663,-0.13344727
0.07698489,-0.036946516,0.0080927815,0.30730549,1.3388488,-0.12929307
0.074588366,-0.03579638,0.007840855,0.29773912,1.2971708,-0.1252682
0.07226646,-0.034682054,0.007596772,0.28847063,1.2567904,-0.121368654
0.070016846,-0.03360242,0.007360289,0.2794907,1.2176672,-0.11759052
0.06783727,-0.032556403,0.0071311686,0.27079037,1.1797621,-0.11393001
0.06572556,-0.03154295,0.006909182,0.2623609,1.1430372,-0.110383466
0.06367959,-0.03056105,0.006694106,0.25419387,1.1074556,-0.10694735
0.06169732,-0.029609721,0.006485726,0.24628112,1.0729818,-0.1036182
0.05977676,-0.02868801,0.006283834,0.23861471,1.0395813,-0.1003927
0.057915993,-0.027794993,0.0060882275,0.23118697,1.0072206,-0.09726762
0.056113157,-0.026929777,0.0058987103,0.22399049,0.9758674,-0.09423983
0.054366447,-0.026091497,0.005715093,0.21701802,0.94549024,-0.0913063
0.052674115,-0.025279315,0.0055371923,0.21026263,0.9160588,-0.08846409
0.05103447,-0.024492417,0.0053648297,0.20371754,0.88754356,-0.08571037
0.049445864,-0.023730014,0.005197833,0.1973762,0.85991603,-0.08304237
0.04790671,-0.022991346,0.0050360346,0.19123228,0.83314854,-0.08045743
0.046415474,-0.022275673,0.0048792735,0.18527962,0.8072144,-0.07795295
0.04497066,-0.02158228,0.004727392,0.17951226,0.78208756,-0.075526446
0.043570824,-0.020910472,0.004580239,0.17392445,0.7577429,-0.073175475
0.042214565,-0.020259576,0.0044376664,0.16851057,0.7341561,-0.07089769
0.040900525,-0.019628944,0.0042995326,0.16326524,0.71130353,-0.068690814
0.03962739,-0.019017942,0.0041656983,0.15818319,0.6891624,-0.06655263
0.03839389,-0.01842596,0.0040360303,0.15325934,0.6677104,-0.06448101
0.037198782,-0.017852405,0.003910399,0.14848875,0.6469263,-0.062473882
0.03604088,-0.017296705,0.0037886782,0.14386667,0.62678915,-0.06052923
