ax,ay,az,gx,gy,gz
-1.4527406,1.100919,-2.0009272,60.369637,-84.6735,-85.06168
-0.3341197,-0.09640385,-0.39526823,60.54134,-82.65828,-86.67134
1.8876846,-1.2218603,2.8361545,75.29698,-47.40531,-85.743744
3.7602954,-1.4931413,6.0568056,109.93726,-13.208057,-87.28536
4.7584176,-0.7311105,8.299445,108.47753,11.026686,-81.62433
5.4105444,-0.32895172,9.814762,103.56554,31.090073,-75.45961
6.051312,0.011731356,10.797474,99.40311,51.480076,-71.64985
6.6385083,0.1864404,11.272807,94.91909,73.23644,-66.496315
6.9740405,0.34356138,11.096996,86.27886,93.61695,-59.644863
6.910469,0.31151685,10.320437,80.54244,111.56849,-52.82271
6.566706,0.41593695,9.208275,76.502556,125.30621,-47.639427
6.0903907,0.6212454,7.9590306,71.51544,134.6345,-44.891792
5.6044707,0.8215616,6.660012,64.82817,140.51172,-43.925404
5.0788493,1.003121,5.310048,59.15489,142.6188,-44.284298
4.41468,1.2096126,3.8267925,53.92007,140.35927,-45.282986
3.8011734,1.3809661,2.487494,49.765724,135.31389,-46.99827
3.2886946,1.5228825,1.2602103,45.59644,128.22778,-48.891968
2.8828113,1.6383328,0.15150522,41.589993,119.66036,-51.08375
2.599497,1.7132977,-0.82169247,37.727985,109.657936,-53.767517
2.370913,1.7172977,-1.686118,33.624573,98.53187,-56.23631
2.154796,1.7155085,-2.478486,28.31172,86.251465,-58.504658
1.9853712,1.6336964,-3.1459792,22.867435,73.26159,-60.473083
1.8693047,1.5069131,-3.661514,19.317757,60.833183,-62.181595
1.7735159,1.4036375,-4.0887427,17.257679,48.57178,-63.910614
1.6949304,1.3471267,-4.4105806,14.947676,36.486553,-65.04977
1.6173552,1.3001862,-4.5919704,12.73959,25.21435,-65.82783
1.5408831,1.250693,-4.6689677,9.469963,14.067192,-66.455734
1.5204715,1.120505,-4.5772257,5.9137354,3.7663941,-66.238686
1.5667018,0.95580685,-4.3506565,2.399819,-4.7515326,-64.57161
1.6785133,0.789446,-3.9986036,-1.6323642,-12.2556305,-62.402836
1.8545468,0.6224012,-3.545458,-5.6951113,-18.325293,-59.494896
2.0754256,0.444248,-3.0291355,-9.255646,-23.249393,-56.84563
2.3811264,0.19418895,-2.3542616,-11.11538,-25.721573,-54.16026
2.759836,-0.0014607251,-1.5936306,-12.983837,-24.861946,-51.29016
3.130796,-0.12497751,-0.8837379,-14.887855,-22.602247,-49.281715
3.4455132,-0.25821748,-0.22751273,-16.24653,-19.414536,-47.585514
3.7446685,-0.36085913,0.39842886,-17.241089,-15.048984,-45.891922
4.0335627,-0.45519006,0.965077,-17.655123,-8.943825,-44.04458
4.270525,-0.5273164,1.3647636,-18.040213,-1.4883064,-42.265873
4.404812,-0.62771434,1.5545851,-18.119295,6.375168,-40.15797
4.44975,-0.7349296,1.5918558,-18.263239,14.033417,-37.44443
4.3950195,-0.85445446,1.5011071,-18.06569,20.866693,-34.058548
4.283645,-0.9700791,1.3350741,-17.43412,26.525211,-29.860964
4.1722383,-1.0303888,1.1360757,-16.905306,31.109266,-24.810133
4.0501466,-0.9452529,0.9147622,-16.935257,35.292778,-21.004374
3.8723264,-0.8788023,0.67412734,-15.714726,39.45784,-18.789783
3.6314628,-0.8048759,0.38743338,-14.173737,42.958145,-17.094229
3.3522968,-0.71357936,0.07431356,-12.864905,45.089577,-15.431942
3.0719285,-0.6019687,-0.23755844,-11.787424,45.41891,-13.861148
2.830836,-0.46638554,-0.5138953,-10.361385,45.025417,-12.813832
2.6190004,-0.35318378,-0.7906312,-8.933258,44.103806,-11.879355
2.4315243,-0.26776287,-1.0616885,-7.0151596,42.537582,-11.142663
2.2492707,-0.17633538,-1.347063,-5.247481,40.119453,-10.613404
2.174454,-0.17046998,-1.302256,-5.0729356,38.784973,-10.260374
2.1024194,-0.16482271,-1.2591153,-4.904881,37.50012,-9.920471
2.0330365,-0.15938334,-1.2175628,-4.7430134,36.26256,-9.593082
1.9661835,-0.15414229,-1.1775253,-4.5870476,35.07013,-9.27763
1.9017462,-0.1490906,-1.1389344,-4.4367166,33.92078,-8.973576
1.839617,-0.14421988,-1.1017259,-4.2917714,32.812603,-8.680413
1.7796955,-0.13952224,-1.0658396,-4.151976,31.743805,-8.397668
1.721887,-0.13499023,-1.0312188,-4.017111,30.712694,-8.124892
1.666102,-0.13061689,-0.99780977,-3.886966,29.717678,-7.8616657
1.6122566,-0.12639558,-0.9655624,-3.7613463,28.757257,-7.607591
1.5602713,-0.1223201,-0.9344289,-3.640066,27.830011,-7.362293
1.5100706,-0.11838453,-0.9043643,-3.5229495,26.9346,-7.1254163
1.4615836,-0.11458331,-0.875326,-3.4098308,26.069756,-6.8966255
1.4147428,-0.110911146,-0.8472735,-3.3005524,25.234272,-6.6756024
1.3694841,-0.107363015,-0.8201686,-3.1949651,24.427008,-6.4620447
1.3257467,-0.10393415,-0.79397476,-3.0929272,23.64688,-6.2556653
1.2834727,-0.10062001,-0.7686574,-2.9943032,22.892853,-6.056192
1.2426072,-0.09741629,-0.7441835,-2.8989654,22.16395,-5.8633637
1.2030978,-0.09431888,-0.72052175,-2.806791,21.459234,-5.6769347
1.1648943,-0.09132386,-0.69764215,-2.7176635,20.777813,-5.4966683
1.1279492,-0.088427484,-0.6755161,-2.6314719,20.118835,-5.322339
1.092217,-0.08562619,-0.65411645,-2.5481093,19.481491,-5.153733
1.0576539,-0.08291656,-0.633417,-2.4674747,18.865002,-4.9906435
1.0242183,-0.08029533,-0.6133929,-2.3894708,18.268623,-4.832875
0.9918706,-0.07775937,-0.5940201,-2.3140044,17.691648,-4.6802387
0.9605724,-0.07530569,-0.575276,-2.2409866,17.133392,-4.532555
0.9302871,-0.07293143,-0.5571385,-2.170332,16.593206,-4.389651
0.90097976,-0.07063383,-0.53958666,-2.1019588,16.070461,-4.2513614
0.8726166,-0.068410255,-0.5226003,-2.0357883,15.564557,-4.117527
0.8451653,-0.06625816,-0.50616,-1.9717454,15.074918,-3.9879954
0.81859493,-0.06417513,-0.4902473,-1.9097574,14.600991,-3.8626204
0.7928755,-0.062158816,-0.47484425,-1.8497548,14.142242,-3.7412608
0.7679784,-0.06020697,-0.45993367,-1.7916707,13.698163,-3.6237817
0.74387616,-0.058317427,-0.44549906,-1.7354407,13.268258,-3.5100524
0.7205421,-0.05648811,-0.43152454,-1.681003,12.852056,-3.3999481
0.6979506,-0.054717015,-0.41799477,-1.6282978,12.4491005,-3.2933483
0.6760772,-0.053002212,-0.40489504,-1.5772678,12.058952,-3.1901364
0.6548981,-0.051341847,-0.39221114,-1.5278577,11.681189,-3.090201
0.6343906,-0.04973412,-0.3799294,-1.4800142,11.315402,-2.9934342
0.61453253,-0.048177313,-0.3680366,-1.4336859,10.961201,-2.8997319
0.5953027,-0.04666976,-0.3565201,-1.3888233,10.618205,-2.808994
0.5766806,-0.04520985,-0.34536755,-1.3453786,10.28605,-2.721124
0.55864656,-0.043796044,-0.33456716,-1.3033057,9.964383,-2.6360288
0.5411815,-0.04242684,-0.32410753,-1.2625602,9.652864,-2.553618
0.52426696,-0.041100793,-0.3139776,-1.2230991,9.351166,-2.473805
0.5078852,-0.039816517,-0.30416673,-1.184881,9.05897,-2.396506
0.4920191,-0.03857267,-0.2946647,-1.1478658,8.775972,-2.3216403
0.47665203,-0.03736794,-0.28546154,-1.1120149,8.501875,-2.2491293
0.46176803,-0.036201086,-0.27654767,-1.0772909,8.236395,-2.1788976
0.4473516,-0.035070885,-0.26791385,-1.0436579,7.979254,-2.1108723
0.43338782,-0.03397617,-0.2595511,-1.0110809,7.730187,-2.044983
0.41986224,-0.032915812,-0.25145078,-0.97952604,7.488936,-1.9811611
0.4067609,-0.03188871,-0.24360454,-0.948961,7.255252,-1.9193412
0.3940703,-0.030893806,-0.23600428,-0.9193542,7.028894,-1.8594594
0.3817774,-0.029930083,-0.2286422,-0.8906752,6.8096294,-1.8014541
0.36986956,-0.028996548,-0.22151071,-0.86289454,6.5972333,-1.7452657
0.35833457,-0.028092243,-0.21460254,-0.83598375,6.391488,-1.6908367
0.34716064,-0.027216243,-0.2079106,-0.8099153,6.1921825,-1.6381115
0.3363363,-0.026367655,-0.20142804,-0.78466254,5.999113,-1.5870359
0.3258506,-0.025545608,-0.19514827,-0.7601997,5.8120832,-1.5375581
0.31569278,-0.02474927,-0.18906486,-0.7365018,5.630902,-1.4896274
0.30585253,-0.023977825,-0.18317164,-0.7135448,5.4553843,-1.4431951
0.2963198,-0.023230491,-0.17746261,-0.6913052,5.2853527,-1.398214
0.28708494,-0.022506509,-0.17193194,-0.6697606,5.1206336,-1.3546385
0.27813855,-0.021805143,-0.16657406,-0.64888895,4.96106,-1.3124241
0.2694716,-0.02112568,-0.16138351,-0.62866914,4.8064704,-1.2715281
0.26107526,-0.020467434,-0.15635502,-0.60908073,4.656708,-1.2319092
0.25294104,-0.019829739,-0.15148354,-0.59010386,4.5116205,-1.193527
0.24506071,-0.019211948,-0.1467641,-0.5717193,4.3710623,-1.156343
0.23742633,-0.018613437,-0.14219196,-0.5539085,4.23489,-1.1203194
0.23003016,-0.018033603,-0.13776247,-0.53665346,4.1029673,-1.0854199
0.22286473,-0.017471857,-0.13347119,-0.51993674,3.9751601,-1.0516092
0.21592283,-0.016927635,-0.12931375,-0.5037415,3.85134,-1.0188531
0.20919745,-0.016400388,-0.125286,-0.48805138,3.7313817,-0.98711866
0.20268181,-0.015889583,-0.12138385,-0.4728506,3.6151645,-0.956374
0.19636934,-0.015394706,-0.11760339,-0.45812377,3.502571,-0.92658794
0.19025369,-0.014915259,-0.11394079,-0.44385615,3.3934884,-0.89773065
0.18432869,-0.014450759,-0.110392384,-0.4300333,3.2878063,-0.869773
0.17858839,-0.014000739,-0.10695458,-0.41664138,3.1854186,-0.84268683
0.17302702,-0.013564746,-0.10362394,-0.40366685,3.0862224,-0.816445
0.16763899,-0.013142342,-0.10039711,-0.39109674,2.990118,-0.791021
0.16241887,-0.012733102,-0.09727084,-0.37891835,2.8970087,-0.76638937
0.15736143,-0.012336615,-0.09424199,-0.3671195,2.8068006,-0.74252534
0.15246157,-0.011952482,-0.09130752,-0.35568827,2.7194037,-0.7194049
0.14771439,-0.011580319,-0.08846449,-0.34461325,2.6347299,-0.6970048
0.14311512,-0.011219751,-0.085710034,-0.33388326,2.552694,-0.6753027
0.13865912,-0.010870416,-0.08304139,-0.32348758,2.4732141,-0.65427667
0.13434196,-0.010531964,-0.080455884,-0.31341574,2.3962102,-0.63390565
0.13015926,-0.010204055,-0.07795092,-0.30365765,2.3216052,-0.61416924
0.12610686,-0.009886361,-0.07552398,-0.29420352,2.2493238,-0.5950476
0.122180685,-0.009578561,-0.073172644,-0.2850439,2.179294,-0.5765216
0.11837681,-0.009280349,-0.07089454,-0.27616954,2.1114457,-0.55857253
0.11469139,-0.008991426,-0.06868739,-0.26757157,2.04571,-0.5411826
0.11112077,-0.0087115,-0.06654897,-0.2592414,1.9820222,-0.5243342
0.10766134,-0.008440292,-0.06447717,-0.25117067,1.9203175,-0.50801057
0.10430965,-0.008177531,-0.062469874,-0.24335127,1.8605345,-0.49219528
0.10106233,-0.007922952,-0.060525093,-0.23577538,1.8026134,-0.4768725
0.09791613,-0.007676301,-0.058640875,-0.22843541,1.7464958,-0.4620269
0.094867915,-0.0074373307,-0.05681533,-0.221324,1.6921258,-0.44764355
0.09191462,-0.0072058016,-0.05504663,-0.21443404,1.6394488,-0.4337081
0.08905327,-0.006981482,-0.053333003,-0.20775862,1.588412,-0.42020658
0.086281024,-0.0067641465,-0.051672738,-0.20129104,1.5389644,-0.40712547
0.0835951,-0.0065535787,-0.050064165,-0.19502486,1.4910564,-0.39445165
0.0809928,-0.0063495673,-0.04850568,-0.18895377,1.4446402,-0.38217247
0.07847153,-0.0061519076,-0.046995714,-0.18307172,1.3996692,-0.3702756
0.07602875,-0.0059604025,-0.045532767,-0.1773728,1.3560982,-0.35874912
0.073662035,-0.0057748593,-0.044115365,-0.1718513,1.3138839,-0.34758154
0.071369,-0.005595093,-0.042742092,-0.16650173,1.2729838,-0.33676162
0.069147356,-0.0054209237,-0.041411575,-0.1613187,1.2333572,-0.32627857
0.06699488,-0.005252177,-0.040122483,-0.15629704,1.1949642,-0.3161219
0.06490942,-0.005088683,-0.03887352,-0.15143172,1.1577666,-0.30628145
0.06288888,-0.00493028,-0.037663445,-0.14671788,1.1217269,-0.29674736
0.060931247,-0.004776808,-0.036491036,-0.14215077,1.0868093,-0.28751007
0.059034556,-0.004628114,-0.035355132,-0.13772584,1.0529788,-0.27856034
0.057196915,-0.0044840486,-0.03425459,-0.13343868,1.0202013,-0.26988924
0.05541648,-0.0043444685,-0.033188306,-0.12928498,0.9884443,-0.26148808
0.05369147,-0.0042092334,-0.03215522,-0.12526059,0.95767593,-0.25334847
0.052020162,-0.0040782085,-0.03115429,-0.12136148,0.9278654,-0.24546224
0.050400883,-0.003951262,-0.030184522,-0.11758375,0.8989829,-0.2378215
0.048832014,-0.003828268,-0.029244943,-0.113923624,0.8709995,-0.23041864
0.04731198,-0.0037091025,-0.028334614,-0.11037743,0.8438872,-0.22324622
0.04583927,-0.0035936467,-0.027452622,-0.10694163,0.81761897,-0.21629708
0.044412397,-0.003481785,-0.026598087,-0.103612795,0.7921684,-0.20956425
0.04302995,-0.0033734054,-0.025770152,-0.10038757,0.7675101,-0.20304102
0.041690532,-0.0032683995,-0.02496799,-0.097262755,0.7436194,-0.19672085
0.04039281,-0.0031666625,-0.0241908,-0.09423521,0.7204724,-0.19059743
0.039135486,-0.0030680923,-0.023437802,-0.09130191,0.6980459,-0.18466462
