ax,ay,az,gx,gy,gz
2.8709352,4.389131,7.521887,-88.00262,-152.0341,115.08013
5.5158343,4.6963897,9.065694,-125.60938,-122.606026,91.743195
7.0486636,3.6795838,11.118543,-103.636566,-77.85561,71.79927
7.579244,2.9932451,12.501328,-80.8206,-43.8392,63.351627
7.616092,2.4535596,13.304306,-60.611027,-19.016056,56.716633
7.6385837,1.766353,13.770441,-38.075768,6.1807847,52.148674
7.4041424,1.266329,13.603244,-16.281347,26.650188,46.15175
6.9974704,0.896705,13.0959015,2.8534307,43.99492,37.782574
6.503983,0.59150356,12.27296,17.114187,58.735565,30.440128
6.110051,0.43029302,11.284513,25.816462,70.91403,25.31847
5.750377,0.26292986,10.340426,32.437656,82.57428,22.825924
5.3138924,0.19944102,9.344028,39.218544,92.59206,21.138103
4.8410797,0.3315199,8.293446,43.453133,99.799255,19.286974
4.380651,0.5476911,7.26311,46.175194,104.36247,16.51025
3.9356506,0.8239184,6.1008053,47.85567,104.962776,12.952647
3.576963,1.1247674,4.9902997,47.29194,102.35481,9.264678
3.3163443,1.3252549,4.001523,45.1233,97.93864,6.1337495
3.14968,1.4573654,3.120713,42.40445,92.641556,3.7178273
2.9628477,1.6587154,2.2804537,38.64046,86.71835,1.3642278
2.7673812,1.8966597,1.5537004,34.30573,80.24969,-1.4903133
2.5641892,2.1256423,0.91943,29.871326,73.46127,-4.250442
2.3621023,2.3446035,0.3609197,25.01757,66.00024,-6.9090233
2.1821475,2.5330632,-0.096636444,20.12419,58.45626,-9.385916
1.9958079,2.694584,-0.51708436,14.853596,50.612343,-12.313822
1.8511091,2.817231,-0.86240804,9.623758,42.60364,-15.614345
1.7420512,2.8934605,-1.1163075,4.005171,34.936317,-18.88513
1.6351545,2.893755,-1.2836595,-1.6633927,27.110992,-22.088444
1.5522482,2.80453,-1.3551774,-6.9131923,19.408028,-25.290043
1.5523667,2.617007,-1.2926841,-11.643624,11.217962,-28.369627
1.6736462,2.3312418,-1.0321286,-15.706471,4.6807423,-30.90485
1.8508753,1.9550602,-0.6465504,-18.903269,-0.13385539,-32.797268
2.0456183,1.514517,-0.19386187,-21.35022,-3.6151793,-34.338642
2.249859,1.0335679,0.2821384,-22.652643,-5.6884427,-35.026012
2.4732475,0.5559657,0.7999051,-23.164597,-6.267589,-35.105686
2.7038798,0.096352786,1.31797,-22.630009,-5.1400647,-34.384724
2.919067,-0.29357094,1.7981759,-21.381935,-2.2682576,-32.885086
3.08049,-0.5747586,2.1683366,-19.656746,1.831998,-30.874863
3.1595874,-0.7632321,2.4111643,-17.669899,6.533072,-28.589674
3.1774142,-0.8863897,2.5328462,-15.318586,11.271733,-26.306215
3.1912208,-0.96857524,2.5940263,-12.8368845,16.338621,-23.855719
3.1938198,-1.0050497,2.585698,-10.438518,21.815247,-21.279408
3.1609683,-1.0076306,2.510272,-8.386998,27.498001,-18.762392
3.0989172,-0.98097384,2.353621,-6.2981734,33.24626,-16.421825
2.9801648,-0.89674896,2.060149,-4.0481606,38.157272,-14.060159
2.7905939,-0.7789446,1.6857388,-1.413425,41.147705,-11.826954
2.5981631,-0.6492947,1.3386658,1.428993,42.837776,-9.7913065
2.4249218,-0.50038266,1.0135026,4.516515,43.712353,-7.9470735
2.26249,-0.33124685,0.6879302,7.1583567,43.848022,-6.408024
2.1083326,-0.19383807,0.39168653,10.481047,43.738953,-4.7765727
2.0368505,-0.1872661,0.37840658,10.125691,42.256004,-4.6146255
1.9681531,-0.18095012,0.36564395,9.78418,40.830822,-4.4589868
1.9020983,-0.1748771,0.35337228,9.455805,39.46047,-4.309335
1.8385546,-0.16903496,0.34156713,9.139914,38.142204,-4.1653724
1.7773993,-0.1634124,0.33020568,8.835896,36.873493,-4.026821
1.7185183,-0.15799893,0.31926674,8.543183,35.651962,-3.893422
1.6618048,-0.15278475,0.30873048,8.261246,34.475395,-3.7649333
1.6071591,-0.14776067,0.2985784,7.9895887,33.341732,-3.64113
1.554488,-0.14291814,0.28879315,7.727747,32.249027,-3.5217998
1.5037036,-0.13824907,0.27935842,7.4752855,31.195467,-3.4067442
1.4547237,-0.13374591,0.27025893,7.2317944,30.179344,-3.295777
1.407471,-0.12940153,0.2614803,6.996889,29.199049,-3.1887226
1.3618724,-0.12520924,0.253009,6.7702074,28.253073,-3.0854158
1.3178592,-0.12116271,0.24483219,6.5514064,27.339985,-2.9857008
1.2753662,-0.117255956,0.23693785,6.3401637,26.458437,-2.8894303
1.2343322,-0.11348333,0.22931454,6.1361732,25.607155,-2.796465
1.1946989,-0.109839484,0.22195145,5.9391465,24.784933,-2.706673
1.1564112,-0.106319346,0.21483836,5.7488084,23.990625,-2.6199296
1.1194167,-0.10291811,0.20796551,5.5649,23.223146,-2.536116
1.0836657,-0.0996312,0.20132369,5.3871727,22.481466,-2.4551196
1.049111,-0.09645427,0.1949041,5.2153926,21.764603,-2.3768334
1.0157076,-0.093383186,0.1886984,5.0493355,21.07162,-2.3011556
0.9834125,-0.09041401,0.18269862,4.8887887,20.401636,-2.227989
0.95218503,-0.08754299,0.17689717,4.733549,19.7538,-2.1572409
0.9219861,-0.08476652,0.1712868,4.5834227,19.127298,-2.088823
0.8927785,-0.082081206,0.16586061,4.438225,18.521366,-2.0226514
0.8645266,-0.079483755,0.16061196,4.2977777,17.935259,-1.9586447
0.83719647,-0.07697105,0.15553455,4.1619124,17.368273,-1.8967264
0.8107554,-0.07454008,0.15062232,4.030467,16.819733,-1.8368223
0.7851722,-0.07218798,0.14586948,3.903287,16.288992,-1.7788619
0.76041704,-0.06991202,0.14127046,3.7802227,15.775426,-1.7227772
0.73646116,-0.067709535,0.13681993,3.661132,15.278444,-1.6685036
0.7132771,-0.06557802,0.1325128,3.5458784,14.797473,-1.6159786
0.69083846,-0.06351503,0.12834413,3.4343302,14.331965,-1.5651422
0.6691198,-0.061518233,0.124309234,3.3263612,13.881395,-1.515937
0.64809674,-0.059585396,0.120403565,3.2218504,13.445256,-1.4683079
0.62774587,-0.057714354,0.116622776,3.1206813,13.023063,-1.4222015
0.6080446,-0.055903044,0.11296268,3.0227413,12.614346,-1.377567
0.5889713,-0.05414946,0.109419234,2.9279232,12.218656,-1.3343551
0.5705051,-0.052451693,0.10598856,2.836123,11.835559,-1.2925186
0.5526257,-0.050807882,0.10266694,2.7472403,11.464639,-1.2520118
0.53531396,-0.049216256,0.09945075,2.661179,11.105493,-1.2127907
0.51855105,-0.04767509,0.09633654,2.5778468,10.757734,-1.1748133
0.5023191,-0.046182737,0.09332096,2.4971533,10.420989,-1.1380385
0.4866006,-0.044737596,0.09040078,2.419013,10.094897,-1.1024272
0.47137895,-0.04333813,0.087572895,2.3433423,9.779113,-1.0679415
0.45663792,-0.041982856,0.0848343,2.270061,9.473299,-1.0345447
0.44236195,-0.040670335,0.08218211,2.1990914,9.177133,-1.0022016
0.428536,-0.03939919,0.07961352,2.1303594,8.890304,-0.9708779
0.41514555,-0.038168088,0.07712584,2.063792,8.612509,-0.9405409
0.4021766,-0.03697573,0.07471646,1.99932,8.343457,-0.9111588
0.38961554,-0.035820883,0.07238287,1.9368759,8.082869,-0.88270086
0.37744933,-0.034702335,0.07012263,1.8763947,7.830472,-0.8551375
0.36566535,-0.033618923,0.067933396,1.8178136,7.5860043,-0.8284401
0.35425135,-0.03256953,0.0658129,1.7610718,7.349212,-0.8025809
0.34319556,-0.03155307,0.063758954,1.7061106,7.119851,-0.7775332
0.3324865,-0.030568492,0.061769422,1.6528733,6.897684,-0.7532711
0.32211322,-0.029614782,0.05984227,1.601305,6.6824822,-0.7297697
0.31206498,-0.028690957,0.057975505,1.5513527,6.474024,-0.7070047
0.3023315,-0.02779607,0.05616722,1.5029652,6.2720957,-0.68495286
0.2929028,-0.026929203,0.05441555,1.4560928,6.07649,-0.6635915
0.28376922,-0.02608947,0.052718714,1.4106876,5.8870068,-0.64289874
0.27492142,-0.025276015,0.05107497,1.3667029,5.703453,-0.62285346
0.2663504,-0.024488002,0.04948264,1.3240943,5.5256405,-0.6034352
0.2580474,-0.023724632,0.04794011,1.282818,5.3533883,-0.5846242
0.25000396,-0.022985127,0.046445794,1.2428321,5.186521,-0.56640124
0.24221191,-0.022268733,0.044998188,1.2040958,5.0248694,-0.5487478
0.23466332,-0.021574723,0.04359581,1.16657,4.868268,-0.53164595
0.22735055,-0.020902393,0.04223724,1.1302162,4.7165594,-0.51507837
0.22026616,-0.020251062,0.040921103,1.094998,4.569588,-0.4990282
0.213403,-0.019620068,0.03964606,1.0608795,4.4272065,-0.48347923
0.20675409,-0.019008774,0.038410824,1.0278261,4.28927,-0.46841565
0.20031272,-0.01841656,0.037214145,0.9958044,4.1556387,-0.45382228
0.19407237,-0.017842827,0.03605481,0.9647821,4.026178,-0.43968433
0.18802673,-0.017287,0.034931652,0.9347277,3.9007566,-0.42598754
0.18216972,-0.01674851,0.033843532,0.90561104,3.7792485,-0.41271806
0.1764954,-0.016226819,0.032789357,0.87740266,3.6615305,-0.3998625
0.17099807,-0.0157214,0.03176806,0.85007405,3.5474842,-0.38740793
0.16567218,-0.0152317425,0.030778617,0.8235977,3.4369946,-0.37534177
0.16051236,-0.014757354,0.029820025,0.797947,3.3299503,-0.36365184
0.15551342,-0.014297756,0.028891321,0.773096,3.2262437,-0.3523264
0.15067033,-0.013852487,0.02799157,0.7490198,3.12577,-0.34135404
0.14597821,-0.013421098,0.027119868,0.7256941,3.0284286,-0.33072373
0.14143236,-0.013003156,0.026275337,0.7030955,2.9341211,-0.32042477
0.13702817,-0.012598239,0.025457127,0.6812012,2.842753,-0.31044677
0.13276124,-0.0122059425,0.024664415,0.65998924,2.7542324,-0.30077976
0.12862729,-0.01182587,0.023896407,0.63943833,2.6684704,-0.291414
0.124622144,-0.011457641,0.02315233,0.61952776,2.5853806,-0.28234008
0.12074179,-0.011100885,0.022431439,0.60023755,2.5048797,-0.27354887
0.11698234,-0.010755245,0.021733006,0.5815484,2.426887,-0.26503158
0.11334001,-0.010420373,0.021056335,0.56344146,2.3513243,-0.2567796
0.10981116,-0.0100959325,0.020400742,0.5458986,2.2781155,-0.24878475
0.10639223,-0.0097816,0.019765573,0.5289023,2.2071872,-0.24103893
0.10307979,-0.0094770575,0.019150188,0.5124354,2.1384683,-0.23353438
0.09987054,-0.009182002,0.018553972,0.49648133,2.0718899,-0.2262636
0.09676124,-0.008896136,0.017976327,0.48102424,2.007385,-0.21921927
0.093748786,-0.008619174,0.01741667,0.4660486,1.9448894,-0.21239434
0.090830155,-0.008350837,0.016874447,0.45153934,1.8843402,-0.20578198
0.08800241,-0.008090858,0.016349109,0.43748194,1.8256767,-0.19937554
0.08526274,-0.007838975,0.015840132,0.42386234,1.76884,-0.19316863
0.08260838,-0.007594936,0.015347005,0.41066685,1.7137734,-0.187155
0.080036685,-0.0073584965,0.0148692345,0.3978823,1.6604215,-0.18132862
0.07754507,-0.0071294196,0.014406341,0.38549587,1.608731,-0.1756837
0.07513104,-0.006907476,0.013957862,0.37349513,1.5586501,-0.17021455
0.07279217,-0.006692443,0.013523348,0.36186805,1.5101287,-0.1649157
0.07052614,-0.006484106,0.013102363,0.350603,1.4631181,-0.15978184
0.06833066,-0.006282256,0.012694486,0.33968875,1.4175713,-0.15480784
0.06620354,-0.006086691,0.01229931,0.32911432,1.3734425,-0.1499887
0.06414265,-0.005897214,0.011916437,0.3188691,1.3306879,-0.14531961
0.06214593,-0.0057136375,0.011545486,0.3089429,1.2892643,-0.14079589
0.06021137,-0.0055357763,0.011186083,0.29932573,1.2491305,-0.13641302
0.058337044,-0.0053634522,0.01083787,0.290008,1.2102461,-0.13216661
0.056521073,-0.0051964936,0.010500498,0.28098035,1.1725724,-0.1280524
0.05476164,-0.005034733,0.01017363,0.27223375,1.1360716,-0.12406627
0.05305698,-0.0048780083,0.009856938,0.2637595,1.1007072,-0.12020425
0.051405393,-0.0047261626,0.009550106,0.255549,1.0664437,-0.11646246
0.04980522,-0.0045790444,0.009252826,0.24759418,1.033247,-0.112837166
0.048254866,-0.0044365064,0.0089648,0.23988697,1.0010837,-0.10932473
0.046752777,-0.0042984057,0.008685742,0.23241971,0.9699217,-0.10592164
0.045297448,-0.0041646045,0.008415371,0.22518492,0.9397298,-0.1026245
0.043887425,-0.004034968,0.008153416,0.21817534,0.9104778,-0.099429995
0.042521298,-0.0039093676,0.007899617,0.21138398,0.8821365,-0.096334934
0.0411977,-0.0037876773,0.0076537183,0.20480403,0.85467744,-0.09333623
0.039915305,-0.003669775,0.007415475,0.19842893,0.82807314,-0.09043088
0.03867283,-0.003555543,0.0071846475,0.19225228,0.8022971,-0.08761597
0.037469033,-0.0034448672,0.0069610057,0.1862679,0.7773234,-0.08488868
0.036302708,-0.0033376366,0.006744326,0.18046983,0.75312716,-0.082246296
0.035172693,-0.0032337438,0.0065343915,0.17485224,0.7296841,-0.079686165
0.034077853,-0.0031330853,0.006330992,0.16940951,0.7069709,-0.07720573
0.033017095,-0.0030355603,0.0061339242,0.16413622,0.68496466,-0.07480251
0.03198936,-0.002941071,0.0059429905,0.15902707,0.6636434,-0.0724741
