ax,ay,az,gx,gy,gz
3.7627614,6.5473323,5.6464148,-23.692944,-39.673088,-36.787605
4.2202835,5.4341474,6.914096,-12.927675,-20.770172,-42.117554
4.586985,4.3043118,7.20653,3.3016121,-2.736165,-43.161846
4.9167447,3.9791307,7.05413,4.6599,13.174413,-47.955708
5.1466584,3.6292782,7.009513,-4.1114006,28.867804,-52.968964
5.193714,3.0255249,6.835498,-9.269158,44.140404,-54.69784
5.1176815,2.5404627,6.4280834,-13.704386,56.89217,-53.616135
5.1546674,1.9379634,6.083372,-13.186469,69.7999,-50.35296
5.142675,1.4784855,5.62857,-10.990301,81.71485,-46.009525
5.022908,1.1587663,5.1131487,-7.3960733,92.5161,-41.596134
4.806985,0.9769945,4.5541363,-3.0341413,102.42323,-38.131878
4.5375853,0.95674896,3.9556184,-2.2153294,111.07799,-36.13503
4.1791945,1.0250709,3.2691038,-2.3313038,117.14578,-34.608257
3.76808,1.1061444,2.5663376,-3.3018248,119.97605,-33.251896
3.352529,1.1957048,1.8974682,-4.030632,120.150024,-31.729626
2.950566,1.3119277,1.2974223,-4.549055,118.80449,-30.407265
2.5956175,1.4432918,0.7655353,-5.4007273,116.431465,-29.428598
2.245125,1.5586567,0.26448017,-5.432228,113.807724,-28.913345
1.8785026,1.7002232,-0.2733895,-5.90727,110.04773,-29.197927
1.5030329,1.8221595,-0.8243131,-7.1643987,104.531654,-30.21129
1.1340337,1.898562,-1.353155,-8.68819,97.58966,-31.375656
0.79308546,1.9408268,-1.8441203,-10.292965,89.31672,-32.547398
0.49602875,1.9481199,-2.2762544,-11.453094,80.70257,-33.656563
0.22089072,1.9856437,-2.6653326,-12.4061,71.337074,-35.032658
-0.029239254,2.0443683,-3.0190313,-12.96351,61.27054,-36.903877
-0.26837838,2.1284368,-3.328005,-13.593344,50.153122,-39.166813
-0.47368506,2.2465682,-3.5894775,-16.125248,37.231728,-41.805904
-0.5606466,2.3218305,-3.6823003,-19.248137,24.912584,-44.2151
-0.5436946,2.336006,-3.6756124,-22.548462,13.7781725,-45.70166
-0.4752945,2.3192084,-3.5937948,-25.818806,3.737825,-46.94383
-0.3567114,2.25745,-3.4310842,-28.74341,-5.2009563,-48.262985
-0.1613341,2.1268604,-3.1744547,-30.93153,-12.25844,-49.08812
0.13143043,1.9362075,-2.8281376,-32.922817,-17.34933,-49.46611
0.4328562,1.7085215,-2.4751487,-34.576504,-20.749474,-49.914764
0.73791206,1.416383,-2.113471,-35.641968,-23.252615,-50.154617
1.0650753,1.0838453,-1.7199416,-36.387962,-25.249493,-49.601105
1.4365258,0.7706441,-1.2661134,-36.980827,-25.857355,-48.018234
1.8789101,0.5234823,-0.7053871,-37.152145,-24.39376,-46.007042
2.2918692,0.3255413,-0.1622666,-36.760357,-20.54443,-44.079098
2.618735,0.16719183,0.27759248,-36.16385,-15.077434,-42.353485
2.830403,0.017184868,0.5669266,-35.283222,-9.033537,-40.409008
2.9403334,-0.120925285,0.75188035,-34.14456,-2.7411978,-37.923897
2.993519,-0.23045248,0.86212033,-32.665604,3.7958596,-35.15805
3.0101132,-0.28983194,0.8975276,-31.446743,10.496929,-32.146305
2.9792733,-0.30950832,0.8431527,-30.39095,16.946413,-29.408243
2.878906,-0.3208539,0.70209754,-29.708149,22.431984,-26.97588
2.7328033,-0.35899907,0.54525363,-29.175701,26.648453,-24.456322
2.5497968,-0.40591854,0.37622517,-27.701933,30.27708,-21.66649
2.3481696,-0.41164917,0.19926766,-25.421465,33.616894,-18.801046
2.119783,-0.36572045,-0.009627188,-23.055117,36.259926,-16.255663
1.8710852,-0.29190084,-0.22508967,-20.710964,38.005417,-14.212879
1.621819,-0.21753126,-0.42293334,-17.89369,38.893044,-12.689112
1.4012375,-0.15527596,-0.6030336,-15.006118,39.524673,-11.225306
1.1892465,-0.11142655,-0.789736,-11.981404,39.838184,-9.999232
0.9941827,-0.06970471,-0.98599297,-8.6567,39.776096,-9.087685
0.9613733,-0.06740435,-0.95345384,-8.371017,38.463432,-8.787778
0.92976016,-0.06518788,-0.9221011,-8.09575,37.198627,-8.498807
0.89928925,-0.063051485,-0.8918812,-7.8304296,35.97952,-8.220277
0.86990994,-0.060991623,-0.86274385,-7.574613,34.80409,-7.9517245
0.8415745,-0.059004955,-0.8346419,-7.3278866,33.67042,-7.6927147
0.81423825,-0.057088338,-0.8075308,-7.08986,32.57673,-7.4428377
0.78785896,-0.055238817,-0.7813688,-6.860166,31.521322,-7.201708
0.76239675,-0.0534536,-0.7561164,-6.638458,30.50261,-6.9689617
0.7378141,-0.051730048,-0.73173624,-6.4244084,29.519087,-6.7442555
0.7140755,-0.05006567,-0.7081932,-6.2177076,28.569332,-6.5272636
0.69114715,-0.048458107,-0.6854537,-6.0180626,27.651997,-6.3176794
0.6689973,-0.04690512,-0.6634863,-5.825196,26.765804,-6.11521
0.6475955,-0.04540459,-0.64226085,-5.638843,25.909546,-5.91958
0.6269132,-0.043954495,-0.62174886,-5.4587545,25.08207,-5.7305255
0.60692286,-0.042552926,-0.6019232,-5.284692,24.28228,-5.5477967
0.58759856,-0.04119805,-0.5827581,-5.1164284,23.509138,-5.371156
0.56891555,-0.039888132,-0.564229,-4.9537487,22.76165,-5.200377
0.5508501,-0.038621515,-0.54631233,-4.7964463,22.038872,-5.035243
0.5333796,-0.037396617,-0.5289858,-4.644325,21.339901,-4.8755484
0.5164827,-0.03621193,-0.5122281,-4.497197,20.663874,-4.721096
0.50013864,-0.03506601,-0.49601868,-4.354884,20.009968,-4.571697
0.48432782,-0.03395747,-0.4803381,-4.2172136,19.377396,-4.4271727
0.46903136,-0.032884996,-0.46516764,-4.084022,18.765402,-4.2873497
0.4542312,-0.03184732,-0.4504894,-3.9551516,18.173264,-4.152064
0.43991005,-0.030843226,-0.4362862,-3.8304522,17.60029,-4.021156
0.42605132,-0.029871553,-0.42254165,-3.7097793,17.045818,-3.8944752
0.41263905,-0.028931187,-0.4092399,-3.5929942,16.50921,-3.7718759
0.39965802,-0.028021052,-0.39636576,-3.4799638,15.989854,-3.653218
0.38709354,-0.027140124,-0.38390478,-3.3705602,15.487164,-3.5383675
0.37493145,-0.026287409,-0.3718429,-3.2646606,15.000572,-3.4271958
0.36315826,-0.025461959,-0.36016667,-3.162147,14.52954,-3.3195784
0.35176083,-0.024662858,-0.34886315,-3.062906,14.073544,-3.2153964
0.34072673,-0.023889227,-0.33791992,-2.9668279,13.632081,-3.114535
0.33004376,-0.023140218,-0.327325,-2.873808,13.204669,-3.0168839
0.3197004,-0.022415016,-0.3170668,-2.783744,12.790841,-2.9223363
0.30968532,-0.021712834,-0.30713424,-2.6965396,12.39015,-2.83079
0.2999878,-0.021032916,-0.29751658,-2.6120996,12.002164,-2.7421463
0.2905974,-0.02037453,-0.28820354,-2.5303342,11.626465,-2.65631
0.2815041,-0.019736975,-0.27918515,-2.4511554,11.262652,-2.5731893
0.27269816,-0.01911957,-0.27045178,-2.3744793,10.910337,-2.4926956
0.26417032,-0.018521661,-0.26199415,-2.3002243,10.569148,-2.4147437
0.2559115,-0.017942615,-0.25380337,-2.2283118,10.238723,-2.339251
0.24791303,-0.01738182,-0.2458708,-2.1586664,9.918713,-2.2661383
0.2401665,-0.016838692,-0.23818809,-2.0912147,9.608784,-2.1953282
0.23266381,-0.016312659,-0.2307472,-2.025886,9.308609,-2.1267471
0.2253971,-0.01580317,-0.22354035,-1.9626122,9.017877,-2.0603232
0.21835881,-0.015309698,-0.21656004,-1.9013274,8.736283,-1.9959873
0.21154164,-0.014831728,-0.20979902,-1.8419678,8.463535,-1.9336724
0.20493852,-0.014368766,-0.20325029,-1.784472,8.199352,-1.8733141
0.1985426,-0.013920332,-0.19690706,-1.7287805,7.943459,-1.81485
0.19234729,-0.013485963,-0.1907628,-1.6748358,7.695592,-1.7582196
0.18634622,-0.013065212,-0.18481116,-1.6225823,7.455496,-1.7033646
0.1805332,-0.012657647,-0.17904602,-1.5719663,7.2229238,-1.6502286
0.17490228,-0.012262848,-0.17346148,-1.5229359,6.997637,-1.598757
0.16944766,-0.011880411,-0.1680518,-1.4754406,6.779404,-1.5488973
0.16416377,-0.011509945,-0.16281144,-1.429432,6.568002,-1.500598
0.15904523,-0.01115107,-0.15773506,-1.384863,6.363215,-1.4538101
0.15408678,-0.010803421,-0.15281747,-1.3416882,6.1648335,-1.4084857
0.14928341,-0.010466644,-0.14805366,-1.2998633,5.972656,-1.3645786
0.14463018,-0.010140395,-0.14343877,-1.2593461,5.786486,-1.3220443
0.1401224,-0.009824341,-0.13896811,-1.2200952,5.6061344,-1.2808391
0.13575545,-0.009518164,-0.13463715,-1.1820707,5.431418,-1.2409215
0.13152492,-0.009221551,-0.13044147,-1.145234,5.26216,-1.2022508
0.12742653,-0.008934202,-0.12637682,-1.1095479,5.0981874,-1.164788
0.123456106,-0.008655825,-0.12243911,-1.074976,4.9393353,-1.1284949
0.11960963,-0.008386139,-0.11862432,-1.0414833,4.785443,-1.0933348
0.11588322,-0.008124871,-0.11492861,-1.0090362,4.6363535,-1.0592723
0.112273104,-0.007871756,-0.111348234,-0.9776016,4.4919167,-1.0262727
0.10877564,-0.00762654,-0.10787958,-0.9471479,4.3519874,-0.99430287
0.105387285,-0.0073889736,-0.104519136,-0.9176443,4.216423,-0.9633304
0.102104634,-0.0071588187,-0.10126352,-0.8890611,4.085088,-0.9333241
0.09892436,-0.0069358414,-0.098109454,-0.8613694,3.957849,-0.9042537
0.09584327,-0.0067198183,-0.09505375,-0.83454126,3.8345783,-0.87608993
0.09285826,-0.0065105315,-0.092093326,-0.8085497,3.7151513,-0.8488043
0.08996632,-0.00630777,-0.0892252,-0.7833685,3.599448,-0.82236946
0.087164536,-0.0061113294,-0.0864465,-0.7589724,3.487352,-0.7967588
0.08445009,-0.0059210127,-0.08375441,-0.7353368,3.37875,-0.7719464
0.08182025,-0.0057366285,-0.08114624,-0.71243787,3.2735333,-0.74790746
0.07927238,-0.0055579906,-0.07861936,-0.69025266,3.171596,-0.7246177
0.076803915,-0.00538492,-0.07617123,-0.6687588,3.0728357,-0.7020538
0.074412376,-0.005217243,-0.07379939,-0.64793485,2.9771528,-0.68019307
0.07209535,-0.0050547905,-0.071501456,-0.6277597,2.8844514,-0.6590135
0.06985053,-0.0048974,-0.06927512,-0.6082132,2.7946384,-0.63849384
0.067675635,-0.004744913,-0.067118146,-0.5892757,2.7076237,-0.6186135
0.06556851,-0.004597177,-0.06502838,-0.57092816,2.62332,-0.59935254
0.063527025,-0.004454043,-0.06300371,-0.55315226,2.5416424,-0.5806916
0.06154913,-0.004315368,-0.06104211,-0.53593004,2.4625094,-0.562612
0.059632853,-0.0041810125,-0.059141617,-0.5192443,2.3858414,-0.5450955
0.05777626,-0.0040508425,-0.057300318,-0.50307834,2.311561,-0.5281247
0.055977497,-0.0039247265,-0.055516373,-0.48741585,2.2395947,-0.51168245
0.054234758,-0.0038025384,-0.053787988,-0.4722412,2.1698697,-0.4957523
0.052546293,-0.0036841559,-0.052113432,-0.45753914,2.1023161,-0.48031828
0.050910413,-0.0035694602,-0.05049103,-0.44329497,2.0368667,-0.46536496
0.04932548,-0.0034583365,-0.048919152,-0.4294944,1.9734553,-0.4508773
0.047789905,-0.0033506732,-0.047396228,-0.4161236,1.9120187,-0.4368408
0.046302147,-0.0032463628,-0.045920726,-0.40316916,1.8524952,-0.42324144
0.04486072,-0.0031453003,-0.04449117,-0.39061815,1.7948253,-0.41006553
0.043464173,-0.003047385,-0.04310613,-0.37845793,1.7389512,-0.39729992
0.042111117,-0.0029525186,-0.04176422,-0.36667636,1.684817,-0.3849318
0.040800188,-0.0028606062,-0.04046409,-0.35526165,1.6323682,-0.3729488
0.03953008,-0.0027715554,-0.03920444,-0.34420237,1.5815526,-0.36133888
0.038299516,-0.0026852775,-0.037984017,-0.33348742,1.5323192,-0.3500905
0.037107266,-0.002601686,-0.036801588,-0.32310608,1.4846187,-0.3391923
0.03595214,-0.002520697,-0.035655975,-0.31304798,1.4384034,-0.32863346
0.034832977,-0.0024422295,-0.034546033,-0.30330303,1.3936269,-0.31840333
0.033748657,-0.002366205,-0.033470646,-0.29386148,1.3502445,-0.30849174
0.032698095,-0.0022925476,-0.032428738,-0.28471386,1.3082129,-0.29888868
0.03168024,-0.0022211832,-0.03141927,-0.27585107,1.2674897,-0.28958464
0.030694077,-0.0021520408,-0.030441228,-0.2672642,1.2280344,-0.28057024
0.029738614,-0.0020850508,-0.029493637,-0.25894463,1.1898074,-0.2718365
0.028812896,-0.0020201462,-0.028575545,-0.2508841,1.1527706,-0.26337466
0.027916,-0.0019572624,-0.027686035,-0.24307446,1.1168867,-0.25517622
0.027047023,-0.0018963363,-0.026824217,-0.23550798,1.08212,-0.24723303
0.026205098,-0.0018373069,-0.025989229,-0.22817706,1.0484356,-0.23953712
0.025389384,-0.0017801151,-0.025180234,-0.22107434,1.0157998,-0.23208079
0.024599064,-0.0017247036,-0.024396423,-0.21419273,0.98418,-0.22485659
0.023833346,-0.0016710171,-0.023637014,-0.20752536,0.9535445,-0.21785727
0.023091465,-0.0016190021,-0.022901244,-0.20106554,0.92386276,-0.21107584
0.02237268,-0.0015686061,-0.02218838,-0.19480683,0.89510494,-0.20450552
0.021676268,-0.001519779,-0.021497706,-0.18874294,0.8672424,-0.19813973
0.021001538,-0.0014724719,-0.020828534,-0.18286781,0.84024715,-0.1919721
0.02034781,-0.0014266373,-0.020180192,-0.17717558,0.8140923,-0.18599647
0.019714434,-0.0013822296,-0.019552032,-0.17166053,0.7887516,-0.18020687
0.019100772,-0.0013392043,-0.018943425,-0.16631718,0.76419973,-0.17459747
0.018506214,-0.0012975183,-0.018353766,-0.16114014,0.7404122,-0.1691627
