ax,ay,az,gx,gy,gz
3.0536642,0.83091664,2.4536586,28.686625,-69.081535,10.820099
3.1171942,2.0106885,2.9445822,23.742983,-61.030895,1.2154303
3.328482,3.0710964,3.9012885,24.946135,-54.365307,-13.024046
4.2743006,3.9276547,5.3487654,28.461784,-41.429844,-26.391266
5.489263,4.644542,6.7283883,29.963339,-18.876402,-36.67095
6.2580857,5.0240865,7.46161,26.045143,5.3983855,-44.975574
6.6194587,5.011086,7.6546326,21.413054,30.012789,-53.59222
6.7900553,4.6801972,7.413652,19.765318,51.16876,-62.65005
7.063917,4.2046165,7.080463,19.869389,72.06774,-70.04403
7.285596,3.7372735,6.5702477,18.97686,92.55648,-75.71078
7.340666,3.2931643,5.874391,12.982538,111.170265,-80.097626
7.2371383,2.8272338,4.9597554,6.8896537,125.46038,-83.05116
6.9592705,2.3289807,3.9415014,1.6841558,135.92375,-85.27889
6.632232,1.8283204,2.9328578,-3.313015,142.92531,-85.97438
6.2414846,1.3939475,1.9373405,-7.7086887,146.57704,-85.419464
5.782995,1.0096848,0.9533045,-10.728986,146.91788,-83.75961
5.20205,0.6555553,-0.04074965,-10.621153,140.9451,-80.94875
4.5752683,0.44453278,-1.0127815,-10.661849,129.85854,-78.722466
4.0596566,0.32032195,-1.8672423,-11.198247,116.037766,-77.13151
3.6369832,0.18820208,-2.6287673,-11.863987,100.88868,-74.800064
3.2353158,0.09861518,-3.3519976,-13.027025,84.05405,-72.046684
2.8685095,0.05078847,-4.0394955,-15.356825,63.71583,-68.877975
2.602026,0.052306212,-4.6933074,-18.911818,41.80168,-66.30387
2.4761295,0.0049648597,-5.2293334,-22.595098,19.074192,-64.413895
2.5966659,-0.104109265,-5.517312,-25.356438,-0.87365586,-62.538807
2.8061109,-0.194697,-5.574293,-27.529766,-17.748112,-60.289227
3.0425882,-0.27706525,-5.435101,-29.541365,-31.805937,-57.720238
3.3089936,-0.3103718,-5.0384636,-31.107111,-44.36917,-56.391678
3.685157,-0.28464663,-4.3555794,-32.03845,-54.961807,-56.207897
4.191854,-0.17467736,-3.4075642,-32.829464,-61.51115,-56.380726
4.6506133,-0.06460987,-2.4071634,-34.323692,-63.786644,-56.072983
4.9551463,-0.02011188,-1.512485,-35.64899,-62.338573,-55.274055
5.1300707,-0.00013708939,-0.7562351,-36.15201,-59.184242,-54.759586
5.258841,-0.0014320286,-0.123984225,-36.23783,-54.27631,-54.499416
5.313838,-0.04300772,0.3703092,-35.69807,-48.025196,-54.392952
5.339243,-0.07675776,0.7626977,-34.302464,-40.61111,-54.46969
5.3516016,-0.07691821,1.0581774,-32.49488,-31.771038,-54.978867
5.304491,-0.08155534,1.2140846,-30.457052,-22.76682,-55.668224
5.2730994,-0.07802422,1.3290809,-28.357203,-13.63217,-56.468777
5.303738,-0.06273886,1.4208214,-26.690931,-3.7289174,-57.175858
5.341944,-0.066875756,1.4246294,-25.494736,6.670682,-57.59183
5.304461,-0.120435685,1.3038291,-23.452679,16.53107,-57.956177
5.2005744,-0.1760359,1.0937828,-21.86558,25.241255,-58.354336
5.0733333,-0.26586843,0.82298404,-21.251535,32.81984,-57.87627
4.9088173,-0.3736409,0.50059104,-21.633553,39.34892,-56.401707
4.699143,-0.48638207,0.1469555,-22.680374,44.5629,-54.21268
4.42943,-0.62602043,-0.22792079,-23.302683,47.914402,-51.663136
4.1004305,-0.71992725,-0.6235148,-23.26754,49.796276,-49.767696
3.8276608,-0.77253735,-0.9756922,-23.231722,49.573906,-48.674366
3.6998184,-0.79581153,-1.1870973,-24.85074,49.59001,-47.100643
3.5763152,-0.79527825,-1.3684794,-26.598125,50.204525,-45.1271
3.3824182,-0.70723635,-1.601013,-28.724865,48.171333,-45.581123
3.1480863,-0.710636,-1.7201759,-24.763815,42.857178,-44.64154
3.0691512,-0.64671725,-1.6852442,-23.785797,38.0412,-41.904003
3.0549674,-0.58043814,-1.605796,-24.198874,35.367626,-40.13164
3.0313725,-0.5450132,-1.469573,-23.079998,33.477318,-38.638042
2.9853566,-0.52534854,-1.3551531,-20.89806,32.458748,-37.503963
2.9025607,-0.47503078,-1.2509959,-18.248863,31.39698,-36.626896
2.8061671,-0.40276483,-1.1722952,-16.889,30.295496,-35.926823
2.710072,-0.34756157,-1.0984105,-17.217627,28.903122,-34.951405
2.6299684,-0.33191934,-1.0249547,-17.865725,27.867128,-34.026264
2.542431,-0.3459825,-0.96570104,-18.077873,26.730974,-33.052418
2.4563863,-0.37222543,-0.91762125,-17.860537,25.760557,-32.20318
2.3705406,-0.39649782,-0.867204,-17.150831,24.910269,-31.25143
2.288897,-0.40883672,-0.8236013,-16.172867,24.263943,-30.39127
2.2012746,-0.40999788,-0.78562903,-15.181279,23.586763,-29.37231
2.1129415,-0.4037486,-0.752311,-14.137274,22.856268,-28.356667
2.030791,-0.38072327,-0.72213376,-13.232022,22.056747,-27.49443
1.9543083,-0.35847193,-0.6952384,-12.899109,21.321114,-26.626078
1.8854228,-0.34611666,-0.67077357,-12.639609,20.62958,-25.68946
1.8100127,-0.3428653,-0.6585543,-12.22163,19.943573,-24.78991
1.736342,-0.33911768,-0.6488708,-11.596285,19.04552,-23.90272
1.672251,-0.3274284,-0.632839,-10.933471,18.138412,-23.072006
1.6166459,-0.3093053,-0.61200714,-10.2750435,17.328928,-22.289936
1.5625495,-0.28845087,-0.5964208,-9.667249,16.754843,-21.703686
1.4990208,-0.26615858,-0.58694565,-8.994345,16.124197,-21.240921
1.4439188,-0.24895616,-0.57506096,-8.314466,15.658849,-21.040245
1.3967998,-0.24472544,-0.5556987,-7.043715,15.32237,-20.952122
1.3484958,-0.22523329,-0.5392051,-5.6100345,14.996808,-20.914978
1.2978456,-0.19505331,-0.52674496,-4.9694095,14.64521,-20.5827
1.2458066,-0.16780104,-0.51405704,-4.853243,14.1761465,-20.147709
1.1946886,-0.1497061,-0.50269085,-5.386418,13.439754,-19.515373
1.155155,-0.15087931,-0.4862792,-6.200049,12.703977,-18.793922
1.1211026,-0.16974598,-0.47114867,-6.905048,12.045537,-18.022715
1.0890206,-0.19356953,-0.45678553,-7.255713,11.469548,-17.289625
1.0569282,-0.21650575,-0.44184542,-7.326845,10.98291,-16.641302
1.0216547,-0.23014197,-0.4224235,-6.9493937,10.5213785,-16.161179
0.9875055,-0.23148635,-0.39866444,-6.5284505,10.059249,-15.627441
0.95202893,-0.22498095,-0.3747523,-6.143887,9.667324,-15.08771
0.9118508,-0.20758814,-0.3544521,-5.773458,9.218971,-14.603399
0.87924474,-0.18789674,-0.3321022,-5.7799597,8.834566,-14.09048
0.85262007,-0.18022801,-0.30642143,-5.610426,8.609525,-13.578541
0.81738526,-0.1660408,-0.2902248,-5.209364,8.383973,-13.157316
0.7802924,-0.14498013,-0.28145605,-5.220148,8.131167,-12.82965
0.7455606,-0.13325015,-0.2708686,-5.36235,7.8710866,-12.535238
0.7147713,-0.13133472,-0.25927073,-5.3473597,7.5237756,-12.162311
0.6883923,-0.13201204,-0.24772616,-5.180184,7.219873,-11.745812
0.6600007,-0.12804231,-0.23954594,-5.027811,6.921737,-11.395858
0.6386277,-0.12569746,-0.22846746,-5.002288,6.7683854,-11.081737
0.6153971,-0.12595683,-0.21967454,-4.8174033,6.675154,-10.832797
0.58749396,-0.123803124,-0.21490611,-4.584957,6.5238585,-10.551646
0.560624,-0.11800121,-0.20938201,-4.4360723,6.3201437,-10.266001
0.5380325,-0.11266254,-0.2028451,-4.3795304,6.147586,-9.995042
0.51512015,-0.109895,-0.19532728,-4.2942677,5.9595013,-9.71355
0.49486175,-0.10602837,-0.18595438,-4.1545367,5.8344626,-9.478967
0.4701526,-0.10106606,-0.18118161,-4.0782266,5.6809874,-9.270806
0.44562528,-0.09479297,-0.17627767,-4.091916,5.463748,-9.074882
0.42052522,-0.0919919,-0.17180817,-4.074699,5.1847816,-8.885097
0.39995426,-0.088530004,-0.16495222,-4.023743,4.8307753,-8.701257
0.38629594,-0.08651753,-0.15235431,-4.0714664,4.592548,-8.504118
0.3808297,-0.08918312,-0.13581629,-4.022526,4.5616283,-8.301737
0.37372607,-0.096411064,-0.124129705,-3.840016,4.594472,-8.027677
0.35730472,-0.10353761,-0.122504495,-3.4786513,4.548285,-7.8021264
0.33662736,-0.10330264,-0.1183739,-3.037249,4.4293194,-7.576023
0.3249501,-0.09381741,-0.10885528,-2.7332988,4.3616385,-7.366495
0.3182506,-0.08494031,-0.100101665,-2.7641456,4.3455358,-7.1254907
0.30833223,-0.08229312,-0.09698198,-2.6780005,4.2101064,-6.903424
0.29872373,-0.07972864,-0.09395974,-2.5945463,4.0789075,-6.6882935
0.28941533,-0.077244245,-0.0910319,-2.5136986,3.9518063,-6.479882
0.28039756,-0.074837424,-0.08819548,-2.4353755,3.8286738,-6.2779784
0.2716613,-0.07250575,-0.08544761,-2.3594975,3.7093854,-6.082378
0.26319778,-0.070246845,-0.08278551,-2.2859879,3.5938203,-5.892883
0.25499836,-0.068058446,-0.08020648,-2.2147725,3.4818618,-5.7093015
0.2470548,-0.065938324,-0.07770794,-2.1457791,3.3733969,-5.531449
0.23935907,-0.063884355,-0.07528734,-2.0789382,3.2683158,-5.3591447
0.23190339,-0.06189445,-0.07294226,-2.0141826,3.1665127,-5.192215
0.22468026,-0.059966616,-0.070670314,-1.9514464,3.067885,-5.0304923
0.21768239,-0.0580989,-0.06846922,-1.8906668,2.9723327,-4.873813
0.21090274,-0.056289427,-0.066336766,-1.8317825,2.8797603,-4.7220197
0.20433445,-0.05453637,-0.0642708,-1.7747341,2.790074,-4.574959
0.19797096,-0.052837964,-0.06226924,-1.7194643,2.703184,-4.4324827
0.19180581,-0.051192503,-0.060330074,-1.6659174,2.6190023,-4.294448
0.18583284,-0.049598332,-0.058451355,-1.6140395,2.5374448,-4.160716
0.18004604,-0.04805385,-0.056631185,-1.5637786,2.458429,-4.031152
0.17443958,-0.046557497,-0.054867744,-1.515084,2.381876,-3.9056256
0.16900782,-0.04510778,-0.05315926,-1.467907,2.3077085,-3.7840111
0.16374533,-0.043703232,-0.05150401,-1.4221998,2.235852,-3.666186
0.1586468,-0.042342447,-0.04990033,-1.3779169,2.1662345,-3.5520325
0.15370713,-0.04102406,-0.04834662,-1.3350137,2.0987859,-3.4414353
0.14892136,-0.039746746,-0.046841312,-1.2934471,2.0334387,-3.3342838
0.14428467,-0.038509224,-0.045382902,-1.2531754,1.9701273,-3.2304702
0.13979241,-0.037310254,-0.04396992,-1.2141583,1.9087882,-3.1298907
0.1354401,-0.03614863,-0.042600956,-1.1763564,1.8493596,-3.0324442
0.13122334,-0.03502319,-0.04127463,-1.1397321,1.7917823,-2.938033
0.12713793,-0.033932805,-0.039989617,-1.1042485,1.7359982,-2.8465624
0.12317976,-0.03287638,-0.038744625,-1.0698701,1.6819516,-2.7579408
0.11934487,-0.031852856,-0.037538406,-1.0365624,1.6295882,-2.6720793
0.115629405,-0.030861206,-0.036369756,-1.004292,1.5788556,-2.5888917
0.11202966,-0.029900443,-0.0352375,-0.9730266,1.529703,-2.5082948
0.108542,-0.028969597,-0.034140505,-0.9427348,1.482081,-2.4302077
0.105162956,-0.028067738,-0.03307767,-0.91338634,1.4359422,-2.3545525
0.10188914,-0.027193964,-0.03204793,-0.8849518,1.3912399,-2.281253
0.09871726,-0.026347397,-0.031050256,-0.8574026,1.3479297,-2.210236
0.095644146,-0.02552719,-0.030083649,-0.8307113,1.305968,-2.1414306
0.09266673,-0.024732525,-0.029147139,-0.80485106,1.265313,-2.0747674
0.089782014,-0.0239626,-0.028239788,-0.77979606,1.2259238,-2.0101798
0.086987115,-0.02321665,-0.027360689,-0.7555212,1.1877611,-1.9476033
0.08427925,-0.022493925,-0.02650896,-0.7320021,1.1507865,-1.8869753
0.08165568,-0.021793703,-0.025683753,-0.7092153,1.1149632,-1.8282348
0.0791138,-0.02111528,-0.024884237,-0.68713796,1.0802552,-1.7713232
0.07665105,-0.02045798,-0.024109613,-0.66574794,1.0466278,-1.7161835
0.07426499,-0.019821145,-0.023359105,-0.64502394,1.0140474,-1.6627605
0.07195321,-0.019204136,-0.022631964,-0.6249451,0.9824813,-1.6110007
0.0697134,-0.018606335,-0.021927461,-0.60549134,0.9518979,-1.5608523
0.06754332,-0.018027147,-0.02124489,-0.5866433,0.92226666,-1.5122652
0.0654408,-0.01746599,-0.020583568,-0.56838197,0.89355797,-1.4651908
0.06340373,-0.016922303,-0.019942837,-0.55068916,0.865743,-1.4195818
0.061430085,-0.01639554,-0.01932205,-0.53354716,0.8387939,-1.3753927
0.05951788,-0.015885178,-0.018720591,-0.5169388,0.81268376,-1.3325793
0.057665203,-0.0153907025,-0.018137855,-0.5008475,0.7873865,-1.2910986
0.0558702,-0.014911621,-0.01757326,-0.48525715,0.76287675,-1.2509093
0.05413108,-0.014447453,-0.01702624,-0.4701521,0.73912996,-1.211971
0.052446093,-0.0139977345,-0.01649625,-0.4555173,0.71612245,-1.174245
0.050813563,-0.013562016,-0.015982758,-0.44133803,0.69383115,-1.1376934
0.049231853,-0.013139862,-0.015485252,-0.4276002,0.67223376,-1.1022797
0.04769938,-0.012730849,-0.015003232,-0.41429,0.6513087,-1.0679682
0.046214614,-0.012334568,-0.014536218,-0.40139416,0.63103503,-1.034725
0.044776067,-0.011950623,-0.014083741,-0.38889974,0.6113925,-1.0025165
0.043382302,-0.011578631,-0.01364535,-0.37679428,0.59236133,-0.9713107
0.04203192,-0.011218217,-0.013220605,-0.36506563,0.57392263,-0.9410763
