ax,ay,az,gx,gy,gz
-0.27000245,-0.17818344,0.71818835,45.721325,-27.243885,-7.7127976
-0.15707861,0.45369917,1.0325668,38.18632,-32.84576,-9.970395
0.26629415,0.64575696,1.4133962,26.891245,-30.969213,-6.8665814
0.6006293,0.66931796,1.6696129,14.555328,-24.090067,-0.22480826
0.7021187,0.57967746,1.6602185,8.72087,-17.927933,3.6009533
0.6888599,0.51072156,1.5873667,8.065552,-13.304486,3.903973
0.63221717,0.5157567,1.5547726,9.144491,-10.299294,2.9372852
0.59662646,0.5314955,1.6113508,10.388393,-7.432698,2.4915133
0.5564202,0.63262254,1.764322,11.169255,-4.6071477,2.101565
0.666907,0.8202047,2.2071207,12.462578,-0.45692626,1.4647144
0.83369184,1.0003002,2.73057,14.493966,4.823287,-0.27167153
1.0392798,1.126058,3.2213356,17.515102,11.154228,-3.550517
1.2896973,1.2321936,3.6117992,20.871822,17.98607,-7.4982705
1.578676,1.3067266,3.9197638,22.677341,25.781647,-11.091319
1.8432397,1.2738727,4.076653,23.95216,33.97388,-13.974876
2.026593,1.1745366,4.081493,25.26925,42.031506,-16.551489
2.1588051,1.0268661,3.9588761,27.28719,49.778763,-19.007298
2.2688005,0.8609586,3.746014,29.638083,57.200394,-21.094053
2.3679585,0.7428797,3.4720392,30.791708,64.382065,-22.47095
2.435797,0.728382,3.1168458,29.628971,70.62388,-23.525927
2.4895427,0.6982162,2.735444,27.151365,76.07115,-24.46903
2.5262039,0.6373847,2.330281,24.288536,80.93199,-25.463898
2.5471425,0.5498522,1.9026481,21.75294,85.430176,-26.63458
2.5114093,0.44350898,1.4276463,20.258383,88.29588,-28.004873
2.4352453,0.3436014,0.9233179,19.127851,89.818115,-29.13904
2.3529022,0.26391846,0.42178932,17.664852,89.8841,-29.709684
2.2626722,0.1996684,-0.07120328,15.726171,88.783005,-29.92745
2.155762,0.15510912,-0.5498025,13.522155,86.587135,-30.310598
2.0223174,0.102265015,-1.0130494,11.601972,82.83472,-30.83733
1.8577919,0.07431464,-1.4695281,9.793438,77.90392,-31.475529
1.6795921,0.073017746,-1.9155862,7.7372108,71.515305,-32.252327
1.507087,0.073952876,-2.342513,5.6343083,64.08798,-33.045994
1.3519634,0.10393024,-2.7453406,3.4546907,55.672962,-34.107502
1.2313877,0.14152467,-3.1189191,1.4570636,45.958626,-35.78185
1.167217,0.13175666,-3.4536426,-0.13075367,35.645454,-37.641945
1.1415799,0.07775013,-3.7363775,-1.5496945,24.969185,-39.148376
1.1246513,0.008582489,-3.9456344,-2.862331,14.063631,-40.073154
1.0978316,-0.014273269,-4.067143,-4.3702965,2.7399287,-40.740192
1.0752962,-0.034439806,-4.1078234,-5.8304677,-9.265684,-42.08108
1.1420178,-0.102801666,-3.9964504,-6.3939285,-20.817875,-43.637867
1.3349209,-0.138399,-3.7067528,-6.6640615,-31.340834,-44.696453
1.652813,-0.17841677,-3.24937,-7.2394667,-40.2068,-44.86435
2.020118,-0.26531038,-2.6723616,-7.652692,-47.028942,-44.087208
2.3691146,-0.35298172,-2.0358233,-7.7207747,-51.152443,-42.73243
2.6551733,-0.40929887,-1.375677,-7.5253024,-53.527836,-41.41834
2.8921616,-0.46874556,-0.73757577,-6.9541426,-54.104725,-40.066
3.0714664,-0.5130038,-0.14840296,-5.8819685,-53.109432,-38.571426
3.2119687,-0.5175653,0.38072366,-4.495376,-50.766636,-36.861217
3.3140483,-0.48440626,0.83272225,-2.639879,-46.827892,-35.487923
3.3688025,-0.412481,1.1841182,-0.2513096,-41.956123,-35.143524
3.3865497,-0.33627483,1.4663104,2.5526865,-36.664814,-35.810936
3.4175758,-0.24467552,1.7071393,5.316409,-30.765867,-36.772213
3.480195,-0.13851838,1.9007626,7.622325,-24.118547,-37.93551
3.591552,-0.07437067,2.039842,9.774577,-16.084757,-40.2387
3.730173,-0.08489298,2.0940108,12.034824,-7.411515,-42.97386
3.8431642,-0.09377389,2.062164,13.146317,1.3473018,-45.471348
3.9243476,-0.11571449,1.9488757,12.675878,9.674366,-47.014748
3.9762485,-0.17120829,1.766597,11.4643345,17.600536,-47.55426
4.008779,-0.23219548,1.5356694,9.835585,25.1969,-47.552
4.0139656,-0.3075626,1.2462382,8.302494,32.41797,-47.67708
3.9779437,-0.3941096,0.9203682,7.095047,38.95818,-47.84332
3.8923187,-0.46784285,0.57460976,5.785537,44.47651,-47.851505
3.783073,-0.5405639,0.23466729,4.1783357,49.25461,-47.342575
3.6577065,-0.60861254,-0.09923966,2.120875,52.946613,-45.95778
3.4731963,-0.6617126,-0.42567226,0.028005969,55.48286,-44.396656
3.261816,-0.7175916,-0.7282146,-1.6740007,56.76254,-42.982872
3.0369089,-0.7580813,-0.9984045,-2.9700222,56.795788,-41.703167
2.8119206,-0.77423406,-1.2231908,-4.060203,55.857506,-40.3671
2.5874689,-0.76844597,-1.398839,-5.550384,53.658394,-38.43656
2.3728232,-0.7715567,-1.5242233,-7.1152525,50.746567,-36.084087
2.1849742,-0.77379954,-1.6111388,-8.262654,47.457596,-33.7167
2.0319746,-0.74751097,-1.6563796,-8.954729,44.006065,-31.852884
1.9144213,-0.70948493,-1.6580187,-9.0890255,40.65701,-30.639845
1.8297279,-0.67106223,-1.622592,-8.744627,37.755085,-29.633236
1.7814577,-0.6138796,-1.5596588,-8.380584,35.28871,-28.663534
1.7250837,-0.5944535,-1.5103035,-8.115381,34.172005,-27.75648
1.6705488,-0.5756611,-1.4625585,-7.858831,33.09173,-26.879017
1.6177881,-0.55748004,-1.4163667,-7.610626,32.046597,-26.0301
1.5667392,-0.5398889,-1.3716736,-7.370475,31.035374,-25.208727
1.5173424,-0.52286714,-1.328427,-7.1380963,30.05688,-24.413939
1.4695408,-0.5063949,-1.2865767,-6.913221,29.109982,-23.644812
1.4232792,-0.49045345,-1.2460749,-6.69559,28.193588,-22.900465
1.3785048,-0.4750245,-1.2068752,-6.4849563,27.30666,-22.180048
1.3351672,-0.4600906,-1.1689333,-6.281081,26.448189,-21.48275
1.2932177,-0.44563505,-1.1322066,-6.0837364,25.617214,-20.807783
1.2526094,-0.43164167,-1.0966542,-5.892701,24.812809,-20.1544
1.2132974,-0.418095,-1.0622367,-5.707764,24.03408,-19.521872
1.1752383,-0.40498006,-1.0289162,-5.5287213,23.280174,-18.909504
1.1383905,-0.39228255,-0.9966562,-5.355377,22.55026,-18.316628
1.102714,-0.37998864,-0.9654215,-5.1875424,21.843548,-17.742594
1.06817,-0.36808497,-0.93517834,-5.0250354,21.159267,-17.186783
1.0347211,-0.3565587,-0.90589404,-4.867681,20.496685,-16.648594
1.0023317,-0.3453975,-0.8775372,-4.7153096,19.855085,-16.127449
0.97096694,-0.3345894,-0.85007745,-4.5677595,19.233784,-15.622792
0.9405935,-0.32412288,-0.8234857,-4.4248724,18.632118,-15.134085
0.9111791,-0.31398687,-0.7977335,-4.286497,18.049452,-14.6608095
0.8826927,-0.3041706,-0.77279377,-4.1524873,17.485168,-14.202466
0.8551043,-0.29466382,-0.74864024,-4.022702,16.938673,-13.758571
0.8283849,-0.28545648,-0.7252475,-3.8970048,16.409391,-13.328657
0.8025065,-0.27653894,-0.70259106,-3.775264,15.896769,-12.912275
0.7774421,-0.2679019,-0.6806473,-3.6573527,15.40027,-12.50899
0.75316554,-0.25953633,-0.6593933,-3.5431476,14.919379,-12.118382
0.7296517,-0.2514336,-0.638807,-3.4325304,14.453595,-11.7400465
0.7068761,-0.24358527,-0.6188671,-3.3253863,14.002436,-11.373589
0.6848153,-0.23598324,-0.59955287,-3.2216043,13.565434,-11.018631
0.66344637,-0.22861964,-0.5808445,-3.1210778,13.14214,-10.674807
0.6427474,-0.2214869,-0.5627226,-3.0237026,12.732117,-10.341762
0.62269706,-0.21457767,-0.54516864,-2.9293792,12.334942,-10.019154
0.60327476,-0.20788488,-0.52816457,-2.8380103,11.950208,-9.706651
0.5844607,-0.20140165,-0.5116929,-2.7495022,11.577521,-9.403933
0.5662355,-0.19512135,-0.49573678,-2.6637645,11.216499,-9.11069
0.5485805,-0.18903756,-0.48027995,-2.5807097,10.866775,-8.826623
0.5314778,-0.18314406,-0.4653066,-2.5002527,10.527989,-8.551442
0.5149099,-0.17743488,-0.4508015,-2.4223118,10.199798,-8.284866
0.49886,-0.17190416,-0.43674985,-2.3468075,9.881866,-8.026624
0.48331168,-0.1665463,-0.42313734,-2.2736628,9.573871,-7.776452
0.46824917,-0.16135585,-0.4099502,-2.2028036,9.275499,-7.534097
0.45365718,-0.15632755,-0.39717498,-2.1341581,8.986448,-7.2993135
0.43952096,-0.15145628,-0.38479877,-2.0676563,8.706426,-7.071862
0.42582613,-0.14673713,-0.372809,-2.0032313,8.435145,-6.8515134
0.41255882,-0.1421653,-0.36119354,-1.9408174,8.172336,-6.6380434
0.39970565,-0.13773617,-0.34994063,-1.8803517,7.917728,-6.4312367
0.3872536,-0.13344528,-0.3390389,-1.8217729,7.6710668,-6.2308846
0.3751901,-0.12928826,-0.32847738,-1.7650222,7.432102,-6.036783
0.36350298,-0.12526095,-0.31824532,-1.7100419,7.2005925,-5.848738
0.3521804,-0.12135925,-0.30833247,-1.6567767,6.976305,-5.6665587
0.34121096,-0.11757926,-0.2987288,-1.6051728,6.759013,-5.4900613
0.33058366,-0.11391714,-0.2894246,-1.5551782,6.548497,-5.3190684
0.3202877,-0.11036923,-0.28041056,-1.5067426,6.3445463,-5.1534076
0.31031278,-0.106931925,-0.27167755,-1.4598172,6.146954,-4.992912
0.30064884,-0.10360179,-0.2632168,-1.4143547,5.955522,-4.8374195
0.29128614,-0.10037546,-0.2550198,-1.3703094,5.770057,-4.6867743
0.2822153,-0.0972497,-0.24707831,-1.327637,5.5903735,-4.540825
0.27342716,-0.09422136,-0.23938432,-1.2862946,5.4162903,-4.3994246
0.2649129,-0.0912874,-0.23193014,-1.2462405,5.247632,-4.2624307
0.25666395,-0.08844486,-0.22470823,-1.2074348,5.08423,-4.129706
0.24867207,-0.0856909,-0.21771134,-1.1698382,4.925919,-4.0011168
0.24092919,-0.08302275,-0.2109325,-1.133413,4.7725415,-3.8765342
0.23342754,-0.080437735,-0.20436484,-1.0981227,4.623942,-3.7558334
0.2261596,-0.077933244,-0.19800179,-1.0639318,4.4799724,-3.638893
0.21911809,-0.075506784,-0.19183697,-1.0308062,4.3404875,-3.5255952
0.21229593,-0.0731559,-0.1858642,-0.9987124,4.205348,-3.415827
0.20568627,-0.07087826,-0.18007748,-0.96761835,4.074418,-3.3094783
0.1992825,-0.068671554,-0.17447099,-0.9374928,3.9475665,-3.2064419
0.19307819,-0.06653359,-0.16903915,-0.9083056,3.8246658,-3.1066148
0.1870671,-0.06446221,-0.16377647,-0.8800274,3.705593,-3.009897
0.18124324,-0.062455334,-0.1586777,-0.85262996,3.5902286,-2.9161916
0.17560075,-0.060510967,-0.15373772,-0.8260858,3.4784572,-2.8254042
0.17013398,-0.05862715,-0.14895159,-0.80036825,3.3701665,-2.7374442
0.16483745,-0.056802,-0.1443145,-0.7754516,3.265248,-2.6522236
0.15970586,-0.055033684,-0.13982181,-0.7513108,3.163597,-2.5696566
0.15473408,-0.053320434,-0.13546903,-0.72792184,3.0651114,-2.4896607
0.1499171,-0.051660534,-0.1312518,-0.7052611,2.9696922,-2.4121559
0.14525011,-0.05005232,-0.12716587,-0.68330604,2.8772445,-2.3370645
0.14072844,-0.04849418,-0.12320717,-0.6620346,2.7876754,-2.2643113
0.13634758,-0.046984557,-0.11937173,-0.64142543,2.700895,-2.193823
0.1321031,-0.045521937,-0.11565571,-0.621458,2.6168168,-2.12553
0.12799078,-0.044104856,-0.1120554,-0.6021123,2.5353563,-2.0593631
0.1240065,-0.0427319,-0.10856718,-0.58336884,2.456432,-1.9952562
0.120146275,-0.041401684,-0.10518756,-0.56520903,2.379965,-1.9331454
0.116406225,-0.040112887,-0.10191316,-0.5476146,2.3058789,-1.8729683
0.11278262,-0.038864214,-0.09874071,-0.5305679,2.2340994,-1.8146647
0.10927183,-0.03765442,-0.095667034,-0.5140519,2.1645544,-1.7581763
0.105870344,-0.036482286,-0.092689045,-0.49805018,2.0971746,-1.7034466
0.10257475,-0.035346642,-0.08980376,-0.48254657,2.0318925,-1.6504208
0.09938175,-0.034246355,-0.08700831,-0.46752563,1.968643,-1.5990456
0.09628817,-0.033180322,-0.084299885,-0.45297235,1.9073623,-1.54927
0.09329088,-0.03214748,-0.081675775,-0.4388721,1.8479894,-1.5010439
0.090386905,-0.031146787,-0.07913336,-0.4252108,1.7904649,-1.4543192
0.087573335,-0.030177247,-0.07667009,-0.41197482,1.7347312,-1.409049
0.08484735,-0.02923789,-0.0742835,-0.39915088,1.6807325,-1.3651881
0.082206234,-0.028327774,-0.071971215,-0.38672614,1.6284148,-1.3226928
0.07964733,-0.027445992,-0.06973091,-0.37468818,1.5777258,-1.2815201
0.077168085,-0.02659166,-0.06756034,-0.36302498,1.5286146,-1.2416292
0.07476602,-0.025763923,-0.06545734,-0.35172483,1.4810324,-1.2029802
0.07243873,-0.024961952,-0.063419804,-0.34077647,1.4349313,-1.1655343
0.07018389,-0.024184946,-0.0614457,-0.33016893,1.3902653,-1.129254
0.06799924,-0.023432128,-0.059533045,-0.31989157,1.3469899,-1.0941031
0.065882586,-0.022702746,-0.057679933,-0.30993414,1.3050615,-1.0600464
0.063831836,-0.021996066,-0.055884503,-0.30028668,1.2644382,-1.0270499
