ax,ay,az,gx,gy,gz
-0.25272956,-0.8218256,1.7400159,13.483759,-103.150024,-2.4418404
1.5072106,-0.5760518,4.0160913,18.080828,-87.03876,2.473317
2.405867,-0.38989145,5.7908893,28.451279,-65.77484,4.3763385
2.886457,-0.115243874,7.1471505,38.998013,-47.19227,2.4682252
3.4356718,0.35222656,8.181409,45.995533,-28.270786,1.2707193
3.9631424,0.86719364,8.884839,45.57543,-6.2292213,-0.4041576
4.337924,0.95922506,9.137774,45.48217,16.072372,-2.4197295
4.48735,0.9012649,8.979841,45.695526,36.725227,-4.7387977
4.4842753,0.74451435,8.536229,46.123245,54.60936,-6.429247
4.4042788,0.59705526,7.914795,46.286827,69.58949,-7.1235714
4.2407413,0.4913692,7.187267,45.755264,81.30492,-7.6432476
4.0432143,0.37399676,6.3747334,44.96832,90.48023,-8.6148615
3.8422198,0.2668947,5.549522,43.80011,97.46528,-9.485079
3.6209633,0.2087961,4.724806,41.74903,102.26332,-10.129274
3.3829358,0.16561586,3.9128165,38.98316,104.88467,-10.750806
3.1499317,0.114530936,3.1327896,36.76311,105.0136,-11.79959
2.9384,0.115450904,2.3999615,34.565346,103.96371,-12.853863
2.7343028,0.1351393,1.7031183,32.005672,101.51503,-13.699525
2.5399418,0.17817016,1.0502667,29.72486,98.01882,-14.587747
2.3550136,0.2528585,0.44575173,27.930447,93.756035,-15.711352
2.1538832,0.3408301,-0.13000417,26.478828,88.04574,-17.238317
1.9330784,0.4331591,-0.6809672,25.310589,81.294334,-18.966333
1.7285087,0.5486464,-1.1849985,24.035992,73.64736,-21.018406
1.5563346,0.65925443,-1.6384745,22.34389,65.420006,-23.093779
1.4381454,0.7568041,-2.028367,20.34817,57.17526,-25.096907
1.3534532,0.8267768,-2.3647387,18.454205,48.81856,-26.859663
1.2877831,0.8804592,-2.657292,16.474487,40.32142,-28.508438
1.2281703,0.9114163,-2.9126217,14.648477,31.604767,-30.482164
1.165591,0.9061876,-3.105995,12.958413,22.571392,-32.741505
1.1176221,0.8600505,-3.202305,11.01793,13.563814,-34.57703
1.1089821,0.793329,-3.188584,8.761856,5.31513,-35.43519
1.1308328,0.73203784,-3.073044,6.7165837,-2.2596376,-36.325336
1.1566129,0.65391594,-2.8914685,5.329044,-10.015057,-38.042168
1.2575424,0.5318054,-2.5727482,3.8107166,-17.66051,-39.744267
1.4660662,0.3632295,-2.1158621,2.1196501,-23.341297,-40.35304
1.6812077,0.18726693,-1.6115279,0.32687318,-26.527264,-39.90141
1.8425878,0.020914108,-1.0865337,-0.959763,-28.121014,-39.373356
1.9434315,-0.13974278,-0.57792497,-1.6994287,-28.431831,-38.782387
1.9782258,-0.29425505,-0.10865466,-2.241078,-27.963081,-37.917625
1.9841046,-0.4406184,0.337837,-2.5764925,-26.965126,-36.551212
1.9956143,-0.5353824,0.77900875,-2.6865036,-24.742493,-34.693058
2.0306382,-0.5661102,1.2069501,-2.502575,-21.229876,-32.93627
2.0726118,-0.60383534,1.5799042,-1.5996882,-16.453188,-31.663038
2.10518,-0.642956,1.8725463,-0.6412605,-10.981855,-30.397747
2.1252995,-0.6651832,2.082533,-0.24924095,-5.0153565,-28.810392
2.1339068,-0.6703198,2.2190118,-1.0847244,1.229144,-27.032957
2.1398468,-0.70648146,2.2542522,-1.1884199,7.586841,-25.217176
2.1293228,-0.7387049,2.2210777,-0.49243376,13.700951,-23.607025
2.1184015,-0.7511935,2.1288838,0.50030714,19.591133,-22.094631
2.0872974,-0.7325395,1.9775379,1.0255117,24.88047,-20.592266
2.0449934,-0.70122236,1.7833518,0.869472,29.27003,-19.136082
1.9980407,-0.6817155,1.5325328,0.6886924,33.06261,-17.799414
1.9296882,-0.6550995,1.244111,0.39856145,35.958622,-16.697063
1.8562546,-0.62662333,0.9378909,-0.0045012757,38.15906,-15.638177
1.7697167,-0.5938063,0.62258554,-0.54622114,39.541676,-14.525679
1.6776851,-0.5631544,0.31651127,-0.9713378,40.00928,-13.4682255
1.5820708,-0.51898706,0.031198865,-1.2986472,39.843674,-12.648009
1.4838156,-0.46589544,-0.22496031,-1.5601206,38.975956,-12.007463
1.3849963,-0.42659742,-0.44178918,-1.5490417,37.61289,-11.525442
1.2907958,-0.39944482,-0.60804766,-1.4409312,35.83305,-11.04068
1.2149888,-0.3615885,-0.72368306,-1.4853367,33.939526,-10.370775
1.1593626,-0.3027355,-0.78923357,-1.6369463,32.07866,-9.726331
1.1308786,-0.2556888,-0.8280724,-1.7576241,30.408756,-9.204866
1.1268197,-0.22351941,-0.8508988,-1.9528408,29.085829,-8.565636
1.1378292,-0.19924329,-0.87416404,-2.4870033,28.11073,-7.8226786
1.1610495,-0.23388119,-0.9184693,-3.5398924,27.511871,-6.775836
1.1238402,-0.22638576,-0.8890342,-3.426446,26.630169,-6.558684
1.0878876,-0.2191435,-0.8605933,-3.3168314,25.77825,-6.3488665
1.0531436,-0.21214469,-0.8331084,-3.210901,24.954966,-6.146102
1.0195621,-0.20538005,-0.8065432,-3.1085155,24.15923,-5.950122
0.9870995,-0.1988408,-0.78086305,-3.009541,23.390005,-5.7606716
0.9557141,-0.19251853,-0.75603503,-2.9138508,22.646307,-5.5775075
0.92536616,-0.18640526,-0.7320277,-2.8213239,21.92719,-5.400398
0.8960178,-0.18049334,-0.70881116,-2.7318444,21.23176,-5.229122
0.8676328,-0.1747755,-0.6863567,-2.6453023,20.55916,-5.063469
0.8401767,-0.16924474,-0.6646371,-2.561592,19.908567,-4.903236
0.8136163,-0.16389443,-0.643626,-2.4806128,19.2792,-4.7482305
0.78791994,-0.15871817,-0.6232984,-2.4022677,18.670307,-4.5982676
0.76305735,-0.15370986,-0.60363036,-2.326465,18.081171,-4.453171
0.7389994,-0.14886364,-0.5845989,-2.2531154,17.511103,-4.3127694
0.71571827,-0.1441739,-0.56618196,-2.1821342,16.95944,-4.176902
0.69318724,-0.13963526,-0.5483584,-2.1134398,16.42555,-4.0454116
0.6713805,-0.13524254,-0.5311078,-2.046954,15.908826,-3.9181485
0.65027356,-0.13099076,-0.51441073,-1.9826015,15.408682,-3.7949693
0.6298427,-0.12687516,-0.49824852,-1.9203103,14.924558,-3.6757355
0.610065,-0.122891165,-0.482603,-1.8600106,14.455912,-3.5603137
0.59091866,-0.119034335,-0.46745697,-1.801636,14.002226,-3.4485765
0.57238257,-0.11530043,-0.45279366,-1.7451217,13.563001,-3.3404007
0.55443645,-0.11168537,-0.43859702,-1.6904062,13.137754,-3.2356677
0.5370607,-0.10818521,-0.42485163,-1.6374298,12.726024,-3.1342635
0.5202365,-0.104796164,-0.41154256,-1.586135,12.327364,-3.0360785
0.50394577,-0.10151456,-0.39865547,-1.5364666,11.941343,-2.9410062
0.48817095,-0.09833689,-0.3861765,-1.4883711,11.567548,-2.8489451
0.4728952,-0.095259756,-0.37409234,-1.4417974,11.205579,-2.7597966
0.45810226,-0.09227987,-0.36239013,-1.3966956,10.855049,-2.6734655
0.44377643,-0.08939408,-0.3510574,-1.3530179,10.515589,-2.5898604
0.42990255,-0.086599335,-0.34008223,-1.3107182,10.186838,-2.5088933
0.416466,-0.08389269,-0.32945302,-1.2697519,9.86845,-2.430478
0.40345272,-0.0812713,-0.3191586,-1.2300761,9.560091,-2.3545332
0.39084902,-0.078732416,-0.30918822,-1.191649,9.261437,-2.2809784
0.37864175,-0.0762734,-0.29953146,-1.1544306,8.972178,-2.2097375
0.36681825,-0.07389167,-0.29017824,-1.1183822,8.692012,-2.1407359
0.35536617,-0.07158477,-0.28111887,-1.0834663,8.420647,-2.073902
0.34427366,-0.069350295,-0.27234393,-1.0496466,8.157802,-2.0091665
0.33352923,-0.067185946,-0.26384437,-1.0168883,7.9032054,-1.9464625
0.32312182,-0.06508949,-0.2556114,-0.9851574,7.6565948,-1.8857254
0.31304067,-0.06305875,-0.24763653,-0.9544213,7.4177155,-1.8268923
0.30327547,-0.061091647,-0.23991157,-0.92464834,7.1863217,-1.7699028
0.29381615,-0.059186164,-0.2324286,-0.8958081,6.9621763,-1.7146987
0.284653,-0.057340346,-0.22517994,-0.8678708,6.7450495,-1.6612229
0.27577668,-0.055552304,-0.21815816,-0.84080803,6.534719,-1.6094211
0.2671781,-0.05382021,-0.21135609,-0.81459206,6.33097,-1.5592401
0.2588485,-0.052142296,-0.2047668,-0.78919613,6.1335936,-1.5106288
0.25077933,-0.05051685,-0.19838355,-0.7645943,5.9423895,-1.4635377
0.24296243,-0.048942223,-0.19219986,-0.74076164,5.757163,-1.4179186
0.23538986,-0.047416806,-0.18620943,-0.7176738,5.5777254,-1.3737253
0.22805388,-0.04593905,-0.18040618,-0.6953073,5.4038944,-1.330913
0.22094709,-0.044507463,-0.17478421,-0.6736396,5.2354937,-1.2894379
0.21406223,-0.04312058,-0.16933782,-0.65264857,5.0723524,-1.2492582
0.20739236,-0.041777007,-0.1640615,-0.63231295,4.9143057,-1.2103331
0.20093073,-0.040475376,-0.15894991,-0.61261225,4.7611923,-1.1726233
0.19467078,-0.039214376,-0.15399785,-0.5935265,4.612859,-1.1360905
0.18860619,-0.03799273,-0.14920036,-0.5750363,4.469154,-1.1006978
0.18273084,-0.036809202,-0.14455256,-0.5571231,4.3299336,-1.0664095
0.17703879,-0.0356626,-0.14004976,-0.53976876,4.1950564,-1.033191
0.1715243,-0.034551762,-0.13568741,-0.5229558,4.064387,-1.0010086
0.1661818,-0.03347557,-0.13146114,-0.5066672,3.9377925,-0.96983004
0.16100591,-0.032432944,-0.12736666,-0.4908866,3.8151464,-0.9396238
0.15599144,-0.03142283,-0.12339986,-0.47559807,3.6963248,-0.91035944
0.1511333,-0.030444209,-0.11955674,-0.46078622,3.5812078,-0.88200754
0.1464266,-0.029496098,-0.11583343,-0.44643614,3.4696798,-0.8545396
0.14186665,-0.02857754,-0.112226196,-0.43253338,3.3616283,-0.8279278
0.13744882,-0.027687617,-0.10873139,-0.419064,3.256945,-0.80214554
0.13316868,-0.026825428,-0.10534551,-0.4060144,3.155524,-0.77716684
0.12902194,-0.02599011,-0.10206515,-0.3933715,3.057264,-0.75296664
0.12500441,-0.025180822,-0.09888702,-0.3811226,2.9620662,-0.7295205
0.12111208,-0.024396753,-0.09580792,-0.36925536,2.8698344,-0.706805
0.11734103,-0.023637112,-0.09282475,-0.35775787,2.7804766,-0.6847973
0.11368746,-0.02290114,-0.089934535,-0.34661862,2.693903,-0.6634752
0.11014772,-0.022188097,-0.08713436,-0.3358264,2.6100264,-0.6428175
0.10671826,-0.021497268,-0.08442142,-0.3253704,2.5287628,-0.6228033
0.10339562,-0.020827958,-0.08179299,-0.31524011,2.4500306,-0.6034125
0.10017648,-0.020179497,-0.07924643,-0.30542538,2.373751,-0.5846258
0.09705762,-0.019551234,-0.076779194,-0.29591635,2.2998474,-0.5664242
0.0940359,-0.01894254,-0.07438881,-0.2867035,2.2282455,-0.54878956
0.09110829,-0.018352805,-0.07207287,-0.2777776,2.158874,-0.5317042
0.088271864,-0.017781436,-0.06982906,-0.2691297,2.091663,-0.5151509
0.08552377,-0.017227862,-0.06765513,-0.2607511,2.0265448,-0.49911314
0.08286126,-0.016691528,-0.065548904,-0.25263345,1.9634548,-0.48357484
0.08028167,-0.016171895,-0.06350827,-0.2447686,1.9023296,-0.46852043
0.0777824,-0.015668444,-0.061531182,-0.23714866,1.8431077,-0.45393482
0.07536096,-0.015180672,-0.05961566,-0.229766,1.7857301,-0.43980342
0.07301492,-0.014708087,-0.057759784,-0.22261323,1.7301391,-0.42611203
0.07074194,-0.014250218,-0.0559617,-0.21568318,1.6762791,-0.41284698
0.068539724,-0.013806606,-0.054219596,-0.20896892,1.6240962,-0.39999497
0.066406086,-0.013376806,-0.05253174,-0.20246372,1.5735381,-0.3875431
0.06433888,-0.012960388,-0.05089644,-0.19616106,1.5245541,-0.37547898
0.062336035,-0.012556937,-0.049312055,-0.19005466,1.4770954,-0.36379048
0.06039555,-0.012166047,-0.047776997,-0.18413836,1.4311143,-0.3524659
0.05851548,-0.011787327,-0.046289735,-0.17840627,1.3865647,-0.34149387
0.056693945,-0.011420398,-0.044848777,-0.17285264,1.3434023,-0.33086348
0.054929122,-0.011064893,-0.04345268,-0.16747192,1.3015835,-0.32056406
0.053219244,-0.010720455,-0.04210005,-0.16225871,1.2610668,-0.31058526
0.051562596,-0.010386742,-0.04078953,-0.1572078,1.2218114,-0.30091715
0.049957525,-0.010063417,-0.03951981,-0.15231416,1.1837782,-0.29155004
0.048402425,-0.0097501585,-0.038289618,-0.14757285,1.1469289,-0.28247452
0.04689574,-0.009446652,-0.037097726,-0.14297915,1.1112269,-0.27368155
0.045435954,-0.009152594,-0.03594294,-0.13852845,1.0766363,-0.26516232
0.044021618,-0.00886769,-0.034824103,-0.13421632,1.0431226,-0.2569083
0.04265131,-0.008591657,-0.033740096,-0.13003843,1.0106523,-0.24891125
0.041323658,-0.008324215,-0.032689832,-0.12599058,0.9791927,-0.24116313
0.04003734,-0.0080651,-0.031672265,-0.12206876,0.94871247,-0.23365624
0.038791064,-0.007814051,-0.030686377,-0.11826903,0.91918105,-0.22638302
0.037583586,-0.007570817,-0.029731179,-0.114587575,0.89056903,-0.21933623
0.036413692,-0.007335155,-0.028805714,-0.11102073,0.8628476,-0.21250878
0.03528022,-0.0071068285,-0.027909061,-0.10756491,0.83598924,-0.20589389
0.034182034,-0.00688561,-0.02704032,-0.10421667,0.80996686,-0.1994849
0.03311803,-0.006671278,-0.02619862,-0.10097267,0.78475463,-0.19327544
0.032087147,-0.006463618,-0.025383122,-0.09782964,0.76032716,-0.18725926
0.031088358,-0.006262422,-0.02459301,-0.09478445,0.7366601,-0.18143035
