ax,ay,az,gx,gy,gz
-0.56091416,-0.30454823,0.42636752,-22.305656,-55.708687,24.470222
-0.061141208,-0.2323405,1.1237401,-19.03535,-41.495827,23.948862
0.27564332,0.009820817,1.8848798,-10.753465,-26.843216,17.550545
0.5795369,0.18318848,2.8080788,-1.0981379,-15.087011,10.235804
0.9136705,0.37177762,3.5645416,6.308037,-5.763621,4.8201365
1.3080875,0.7133856,4.2020845,8.971094,3.0787728,1.4871472
1.693724,0.95982057,4.74358,9.920788,12.117294,-1.6347471
2.0677397,1.0141307,5.164864,12.386375,24.193476,-5.9469967
2.3894176,0.9640867,5.331943,15.001232,36.4462,-9.580806
2.5345407,0.893176,5.234764,16.463764,47.66203,-12.111596
2.5614467,0.79466087,4.999546,16.795473,57.14728,-13.61775
2.5642514,0.6998355,4.6949477,16.552652,65.70106,-14.505838
2.5432277,0.61150527,4.3254647,16.351063,73.44938,-15.490936
2.4809,0.5487063,3.858476,16.218628,79.82583,-16.797737
2.3866706,0.48927256,3.354316,16.375174,84.6418,-18.419216
2.2862108,0.42964756,2.8552303,16.255547,88.05217,-19.988043
2.1895533,0.37340024,2.3782902,15.602275,90.354836,-21.033958
2.0840254,0.32490557,1.9097657,14.533604,91.319824,-21.550028
1.96269,0.28436962,1.4228177,13.841926,91.131294,-22.248117
1.8465044,0.24713956,0.9499833,13.468105,89.92563,-23.424477
1.7483038,0.215321,0.5052743,13.341286,88.137085,-24.697699
1.6501037,0.19075829,0.07105928,13.029022,85.802605,-25.623718
1.5395766,0.16866606,-0.36183742,12.435821,82.415085,-25.851156
1.4132148,0.16814621,-0.7901227,11.689865,78.25537,-26.02208
1.2784472,0.16131611,-1.1954789,10.98557,73.24308,-26.53007
1.1448219,0.13245767,-1.5676118,10.495475,67.60385,-27.271837
1.0105139,0.10127829,-1.9137077,10.207009,61.567024,-27.893444
0.87426156,0.08252126,-2.2468147,9.870659,54.587757,-27.976677
0.7492358,0.13253906,-2.557658,9.332547,46.91447,-28.154415
0.6392417,0.22772902,-2.8346586,8.438934,38.703285,-29.078459
0.538055,0.2975658,-3.0656438,7.540896,29.94174,-30.717932
0.45093745,0.3269203,-3.2370405,6.652942,20.840902,-32.242065
0.38538608,0.36190155,-3.347056,5.3900924,11.567437,-33.059727
0.34435102,0.43870437,-3.3918562,3.3763332,2.0469916,-33.885494
0.36348313,0.4491625,-3.356017,1.5219797,-7.518499,-35.579853
0.45605776,0.36008757,-3.196842,0.6242446,-16.620687,-37.686707
0.6310218,0.24911347,-2.9012663,0.1366295,-24.19875,-39.107666
0.8220267,0.21315785,-2.5378184,-1.339718,-30.080324,-39.213177
0.97944784,0.1895387,-2.1359923,-2.6908607,-34.984085,-39.207592
1.131545,0.15357487,-1.7006042,-3.248603,-38.643837,-39.62186
1.2704101,0.10869526,-1.2577149,-3.3166118,-41.118534,-40.222553
1.400966,0.07132856,-0.8207081,-3.3071198,-42.51824,-40.498417
1.5354192,0.055528276,-0.39097694,-3.910105,-42.547283,-40.08491
1.658992,0.022002734,0.01032922,-4.4718184,-41.565414,-39.67641
1.7709253,-0.04743921,0.37173733,-4.5417566,-39.508152,-39.44343
1.8553702,-0.14573142,0.6754259,-4.2503176,-36.625122,-38.96147
1.9307402,-0.24014184,0.9360412,-3.886612,-33.165787,-37.829468
2.0112462,-0.30115283,1.1724547,-3.629803,-28.626545,-35.786743
2.0767672,-0.31079635,1.354026,-3.5435169,-23.411621,-33.62602
2.1216986,-0.305921,1.4807262,-3.392319,-17.804502,-32.13415
2.1690955,-0.3067331,1.5674821,-3.0102792,-11.717958,-31.47235
2.2215495,-0.30543315,1.6024038,-2.2824156,-5.2243934,-31.110508
2.2475553,-0.27588674,1.5798738,-1.9370049,0.9509348,-30.601334
2.2553868,-0.22596322,1.5091615,-2.3659272,6.735818,-29.713375
2.260575,-0.19121353,1.4108334,-3.3126848,12.3177,-28.636017
2.2616122,-0.16863354,1.2848395,-4.5126257,17.75855,-27.602348
2.2495568,-0.15805715,1.1289779,-5.7230067,23.00102,-26.602354
2.215979,-0.15382758,0.93984646,-6.945664,27.774025,-25.488491
2.1365602,-0.14756067,0.70577437,-8.120536,31.81972,-24.370655
2.0230258,-0.14773785,0.4581958,-9.182066,34.97812,-23.324364
1.8909519,-0.14634962,0.20986241,-10.075327,37.313427,-22.352612
1.7503157,-0.13804452,-0.03628965,-10.864163,38.79777,-21.511778
1.60329,-0.13326,-0.273108,-11.341531,39.046986,-20.836271
1.4537657,-0.13821717,-0.48601088,-11.686297,38.539726,-20.347445
1.3092142,-0.16240524,-0.6735866,-11.834611,37.427372,-19.869513
1.1816058,-0.19222157,-0.8320261,-11.813239,36.00024,-19.121773
1.058458,-0.2044568,-0.9689985,-11.728047,34.208843,-18.139252
0.95495313,-0.2037384,-1.0723927,-11.419239,32.319794,-17.139149
0.8949447,-0.18685201,-1.1252681,-11.36644,30.564407,-16.159023
0.86640775,-0.18089388,-1.0893868,-11.003999,29.589804,-15.643764
0.83882153,-0.17513426,-1.054701,-10.653634,28.64767,-15.145669
0.81215066,-0.16956575,-1.0211661,-10.314896,27.736801,-14.6641035
0.78636146,-0.16418134,-0.9887398,-9.987354,26.856041,-14.198457
0.7614217,-0.15897426,-0.95738155,-9.670601,26.00429,-13.748147
0.73730063,-0.1539381,-0.9270526,-9.364246,25.1805,-13.312619
0.7139688,-0.14906675,-0.89771616,-9.067916,24.383667,-12.891343
0.6913982,-0.14435433,-0.8693367,-8.781253,23.612827,-12.48381
0.66956186,-0.1397952,-0.8418806,-8.503916,22.867067,-12.089536
0.64843404,-0.135384,-0.81531525,-8.235577,22.145502,-11.708054
0.62798995,-0.13111557,-0.78960973,-7.9759226,21.447292,-11.338918
0.60820603,-0.12698495,-0.7647342,-7.7246523,20.771626,-10.981702
0.58905953,-0.12298743,-0.74066013,-7.4814777,20.117727,-10.635994
0.5705285,-0.119118415,-0.71736,-7.246121,19.484852,-10.3014
0.55259216,-0.11537355,-0.6948075,-7.0183167,18.872286,-9.977544
0.53523034,-0.111748636,-0.6729774,-6.7978086,18.279337,-9.66406
0.51842356,-0.10823962,-0.6518453,-6.5843506,17.705349,-9.360599
0.5021533,-0.10484262,-0.6313877,-6.3777065,17.149683,-9.066825
0.48640162,-0.10155389,-0.61158216,-6.177649,16.611727,-8.782414
0.4711513,-0.09836983,-0.592407,-5.9839587,16.090893,-8.507055
0.45638564,-0.09528697,-0.5738413,-5.796425,15.586612,-8.240449
0.44208872,-0.09230197,-0.5558649,-5.614844,15.09834,-7.9823055
0.42824513,-0.08941162,-0.53845847,-5.4390197,14.625548,-7.7323465
0.41483992,-0.0866128,-0.5216033,-5.2687645,14.167731,-7.490304
0.40185884,-0.08390253,-0.5052814,-5.103895,13.724397,-7.255919
0.38928804,-0.08127792,-0.48947537,-4.9442368,13.295075,-7.028942
0.37711415,-0.078736186,-0.47416842,-4.78962,12.87931,-6.809132
0.36532435,-0.07627464,-0.4593444,-4.639881,12.476662,-6.5962567
0.3539062,-0.07389069,-0.44498765,-4.4948626,12.086705,-6.390092
0.3428477,-0.07158183,-0.43108314,-4.3544116,11.709033,-6.1904206
0.3321373,-0.069345646,-0.4176163,-4.218382,11.343247,-5.9970345
0.32176378,-0.0671798,-0.40457302,-4.0866303,10.988968,-5.8097315
0.31171632,-0.06508203,-0.39193976,-3.9590206,10.645824,-5.628316
0.30198452,-0.063050166,-0.3797034,-3.83542,10.313461,-5.4525995
0.29255828,-0.0610821,-0.3678512,-3.7157,9.991533,-5.2824
0.28342783,-0.05917579,-0.35637096,-3.5997367,9.6797085,-5.1175423
0.2745838,-0.057329275,-0.3452508,-3.4874108,9.377664,-4.9578547
0.26601702,-0.055540647,-0.33447924,-3.3786066,9.085089,-4.803174
0.25771868,-0.053808074,-0.32404527,-3.273212,8.8016815,-4.6533403
0.2496803,-0.052129768,-0.3139381,-3.1711185,8.527152,-4.5082
0.2418936,-0.050504018,-0.30414745,-3.072222,8.261219,-4.3676043
0.23435065,-0.04892915,-0.29466322,-2.976421,8.00361,-4.2314095
0.2270437,-0.047403567,-0.28547576,-2.8836176,7.754061,-4.0994763
0.21996532,-0.0459257,-0.27657568,-2.7937174,7.512318,-3.97167
0.2131083,-0.044494048,-0.26795393,-2.706628,7.2781353,-3.84786
0.20646563,-0.04310715,-0.2596017,-2.6222615,7.051273,-3.7279208
0.20003057,-0.0417636,-0.25151053,-2.5405316,6.831501,-3.61173
0.19379658,-0.04046203,-0.24367215,-2.4613554,6.6185956,-3.4991698
0.18775733,-0.039201114,-0.23607863,-2.3846526,6.4123416,-3.3901258
0.18190669,-0.037979584,-0.22872227,-2.3103454,6.212529,-3.2844872
0.17623875,-0.036796197,-0.22159562,-2.2383583,6.0189557,-3.1821475
0.17074774,-0.035649754,-0.21469146,-2.1686187,5.8314257,-3.0830026
0.16542815,-0.034539092,-0.20800279,-2.1010559,5.649749,-2.9869523
0.16027455,-0.033463094,-0.20152287,-2.0356016,5.473742,-2.8938997
0.15528177,-0.032420672,-0.19524515,-1.9721897,5.303227,-2.8037505
0.15044476,-0.03141077,-0.18916328,-1.9107561,5.138032,-2.716414
0.14575863,-0.030432371,-0.18327112,-1.851239,4.97799,-2.6318018
0.14121866,-0.02948449,-0.17756276,-1.7935781,4.82294,-2.5498285
0.13682027,-0.028566169,-0.1720324,-1.7377155,4.6727247,-2.4704118
0.13255905,-0.027676484,-0.1666745,-1.6835948,4.527194,-2.3934715
0.12843068,-0.026814537,-0.16148365,-1.6311616,4.386201,-2.3189301
0.124431014,-0.025979463,-0.15645462,-1.580363,4.2496033,-2.2467127
0.12055603,-0.025170421,-0.15158238,-1.531148,4.117264,-2.1767464
0.11680183,-0.024386596,-0.146862,-1.4834669,3.9890492,-2.1089609
0.11316463,-0.023627201,-0.14228873,-1.437272,3.8648307,-2.0432882
0.1096408,-0.022891473,-0.137858,-1.3925167,3.7444837,-1.9796622
0.10622677,-0.02217867,-0.13356534,-1.3491561,3.6278868,-1.9180189
0.102919124,-0.021488082,-0.12940644,-1.3071467,3.514923,-1.8582964
0.09971454,-0.020819008,-0.12537712,-1.2664461,3.4054794,-1.8004348
0.0966098,-0.020170782,-0.12147334,-1.2270137,3.2994454,-1.744376
0.093601786,-0.01954275,-0.11769118,-1.1888098,3.1967149,-1.6900636
0.09068748,-0.018934283,-0.114026845,-1.151796,3.0971847,-1.6374432
0.08786396,-0.018344771,-0.110476665,-1.1159352,3.0007548,-1.586462
0.08512839,-0.017773623,-0.10703707,-1.0811915,2.9073288,-1.5370688
0.082478024,-0.017220264,-0.1037046,-1.04753,2.816813,-1.4892142
0.07991022,-0.016684141,-0.100475945,-1.014917,2.7291164,-1.4428501
0.07742238,-0.016164714,-0.09734783,-0.9833197,2.6441512,-1.39793
0.07501203,-0.015661467,-0.09431715,-0.9527065,2.5618322,-1.354409
0.07267674,-0.0151738925,-0.091380864,-0.9230467,2.482077,-1.3122433
0.070414186,-0.0147015015,-0.08853601,-0.8943106,2.4048052,-1.2713908
0.06822208,-0.014243822,-0.08577975,-0.8664694,2.32994,-1.2318105
0.06609825,-0.013800395,-0.08310933,-0.8394951,2.2574062,-1.1934627
0.06404055,-0.013370776,-0.08052205,-0.81336087,2.187131,-1.1563091
0.062046926,-0.012954534,-0.07801535,-0.7880404,2.119044,-1.1203125
0.06011538,-0.012551254,-0.0755867,-0.7635084,2.0530775,-1.0854367
0.05824397,-0.01216053,-0.073233664,-0.7397402,1.9891647,-1.0516468
0.05643084,-0.011781974,-0.070953906,-0.71671206,1.927242,-1.018909
0.05467416,-0.011415203,-0.06874512,-0.69440097,1.8672473,-0.9871906
0.052972175,-0.011059852,-0.06660511,-0.67278457,1.8091207,-0.95645976
0.05132318,-0.010715566,-0.064531736,-0.65184116,1.7528038,-0.9266857
0.04972553,-0.010381998,-0.06252291,-0.63154984,1.6982403,-0.89783865
0.048177615,-0.010058816,-0.060576625,-0.61189026,1.6453756,-0.86988974
0.046677895,-0.009745695,-0.05869094,-0.5928427,1.5941567,-0.842811
0.045224868,-0.009442323,-0.05686396,-0.5743882,1.5445325,-0.8165753
0.043817077,-0.009148396,-0.05509386,-0.55650824,1.4964533,-0.79115635
0.042453114,-0.0088636195,-0.053378865,-0.539185,1.4498708,-0.7665288
0.041131616,-0.008587709,-0.051717263,-0.522401,1.4047385,-0.7426679
0.039851256,-0.008320387,-0.05010739,-0.50613946,1.3610114,-0.7195499
0.038610753,-0.008061388,-0.048547633,-0.49038425,1.3186455,-0.69715154
0.037408873,-0.0078104516,-0.047036435,-0.47511947,1.2775984,-0.6754505
0.036244407,-0.0075673275,-0.04557228,-0.46032992,1.2378292,-0.654425
0.035116192,-0.007331772,-0.04415371,-0.44600078,1.1992981,-0.63405406
0.034023095,-0.007103549,-0.042779297,-0.4321177,1.1619664,-0.6143173
0.032964032,-0.006882431,-0.04144767,-0.4186668,1.1257969,-0.59519494
0.031937934,-0.006668196,-0.040157493,-0.40563464,1.0907534,-0.57666785
0.03094378,-0.0064606303,-0.038907483,-0.39300817,1.0568007,-0.5587175
0.029980572,-0.006259526,-0.037696384,-0.38077474,1.023905,-0.5413259
0.02904735,-0.0060646823,-0.03652299,-0.36892214,0.9920333,-0.52447575
0.028143177,-0.0058759036,-0.035386115,-0.3574385,0.96115375,-0.5081501
0.02726715,-0.005693001,-0.034284636,-0.34631234,0.93123543,-0.49233267
0.026418393,-0.005515793,-0.03321744,-0.33553252,0.9022485,-0.4770076
