ax,ay,az,gx,gy,gz
0.26091146,-0.49182266,0.36091238,21.362923,-58.87145,16.979246
0.59733933,-0.4237724,0.6816164,23.194975,-51.934353,20.52166
0.4075313,-0.470705,0.7612392,25.798084,-48.34677,20.990685
0.09110976,-0.45976087,0.914675,31.07734,-48.36005,20.035767
-0.121412456,-0.3049214,1.244046,36.98822,-50.668343,18.298319
-0.06640155,-0.12703276,1.7984295,41.826283,-51.303104,17.108395
0.49971208,0.1745546,2.8536937,48.479332,-45.21777,16.966324
1.2144089,0.7437504,4.0152597,54.99669,-33.13869,15.86206
1.8665419,1.3653777,4.9862475,60.300495,-19.90245,10.716461
2.4071138,1.6864352,5.738842,66.69252,-6.030282,2.3314483
2.8561304,1.7009456,6.2778945,74.04974,10.472753,-7.0519
3.2045224,1.5065887,6.5067267,79.916885,27.259632,-15.194244
3.4842613,1.2293261,6.5221405,84.24051,44.005222,-22.083805
3.7105117,0.9333638,6.355843,86.46654,60.262566,-27.505219
3.8683376,0.6511943,6.0208306,87.080696,75.42788,-31.649061
3.92839,0.4104128,5.533886,86.5959,88.24167,-34.313164
3.9381568,0.25772712,4.9355903,84.55157,99.15134,-36.078182
3.943971,0.10681203,4.2837825,81.170006,108.25799,-37.155254
3.9486194,-0.094780594,3.589712,77.90892,115.24993,-38.47847
3.9563391,-0.3340044,2.8897216,75.51709,120.230484,-40.543766
3.9522908,-0.5873104,2.1805975,73.97801,122.75304,-43.07813
3.8835154,-0.834208,1.4449109,72.65387,123.116714,-44.931686
3.7735205,-1.0334382,0.7216005,71.01233,121.181496,-45.667076
3.6189897,-1.1738365,0.0021218022,68.69054,116.899376,-45.443356
3.4055767,-1.2706004,-0.7010959,65.95921,110.14855,-44.626217
3.158093,-1.3071237,-1.3851292,61.96592,99.84006,-43.758217
2.9034154,-1.3137821,-2.0163138,57.829147,87.49285,-43.093334
2.6760836,-1.3364086,-2.5794797,54.15657,73.82421,-42.142483
2.4713972,-1.3551239,-3.0973024,50.83873,59.040623,-40.672005
2.277832,-1.3342698,-3.587407,47.611217,43.022575,-39.06107
2.0855908,-1.263936,-4.0555444,44.51453,24.100037,-38.128403
1.9769676,-1.1718185,-4.45985,41.15607,3.651529,-37.823708
2.0382404,-1.149054,-4.726033,37.972546,-15.965101,-37.20888
2.186076,-1.194288,-4.875256,34.86246,-34.15549,-35.393963
2.3698797,-1.256452,-4.91913,31.643126,-51.175255,-33.46953
2.602842,-1.2891506,-4.824731,28.090372,-67.730995,-33.35879
2.9508896,-1.3174739,-4.5436077,25.303493,-81.98662,-33.893078
3.4207282,-1.3385336,-4.08911,22.086012,-93.491264,-33.643772
4.0256677,-1.2441715,-3.456868,18.114466,-101.54831,-31.448702
4.6787806,-1.0161779,-2.6931973,13.077774,-105.33395,-28.062506
5.2569566,-0.7534632,-1.9153478,9.347007,-104.50571,-26.639894
5.7856975,-0.49420658,-1.159353,7.485694,-99.93159,-28.011608
6.2725234,-0.28844956,-0.4793638,5.5982203,-91.10396,-30.527237
6.600802,-0.1893238,-0.0064450456,4.505217,-78.969734,-32.617214
6.7337074,-0.18154226,0.25453746,4.4628935,-66.259155,-34.12032
6.826778,-0.22179855,0.43907553,6.3481836,-52.611614,-34.616573
6.886291,-0.22618903,0.53689116,8.119882,-38.53895,-34.866932
6.955048,-0.21335515,0.5759258,8.174248,-23.832108,-35.314384
7.068206,-0.21259297,0.56934816,5.7438555,-7.8951626,-35.795918
7.1738114,-0.26410773,0.43080246,4.686175,8.006607,-36.324696
7.2409353,-0.2936155,0.24729894,3.0871243,23.46802,-37.489548
7.271881,-0.36857185,-0.023588214,2.0063972,38.17076,-38.804176
7.225583,-0.52075577,-0.3701679,2.1126857,51.517334,-39.66918
7.0785093,-0.70670235,-0.7675517,2.5661998,62.823345,-39.661194
6.821985,-0.8844421,-1.2118084,3.6963758,71.30686,-38.699127
6.48646,-1.0087438,-1.6436709,3.3306751,75.9894,-37.148056
6.145708,-1.0913879,-2.0146384,1.6496251,78.42792,-35.462883
5.813827,-1.2008365,-2.348999,-0.30270737,78.906075,-33.64255
5.493835,-1.3202816,-2.6518128,-1.2898264,78.04706,-31.680077
5.175376,-1.4029096,-2.9161472,-1.3551731,75.77325,-29.727694
4.8857193,-1.4244808,-3.121268,-0.57166225,71.78935,-27.899664
4.6539564,-1.3794003,-3.2351692,0.3742378,67.29833,-26.11386
4.460404,-1.2984626,-3.2852569,1.2201911,62.52159,-24.437487
4.307007,-1.1950415,-3.2681916,1.9995519,57.681572,-22.880026
4.183972,-1.0773145,-3.1961472,2.5164783,53.00377,-21.368189
4.0722013,-0.94469386,-3.0867467,2.6159692,48.56209,-20.045158
3.9751215,-0.8056794,-2.9441092,2.404998,44.439434,-19.044807
3.8998432,-0.6946497,-2.7818165,1.7091027,40.733288,-18.111418
3.8474393,-0.61408347,-2.5915089,0.17305039,37.929485,-17.109983
3.8011894,-0.5902294,-2.4156365,-1.1364499,35.82672,-15.939672
3.7353067,-0.5918459,-2.2675612,-1.9359004,33.961143,-15.051257
3.6501803,-0.60695374,-2.1376584,-1.9345046,32.252567,-14.749287
3.562533,-0.6226418,-2.0150661,-1.1249467,30.699293,-14.835236
3.487192,-0.62823504,-1.8852847,-0.10009696,29.594034,-14.771227
3.419171,-0.62395096,-1.7622027,0.6977419,29.116693,-14.295559
3.3310978,-0.6084465,-1.6659958,1.038787,29.054806,-13.503248
3.2023356,-0.59268916,-1.604256,1.031017,28.693918,-12.576635
3.067782,-0.57804453,-1.5553892,1.1333766,28.028627,-11.853652
2.9415383,-0.5587632,-1.5063093,1.2902232,26.976637,-11.285078
2.833253,-0.5274315,-1.450053,1.4939208,25.77009,-10.786864
2.7488153,-0.49241742,-1.3901945,1.4026259,25.002472,-10.097098
2.674622,-0.46668482,-1.3331774,1.1067538,24.634262,-9.258521
2.5862668,-0.44612083,-1.2964913,0.77817684,24.323978,-8.408525
2.487354,-0.4347993,-1.2748463,0.5886937,23.864384,-7.620324
2.386048,-0.42669952,-1.2604927,0.7773113,23.175951,-7.093261
2.2917495,-0.41286114,-1.2485448,0.98096824,22.151152,-6.8053684
2.21427,-0.41161013,-1.2297914,1.2030431,20.990469,-6.513265
2.1517134,-0.4120615,-1.2057699,1.2954841,19.916561,-6.0543075
2.0928092,-0.41503817,-1.1849271,1.2127585,18.995506,-5.45689
2.0290082,-0.42152423,-1.1684761,1.0466043,18.013813,-4.6412525
1.9694877,-0.42435852,-1.1474726,1.2566288,17.07857,-4.006384
1.9160504,-0.41122666,-1.1191812,1.3682753,16.037294,-3.4394298
1.8716618,-0.39534914,-1.0786073,1.5833781,15.122591,-2.9018881
1.8283646,-0.36320156,-1.037377,1.518561,14.137538,-2.3660822
1.7889695,-0.3371689,-0.990693,1.4271384,13.26761,-1.8433944
1.7502244,-0.31195828,-0.9472968,1.2832509,12.57213,-1.3887478
1.7091062,-0.28904366,-0.9066141,1.1820754,11.98444,-0.9923069
1.6667526,-0.26819533,-0.8699018,1.1279709,11.436279,-0.68468726
1.6293265,-0.24500397,-0.8312211,1.0526667,10.987376,-0.3734148
1.5944216,-0.21882507,-0.79135245,0.9950088,10.697524,-0.16725187
1.5541809,-0.1891283,-0.7551428,0.98488915,10.363412,-0.2058788
1.5146116,-0.1651426,-0.7191658,1.0418179,10.085548,-0.32141933
1.474943,-0.13638449,-0.68790936,0.9635549,9.812606,-0.41809472
1.4360831,-0.12076532,-0.6601627,0.6610396,9.498695,-0.4774302
1.3972253,-0.11624735,-0.6337236,0.5108921,9.187021,-0.5234812
1.3613962,-0.106940866,-0.61142147,0.40923315,8.919385,-0.7547495
1.3219168,-0.10463397,-0.5959335,0.30505186,8.639204,-1.0530213
1.280992,-0.1098861,-0.5833017,0.15843505,8.327812,-1.2467399
1.2392592,-0.1143811,-0.5688511,0.13636976,7.965259,-1.3905989
1.2036048,-0.1197645,-0.5539485,0.027423305,7.4922433,-1.4309981
1.1793568,-0.1306547,-0.53205967,-0.013408391,7.129204,-1.4034947
1.1598897,-0.1315073,-0.504121,0.030785713,6.954499,-1.3730481
1.1371657,-0.12784387,-0.4793009,0.06408866,6.8956223,-1.4120793
1.1072341,-0.123110406,-0.45793787,0.20099874,6.800524,-1.4593978
1.0767422,-0.113319464,-0.43992332,0.2575107,6.6988926,-1.457671
1.0442111,-0.10726297,-0.42456,0.29324412,6.535764,-1.4369547
1.0140679,-0.100647755,-0.41148436,0.16617604,6.332076,-1.3427126
0.9864866,-0.099910825,-0.39897296,0.006928459,6.142354,-1.1867516
0.9620104,-0.09710915,-0.385045,-0.10359604,6.0232162,-1.067975
0.9320355,-0.09408337,-0.37304756,-0.100368135,5.8355412,-1.0346985
0.9029965,-0.09115205,-0.36142465,-0.09724101,5.6537256,-1.0024608
0.87486386,-0.08831223,-0.35016456,-0.09421149,5.4775853,-0.9712294
0.84760916,-0.08556104,-0.33925587,-0.09127651,5.306942,-0.9409726
0.82120496,-0.08289569,-0.32868758,-0.08843312,5.141623,-0.91165996
0.7956245,-0.08031349,-0.318449,-0.085678436,4.981462,-0.88326186
0.77084196,-0.077811845,-0.30852976,-0.08300968,4.826297,-0.85574955
0.74683243,-0.07538823,-0.29891995,-0.08042417,4.6759715,-0.8290954
0.72357166,-0.073040195,-0.28960982,-0.07791928,4.530334,-0.8032725
0.7010362,-0.070765376,-0.28059,-0.07549251,4.389238,-0.77825475
0.6792034,-0.06856149,-0.2718514,-0.073141396,4.252541,-0.7540171
0.65805125,-0.06642631,-0.26338524,-0.07086358,4.120106,-0.73053503
0.63755846,-0.06435768,-0.255183,-0.06865677,3.9917994,-0.707785
0.61770445,-0.062353536,-0.24723643,-0.066518754,3.8674917,-0.6857441
0.5984692,-0.06041186,-0.23953752,-0.06444737,3.7470586,-0.6643901
0.57983345,-0.058530692,-0.23207855,-0.06244054,3.630379,-0.6437016
0.5617784,-0.056708146,-0.22485203,-0.06049625,3.5173352,-0.6236579
0.544286,-0.05494239,-0.21785067,-0.05861254,3.4078138,-0.6042387
0.5273386,-0.053231653,-0.21106747,-0.056787528,3.301705,-0.58542454
0.5109193,-0.05157422,-0.20449561,-0.055019375,3.1989021,-0.5671966
0.49501142,-0.049968418,-0.1981285,-0.053306308,3.099302,-0.5495365
0.47959915,-0.048412643,-0.19195974,-0.05164661,3.0028048,-0.5324266
0.46466702,-0.04690533,-0.18598314,-0.05003861,2.9093134,-0.5158497
0.4502,-0.045444977,-0.18019271,-0.0484807,2.8187344,-0.49978915
0.4361836,-0.044030104,-0.17458265,-0.046971317,2.7309768,-0.48422888
0.4226038,-0.042659305,-0.16914731,-0.045508943,2.6459527,-0.46915326
0.40944692,-0.041331198,-0.16388127,-0.044092122,2.5635765,-0.45454717
0.39669982,-0.040044453,-0.15877925,-0.042719424,2.483766,-0.44039598
0.3843497,-0.038797785,-0.1538361,-0.041389477,2.406441,-0.4266855
0.3723842,-0.037589937,-0.14904691,-0.040100947,2.3315241,-0.41340202
0.36079133,-0.03641971,-0.14440686,-0.038852543,2.2589402,-0.4005322
0.34955946,-0.03528592,-0.1399113,-0.03764302,2.1886168,-0.38806313
0.33867735,-0.034187436,-0.13555573,-0.036471155,2.1204832,-0.37598237
0.3281341,-0.033123158,-0.13133578,-0.035335783,2.054471,-0.36427778
0.31791914,-0.03209202,-0.12724724,-0.034235764,1.9905145,-0.35293767
0.30802223,-0.031092988,-0.12328601,-0.03317,1.9285493,-0.34195063
0.2984335,-0.030125063,-0.11944812,-0.032137416,1.8685136,-0.3313057
0.28914332,-0.029187277,-0.11572973,-0.031136986,1.8103472,-0.32099223
0.28014243,-0.028278688,-0.1121271,-0.030167704,1.7539918,-0.31099987
0.27142173,-0.027398389,-0.108636655,-0.029228602,1.699391,-0.30131862
0.2629726,-0.026545497,-0.10525487,-0.028318737,1.6464902,-0.2919388
0.2547865,-0.025719158,-0.101978384,-0.027437199,1.5952364,-0.282851
0.24685524,-0.024918549,-0.0988039,-0.026583107,1.5455784,-0.27404615
0.23917092,-0.024142863,-0.09572825,-0.025755607,1.4974663,-0.26551542
0.23172586,-0.023391327,-0.09274836,-0.024953868,1.4508522,-0.25725028
0.22451256,-0.02266319,-0.08986123,-0.02417709,1.4056892,-0.24924242
0.21752383,-0.021957718,-0.08706399,-0.023424493,1.3619323,-0.2414839
0.21075267,-0.02127421,-0.08435383,-0.022695327,1.3195375,-0.2339669
0.2041923,-0.02061198,-0.08172804,-0.021988861,1.2784626,-0.22668391
0.19783618,-0.019970369,-0.079183996,-0.02130439,1.2386664,-0.21962766
0.19167791,-0.01934873,-0.07671915,-0.020641224,1.2001091,-0.21279107
0.18571137,-0.018746443,-0.07433104,-0.019998705,1.1627522,-0.20616733
0.17993055,-0.018162904,-0.07201727,-0.019376187,1.1265582,-0.19974975
0.1743297,-0.017597532,-0.06977553,-0.018773047,1.0914907,-0.19353198
0.16890322,-0.01704976,-0.06760357,-0.018188685,1.0575151,-0.18750776
0.16364564,-0.01651904,-0.065499224,-0.017622512,1.024597,-0.18167107
0.15855174,-0.016004842,-0.06346039,-0.017073965,0.9927038,-0.17601608
0.1536164,-0.015506649,-0.06148502,-0.016542494,0.9618033,-0.17053713
0.1488347,-0.015023965,-0.059571143,-0.016027566,0.93186474,-0.16522872
0.14420184,-0.014556307,-0.057716843,-0.015528669,0.90285814,-0.16008556
0.13971321,-0.014103207,-0.055920266,-0.015045301,0.8747545,-0.1551025
