ax,ay,az,gx,gy,gz
0.19181992,5.441868,0.5563687,29.242085,-9.599178,-10.598278
1.1924864,6.8208265,1.4357511,19.554995,-9.067833,-24.829262
1.9236536,7.7790694,1.8979588,7.988888,-5.289108,-38.4629
2.3805494,8.224603,1.9417894,-1.2136483,0.20440167,-50.219566
2.581103,8.539189,1.5935826,-7.115985,4.6439466,-63.80627
2.5696673,8.682141,1.0708691,-12.20083,6.016694,-78.721
2.3449194,8.726937,0.48427868,-18.874638,4.792138,-90.919044
2.1355705,8.585823,0.04881211,-26.31271,2.2800636,-100.54792
2.0052054,8.141875,-0.2848449,-33.63365,-0.4053332,-107.928764
1.9710579,7.4514093,-0.5327118,-41.04477,-2.3909602,-113.08751
1.923762,6.5233755,-0.743261,-45.522472,-3.8416743,-116.555626
1.794725,5.2350087,-0.9529353,-46.574963,-5.898006,-118.787025
1.6849992,3.850935,-1.0752745,-45.072407,-8.634967,-118.46796
1.7025664,2.5527024,-1.023979,-42.75172,-10.708486,-114.26627
1.774706,1.4213204,-0.8598973,-40.77362,-11.617024,-107.17632
1.8358711,0.44337356,-0.6365293,-37.42122,-11.11749,-98.84674
1.8767623,-0.29279804,-0.34599134,-33.408127,-9.223108,-90.31112
1.8531784,-0.835873,-0.067787506,-29.533821,-6.7011847,-81.21136
1.8022299,-1.2139378,0.19351226,-25.858038,-3.7949698,-71.5774
1.750559,-1.4283837,0.44859436,-22.825438,-0.34180054,-61.70064
1.6958269,-1.4961228,0.69294864,-20.398531,3.8713257,-52.179916
1.6373508,-1.3941438,0.9040579,-17.76896,8.693912,-43.773952
1.5594153,-1.1945443,1.048085,-14.650188,13.436004,-37.31893
1.4663993,-0.96558654,1.1387857,-10.931521,18.06444,-32.644146
1.3828441,-0.71395475,1.1861789,-7.8974648,22.474882,-28.980387
1.3175026,-0.43456373,1.1685413,-6.110509,25.964209,-26.409204
1.2967676,-0.18594356,1.067251,-4.975172,29.027395,-24.483564
1.278429,0.037407357,0.87459975,-4.5682793,31.544989,-23.234371
1.2419354,0.24207252,0.57708853,-4.665936,33.0226,-22.656998
1.1917573,0.42793682,0.19771114,-4.930095,33.298122,-22.641003
1.1449685,0.5546691,-0.24309728,-4.9761443,31.489363,-22.75742
1.1412264,0.6010274,-0.75016075,-4.9052987,27.967993,-22.569012
1.1723534,0.5955435,-1.2669011,-4.555106,23.111404,-21.88806
1.2126895,0.55773336,-1.7585129,-3.5530906,17.039505,-21.25885
1.2325075,0.5126561,-2.2083206,-2.3531969,10.193621,-20.793533
1.2056334,0.4371237,-2.6230812,-1.1570636,2.264759,-19.657915
1.1252747,0.2765253,-2.9491825,-1.1063793,-6.0945396,-17.023743
1.0159901,0.10702588,-3.1393967,-2.34467,-14.75346,-13.392625
0.9261195,-0.0636635,-3.1245267,-3.2098384,-23.162481,-10.256577
0.94458085,-0.15618713,-2.8783467,-2.666185,-30.34551,-8.299191
1.0978545,-0.11762135,-2.4248583,-2.1519856,-34.658672,-6.6264105
1.2677091,0.040054183,-1.8241311,-2.4185438,-37.218407,-4.856124
1.4290192,0.18378542,-1.2139183,-2.8599653,-38.33227,-3.502745
1.6076281,0.301173,-0.6256104,-3.3919857,-37.62611,-2.5568714
1.757375,0.38810924,-0.12588075,-3.8094773,-35.20257,-1.9568199
1.862411,0.44262806,0.24249883,-5.1320767,-31.385345,-1.5918827
1.8975686,0.45772436,0.43794551,-6.8614964,-27.348484,-1.437911
1.832486,0.4420254,0.42292494,-6.6261616,-26.41049,-1.3885938
1.7700086,0.42695484,0.40850556,-6.4002466,-25.510042,-1.3412505
1.7099973,0.41247913,0.39465538,-6.1832495,-24.645136,-1.2957761
1.6523237,0.39856732,0.3813447,-5.974705,-23.813923,-1.252073
1.5968688,0.3851907,0.3685461,-5.7741838,-23.014685,-1.2100513
1.5435219,0.37232256,0.356234,-5.5812845,-22.245829,-1.169627
1.4921802,0.3599381,0.34438473,-5.395636,-21.505873,-1.1307219
1.4427478,0.3480142,0.33297607,-5.2168913,-20.793434,-1.0932639
1.3951352,0.33652925,0.3219874,-5.0447264,-20.107222,-1.0571846
1.3492584,0.32546306,0.31139937,-4.878839,-19.44603,-1.0224209
1.3050394,0.31479672,0.30119392,-4.7189455,-18.808727,-0.9889132
1.2624044,0.30451244,0.29135406,-4.5647798,-18.194256,-0.9566059
1.2212844,0.29459363,0.28186387,-4.4160924,-17.601618,-0.92544657
1.1816143,0.28502455,0.27270827,-4.2726474,-17.029877,-0.8953859
1.1433328,0.27579045,0.2638732,-4.1342244,-16.478151,-0.86637765
1.1063824,0.2668774,0.25534528,-4.0006137,-15.945606,-0.8383779
1.0707083,0.25827223,0.24711196,-3.8716183,-15.431458,-0.81134534
1.036259,0.24996252,0.23916131,-3.7470517,-14.934962,-0.7852408
1.0029857,0.24193645,0.23148206,-3.6267374,-14.455414,-0.76002747
0.970842,0.23418286,0.22406353,-3.5105076,-13.9921465,-0.7356701
0.93978405,0.22669117,0.21689557,-3.3982036,-13.544527,-0.71213543
0.90977,0.21945131,0.20996854,-3.2896748,-13.111954,-0.6893919
0.88076025,0.2124537,0.2032733,-3.1847773,-12.693854,-0.6674093
0.8527171,0.2056892,0.19680111,-3.0833747,-12.289685,-0.6461592
0.82560444,0.19914919,0.1905437,-2.985337,-11.898927,-0.6256141
0.799388,0.19282538,0.18449314,-2.89054,-11.521086,-0.60574824
0.7740351,0.18670984,0.17864187,-2.7988653,-11.15569,-0.5865367
0.7495144,0.18079506,0.17298266,-2.7102,-10.802289,-0.5679558
0.7257961,0.17507382,0.16750865,-2.6244361,-10.460451,-0.5499829
0.7028516,0.16953923,0.16221322,-2.54147,-10.129766,-0.53259635
0.6806535,0.16418469,0.15709005,-2.461203,-9.809839,-0.51577544
0.6591757,0.15900388,0.15213312,-2.3835404,-9.500293,-0.49950027
0.638393,0.15399076,0.14733662,-2.3083913,-9.200764,-0.48375186
0.6182813,0.1491395,0.142695,-2.235669,-8.910907,-0.46851194
0.5988176,0.14444454,0.1382029,-2.1652892,-8.630388,-0.45376304
0.57997966,0.13990052,0.13385524,-2.0971723,-8.358889,-0.4394883
0.5617462,0.13550231,0.12964708,-2.0312412,-8.096101,-0.4256716
0.5440967,0.13124496,0.1255737,-1.9674217,-7.84173,-0.41229746
0.5270115,0.12712374,0.121630564,-1.9056426,-7.595492,-0.3993509
0.51047176,0.12313408,0.1178133,-1.8458358,-7.3571143,-0.38681763
0.49445915,0.11927158,0.1141177,-1.7879351,-7.1263347,-0.37468383
0.47895616,0.115532,0.11053972,-1.7318773,-6.9028997,-0.36293623
0.46394593,0.1119113,0.10707547,-1.6776012,-6.6865664,-0.351562
0.44941217,0.108405516,0.10372118,-1.6250479,-6.4771004,-0.3405488
0.43533924,0.1050109,0.10047324,-1.574161,-6.274276,-0.32988483
0.42171198,0.10172378,0.09732816,-1.5248857,-6.0778747,-0.3195586
0.40851584,0.09854066,0.09428259,-1.4771693,-5.8876867,-0.30955902
0.3957368,0.09545814,0.09133328,-1.430961,-5.7035103,-0.2998755
0.38336128,0.09247296,0.08847709,-1.3862118,-5.5251493,-0.29049775
0.37137616,0.08958197,0.08571101,-1.3428743,-5.3524156,-0.28141585
0.35976887,0.0867821,0.08303213,-1.3009031,-5.185127,-0.27262026
0.3485272,0.084070414,0.08043763,-1.2602538,-5.023107,-0.2641017
0.33763933,0.08144409,0.07792479,-1.220884,-4.8661876,-0.25585127
0.32709396,0.07890038,0.07549099,-1.1827525,-4.7142034,-0.24786036
0.31688008,0.076436624,0.0731337,-1.1458197,-4.566997,-0.24012063
0.30698708,0.07405027,0.07085046,-1.1100472,-4.424415,-0.23262405
0.29740468,0.07173884,0.06863891,-1.0753978,-4.28631,-0.22536285
0.28812298,0.06949995,0.06649677,-1.0418358,-4.152539,-0.21832952
0.27913243,0.06733128,0.0644218,-1.0093265,-4.0229635,-0.21151678
0.27042374,0.06523059,0.062411897,-0.97783625,-3.8974502,-0.20491764
0.26198792,0.06319574,0.06046498,-0.9473329,-3.7758703,-0.1985253
0.2538164,0.061224636,0.05857904,-0.9177851,-3.658099,-0.19233318
0.2459007,0.059315246,0.056752156,-0.8891625,-3.5440152,-0.18633495
0.23823279,0.05746562,0.054982457,-0.8614358,-3.4335022,-0.18052448
0.23080482,0.05567387,0.05326813,-0.8345766,-3.3264472,-0.17489581
0.22360918,0.053938165,0.05160743,-0.8085576,-3.2227411,-0.1694432
0.21663855,0.05225674,0.04999866,-0.78335226,-3.1222777,-0.16416112
0.20988585,0.050627876,0.04844018,-0.75893486,-3.0249553,-0.15904415
0.20334418,0.04904992,0.04693041,-0.73528063,-2.9306743,-0.15408711
0.19700693,0.04752127,0.045467816,-0.71236545,-2.8393393,-0.14928496
0.19086763,0.046040375,0.04405091,-0.6901661,-2.7508574,-0.14463282
0.18492007,0.04460573,0.042678256,-0.6686601,-2.665139,-0.14012596
0.17915824,0.04321588,0.041348465,-0.64782566,-2.582097,-0.13575985
0.17357628,0.041869417,0.040060185,-0.6276416,-2.5016477,-0.13153003
0.16816854,0.040564984,0.03881212,-0.6080876,-2.4237094,-0.12743224
0.16292958,0.03930126,0.037603006,-0.5891438,-2.3482037,-0.12346234
0.1578541,0.03807697,0.036431618,-0.5707911,-2.2750537,-0.119616315
0.15293695,0.03689088,0.035296775,-0.553011,-2.204186,-0.11589027
0.1481732,0.035741784,0.034197334,-0.53578556,-2.1355288,-0.112280466
0.14355803,0.03462853,0.033132184,-0.5190974,-2.069013,-0.108783245
0.13908678,0.03354999,0.032100253,-0.5029296,-2.004572,-0.10539509
0.13475496,0.032505084,0.031100499,-0.487266,-1.9421401,-0.10211259
0.13055821,0.03149276,0.030131916,-0.47209078,-1.8816547,-0.09893244
0.12649228,0.030511992,0.02919353,-0.45738864,-1.8230551,-0.09585142
0.1225531,0.0295618,0.028284397,-0.44314483,-1.7662823,-0.09286646
0.118736714,0.028641224,0.0274036,-0.42934498,-1.711279,-0.08997453
0.115039274,0.027749341,0.026550256,-0.41597524,-1.65799,-0.08717273
0.11145706,0.026885252,0.025723508,-0.40302217,-1.6063617,-0.08445826
0.10798648,0.026048092,0.02492252,-0.39047274,-1.5563425,-0.08182837
0.10462404,0.025237018,0.024146494,-0.37831438,-1.5078816,-0.079280436
0.10136637,0.024451215,0.023394646,-0.36653483,-1.460931,-0.07681189
0.09821019,0.023689894,0.022666223,-0.3551223,-1.415443,-0.07442025
0.09515235,0.022952292,0.021960495,-0.3440653,-1.3713721,-0.07210312
0.09218977,0.02223767,0.021276752,-0.33335277,-1.3286742,-0.06985818
0.089319475,0.021545308,0.020614307,-0.32297397,-1.2873064,-0.067683175
0.08653859,0.020874513,0.019972498,-0.31291842,-1.2472272,-0.06557591
0.08384432,0.020224612,0.019350681,-0.30317613,-1.2083964,-0.06353429
0.08123397,0.019594954,0.018748231,-0.29373726,-1.170775,-0.06155626
0.07870492,0.018984906,0.018164545,-0.2845924,-1.1343255,-0.059639838
0.07625464,0.01839386,0.017599037,-0.2757323,-1.0990112,-0.0577831
0.07388067,0.017821219,0.017051142,-0.26714817,-1.0647966,-0.05598419
0.07158063,0.017266411,0.016520308,-0.25883135,-1.0316476,-0.0542413
0.069352224,0.016728884,0.016006006,-0.25077355,-0.9995308,-0.05255269
0.0671932,0.016208092,0.01550772,-0.24296667,-0.9684142,-0.05091666
0.065101415,0.01570352,0.01502495,-0.2354029,-0.9382666,-0.049331576
0.06307477,0.015214658,0.0145572135,-0.22807464,-0.9090577,-0.04779585
0.061111223,0.014741019,0.014104041,-0.22097458,-0.88075835,-0.046307944
0.059208818,0.014282129,0.0136649795,-0.21409559,-0.85334015,-0.04486637
0.05736565,0.013837526,0.013239589,-0.2074308,-0.82677567,-0.04346968
0.055579867,0.013406767,0.012827443,-0.20097353,-0.8010383,-0.042116478
0.053849686,0.0129894195,0.01242813,-0.1947173,-0.7761023,-0.040805407
0.052173376,0.012585066,0.012041249,-0.18865585,-0.7519427,-0.03953516
0.050549258,0.012193303,0.011666414,-0.18278314,-0.72853523,-0.03830446
0.048975706,0.011813736,0.011303249,-0.17709327,-0.7058566,-0.037112076
0.047451142,0.011445986,0.0109513905,-0.17158054,-0.683884,-0.035956815
0.045974042,0.011089686,0.010610486,-0.16623944,-0.6625955,-0.03483752
0.04454293,0.010744479,0.010280196,-0.16106462,-0.6419698,-0.033753075
0.043156374,0.010410018,0.0099601885,-0.1560509,-0.62198615,-0.03270239
0.041812982,0.01008597,0.009650143,-0.15119328,-0.6026247,-0.031684414
0.04051141,0.009772011,0.009349749,-0.14648688,-0.583866,-0.030698132
0.039250363,0.009467825,0.009058708,-0.141927,-0.56569123,-0.029742552
0.03802857,0.009173109,0.008776727,-0.13750908,-0.54808235,-0.02881672
0.036844816,0.008887568,0.008503525,-0.13322867,-0.5310216,-0.027919712
0.03569791,0.008610915,0.008238827,-0.12908155,-0.5144919,-0.027050627
0.03458671,0.008342876,0.0079823695,-0.1250635,-0.4984769,-0.026208598
0.0335101,0.0080831805,0.0077338954,-0.12117054,-0.48296037,-0.02539278
0.032467004,0.007831569,0.0074931565,-0.117398776,-0.4679269,-0.02460236
0.03145638,0.00758779,0.007259912,-0.11374442,-0.4533614,-0.023836544
0.030477216,0.0073516,0.007033928,-0.110203825,-0.4392493,-0.023094568
0.029528534,0.007122762,0.0068149786,-0.10677344,-0.42557654,-0.02237569
0.028609384,0.006901048,0.006602845,-0.10344985,-0.4123294,-0.02167919
0.027718846,0.006686236,0.006397315,-0.10022971,-0.39949462,-0.021004371
0.02685603,0.0064781103,0.006198183,-0.09710982,-0.38705936,-0.020350559
