ax,ay,az,gx,gy,gz
-1.6963791,3.3891215,-1.274557,34.73486,-39.61763,40.394913
-1.0634503,3.675897,-0.778766,11.05976,-35.63073,34.060326
0.2112616,4.1225452,0.21069245,-11.686519,-24.056953,29.502934
1.0638626,4.5062704,0.7495893,-18.283712,-11.548275,20.14371
1.4231873,5.0531545,0.87259316,-18.240757,-4.8981566,6.5470862
1.6462367,6.0374627,0.8302951,-19.504808,-0.35030255,-7.7178273
1.9002573,6.962412,0.7514675,-23.568138,3.2364767,-22.131308
2.1364765,7.4716835,0.5740945,-29.334919,5.8364396,-34.667175
2.2841496,7.6656523,0.24377845,-33.90749,7.204493,-46.81279
2.2986002,7.7271156,-0.18813016,-37.2928,6.8374033,-59.353996
2.1252387,7.5134115,-0.65356165,-41.232395,4.770665,-70.02021
1.9335274,7.0210967,-1.047061,-45.41518,1.2834723,-78.553406
1.7785233,6.2607107,-1.3425494,-49.28023,-2.3570023,-84.894615
1.6381726,5.3003235,-1.5478328,-51.367767,-5.809084,-89.87116
1.5659808,4.2368355,-1.6227814,-51.15372,-9.221385,-92.73861
1.6914172,3.080435,-1.4261807,-50.793957,-11.225913,-92.47144
1.7822487,1.9337767,-1.176357,-50.071354,-12.316661,-89.67325
1.7943058,0.8869751,-0.91572356,-48.58155,-12.654336,-85.01826
1.7192458,0.012199582,-0.67185223,-45.855545,-12.511376,-79.364105
1.6246743,-0.6612078,-0.40587145,-41.979706,-11.469491,-72.937965
1.5620369,-1.1361054,-0.10480182,-38.04144,-9.662629,-65.74551
1.5249305,-1.4434189,0.18470699,-33.998993,-6.823659,-58.01969
1.4937366,-1.6124961,0.43435022,-29.77666,-3.7181647,-50.582245
1.4510046,-1.6698875,0.6407953,-25.835424,-0.94880515,-43.648643
1.4230484,-1.6608428,0.8360232,-22.077833,1.7568054,-37.091984
1.4499056,-1.5638884,1.030222,-18.42524,4.768574,-31.278954
1.5078597,-1.4189061,1.2135174,-14.737417,8.544298,-26.457226
1.5691165,-1.2398227,1.3504725,-11.118598,12.962247,-22.532207
1.6076536,-1.0320901,1.3936883,-7.8431754,17.337572,-19.36192
1.6159403,-0.80232656,1.3570682,-5.49003,20.959175,-17.153757
1.6047194,-0.53961825,1.2440027,-3.6271856,24.097673,-15.829069
1.5760449,-0.30249774,1.0539845,-2.1658294,26.713223,-15.157697
1.5261774,-0.11017852,0.78160447,-0.9139898,28.73902,-14.897934
1.461508,0.0370823,0.4302521,0.24997273,29.975565,-14.854435
1.3919345,0.15995358,0.024764307,0.9703273,29.818842,-15.033681
1.3213716,0.24695536,-0.45022142,1.4569173,28.592344,-15.336909
1.2690492,0.25860634,-0.9690979,1.9881732,26.37976,-15.816425
1.2116073,0.1639964,-1.5285457,2.7806296,23.27715,-16.02139
1.122453,0.038945742,-2.1035228,3.9837768,19.01799,-15.846624
1.0135071,-0.02705344,-2.6439087,4.351417,12.702904,-15.102013
0.9120043,-0.08653739,-3.061001,3.7320316,5.4323416,-13.834851
0.8696763,-0.24392027,-3.3549285,3.1997042,-2.2305508,-12.440944
0.8746662,-0.47584486,-3.4939346,3.4158125,-9.396031,-10.70932
0.8764062,-0.6362603,-3.4581375,3.779704,-16.246147,-8.415672
0.92126316,-0.66271186,-3.204131,3.5491283,-22.432453,-5.6494203
1.0902776,-0.53543293,-2.6662674,3.1797671,-27.26712,-3.3745728
1.2842132,-0.36763594,-2.0252278,2.9225621,-30.303383,-1.8740063
1.4405698,-0.20027494,-1.3995587,2.8097715,-32.201035,-0.9179537
1.5834739,-0.053796105,-0.8392326,2.603679,-32.63891,-0.17913005
1.6985298,0.056556206,-0.3925326,2.511266,-31.499176,0.6505519
1.747113,0.14099057,-0.098648764,2.4903798,-29.623663,1.3799871
1.7453305,0.20002607,0.086634025,2.2388215,-27.406517,1.8376024
1.7169232,0.2234102,0.19101024,1.7113618,-24.882153,1.9719459
1.6666659,0.22299741,0.22270925,1.0108707,-22.200943,1.8921505
1.6114532,0.21561003,0.21533142,0.9773829,-21.465477,1.829468
1.558273,0.2084946,0.20822518,0.9451279,-20.757086,1.769093
1.5070318,0.20163861,0.20137805,0.91404897,-20.074526,1.7109194
1.4576421,0.19503033,0.19477831,0.884093,-19.416626,1.6548477
1.4100215,0.18865879,0.18841499,0.85521007,-18.782293,1.6007847
1.3640932,0.18251364,0.1822778,0.8273535,-18.170502,1.5486425
1.3197844,0.17658518,0.17635699,0.8004792,-17.580282,1.498339
1.2770267,0.17086425,0.17064346,0.7745456,-17.010725,1.4497966
1.2357554,0.16534223,0.16512857,0.7495137,-16.460968,1.4029418
1.1959099,0.16001095,0.15980418,0.72534645,-15.9302025,1.3577055
1.1574323,0.15486272,0.1546626,0.70200896,-15.41766,1.3140223
1.1202682,0.14989021,0.14969653,0.6794681,-14.922613,1.2718302
1.0843658,0.14508653,0.14489906,0.6576925,-14.444373,1.2310706
1.0496762,0.1404451,0.14026362,0.6366524,-13.982286,1.1916877
1.0161525,0.13595968,0.135784,0.61631954,-13.535732,1.1536286
0.9837505,0.13162436,0.13145427,0.59666705,-13.104119,1.116843
0.95242816,0.12743346,0.12726879,0.57766926,-12.686888,1.081283
0.9221451,0.12338164,0.1232222,0.5593019,-12.2835,1.0469029
0.89286315,0.11946375,0.11930938,0.54154176,-11.893447,1.0136594
0.86454564,0.11567491,0.11552543,0.52436656,-11.516242,0.9815107
0.83715767,0.11201044,0.11186571,0.5077551,-11.151419,0.95041746
0.8106659,0.10846589,0.10832573,0.49168727,-10.798533,0.92034155
0.7850384,0.10503697,0.10490124,0.4761436,-10.45716,0.8912469
0.76024467,0.101719595,0.10158815,0.4611056,-10.126893,0.8630988
0.73625535,0.09850986,0.09838257,0.44655555,-9.807342,0.83586395
0.71304244,0.095404014,0.09528073,0.4324764,-9.498133,0.8095105
0.69057906,0.09239844,0.09227905,0.41885185,-9.198908,0.784008
0.66883934,0.089489706,0.089374065,0.40566626,-8.909323,0.7593272
0.64779866,0.08667449,0.086562485,0.39290458,-8.629048,0.73543984
0.62743306,0.0839496,0.08384112,0.38055238,-8.357767,0.712319
0.6077198,0.08131199,0.081206925,0.3685958,-8.095175,0.68993866
0.58863676,0.078758724,0.07865695,0.35702157,-7.840978,0.6682739
0.57016295,0.07628695,0.07618837,0.34581676,-7.5948963,0.6473008
0.5522779,0.07389396,0.07379847,0.33496907,-7.3566575,0.62699604
0.5349621,0.07157713,0.07148464,0.32446668,-7.1260014,0.6073376
0.5181967,0.06933394,0.06924435,0.31429806,-6.902676,0.588304
0.50196344,0.06716196,0.06707517,0.3044522,-6.68644,0.5698745
0.48624492,0.06505884,0.06497477,0.29491857,-6.4770603,0.5520294
0.4710242,0.06302233,0.062940896,0.28568685,-6.2743115,0.53474945
0.456285,0.06105025,0.06097136,0.2767472,-6.0779767,0.51801616
0.44201165,0.059140496,0.059064075,0.2680901,-5.887848,0.50181174
0.42818898,0.057291046,0.057217017,0.25970635,-5.703722,0.48611903
0.41480243,0.055499945,0.05542823,0.2515871,-5.5254054,0.4709214
0.40183786,0.053765304,0.053695828,0.24372378,-5.35271,0.45620283
0.38928163,0.052085303,0.052017998,0.23610814,-5.185454,0.44194788
0.37712064,0.050458178,0.050392978,0.22873223,-5.0234623,0.42814162
0.36534217,0.048882235,0.04881907,0.22158831,-4.8665667,0.41476962
0.35393393,0.04735583,0.04729464,0.21466896,-4.7146025,0.40181795
0.3428841,0.045877382,0.045818098,0.20796698,-4.5674124,0.38927317
0.33218122,0.04444535,0.044387918,0.20147544,-4.4248433,0.37712228
0.32181418,0.043058258,0.043002617,0.1951876,-4.286749,0.3653527
0.31177232,0.041714672,0.041660767,0.18909699,-4.1529856,0.35395226
0.3020453,0.04041321,0.040360987,0.18319732,-4.023416,0.34290925
0.29262307,0.03915253,0.039101936,0.17748253,-3.8979065,0.3322123
0.283496,0.03793134,0.037882324,0.17194675,-3.7763286,0.3218504
0.27465472,0.03674839,0.036700904,0.16658431,-3.6585577,0.31181297
0.26609015,0.035602465,0.03555646,0.16138972,-3.544473,0.30208972
0.2577936,0.0344924,0.034447826,0.15635766,-3.433958,0.2926707
0.24975656,0.033417054,0.03337387,0.15148301,-3.3269,0.28354633
0.24197084,0.032375336,0.0323335,0.1467608,-3.2231898,0.27470726
0.23442851,0.031366184,0.031325653,0.14218621,-3.1227217,0.26614454
0.2271219,0.030388571,0.030349303,0.13775459,-3.0253937,0.25784943
0.22004361,0.029441506,0.029403461,0.13346145,-2.9311066,0.2498135
0.21318643,0.028524026,0.028487166,0.1293024,-2.839765,0.2420286
0.2065434,0.0276352,0.02759949,0.12527326,-2.7512763,0.23448683
0.20010781,0.026774127,0.026739528,0.12136993,-2.6655505,0.22718057
0.19387314,0.025939936,0.025906416,0.11758845,-2.582501,0.2201024
0.18783307,0.025131784,0.025099307,0.11392502,-2.5020437,0.21324515
0.18198149,0.024348851,0.024317387,0.1103759,-2.4240975,0.20660192
0.1763125,0.02359035,0.023559866,0.106937535,-2.3485835,0.20016597
0.17082039,0.022855513,0.022825979,0.10360644,-2.2754252,0.19393082
0.1654996,0.022143599,0.022114985,0.10037926,-2.204549,0.18789017
0.16034475,0.021453887,0.021426165,0.09725273,-2.1358838,0.18203792
0.15535067,0.020785687,0.020758828,0.0942237,-2.0693595,0.17636819
0.15051231,0.020138323,0.0201123,0.09128913,-2.00491,0.17087525
0.1458248,0.019511143,0.01948593,0.08844606,-1.9424698,0.16555357
0.14128345,0.018903514,0.018879088,0.085691616,-1.8819762,0.16039781
0.13688366,0.01831483,0.018291162,0.08302304,-1.8233685,0.15540276
0.132621,0.01774449,0.017721562,0.080437645,-1.7665875,0.1505634
0.12849121,0.017191932,0.017169716,0.07793283,-1.7115762,0.14587489
0.12449011,0.01665659,0.016635066,0.075506076,-1.6582794,0.14133248
0.1206137,0.016137933,0.01611708,0.07315494,-1.6066434,0.13693163
0.11685808,0.015635436,0.015615232,0.070877075,-1.5566164,0.13266791
0.11321948,0.015148597,0.015129022,0.06867018,-1.5081482,0.12853704
0.10969424,0.014676926,0.01465796,0.066532046,-1.46119,0.12453487
0.10627884,0.01421995,0.014201574,0.06446052,-1.4156948,0.12065739
0.102969825,0.013777209,0.013759406,0.06245354,-1.371617,0.116900705
0.0997639,0.013348261,0.013331012,0.060509067,-1.3289121,0.113261044
0.096657835,0.012932674,0.012915962,0.05862517,-1.2875376,0.10973476
0.09364852,0.012530032,0.012513841,0.056799952,-1.2474518,0.10631831
0.09073293,0.012139931,0.012124244,0.055031583,-1.2086146,0.10300827
0.087908156,0.01176198,0.011746781,0.053318292,-1.1709869,0.099801324
0.08517136,0.011395801,0.011381075,0.051658362,-1.1345311,0.09669426
0.08251979,0.011041025,0.011026758,0.050050125,-1.0992107,0.093683966
0.0799508,0.010697298,0.010683474,0.048491973,-1.0649904,0.09076741
0.07746181,0.0103642745,0.010350882,0.046982348,-1.0318356,0.087941684
0.07505033,0.010041622,0.010028646,0.04551973,-0.9997133,0.08520395
0.07271395,0.0097290175,0.009716446,0.044102658,-0.96859133,0.08255148
0.07045031,0.009426147,0.009413966,0.042729713,-0.9384384,0.079981595
0.06825716,0.009132707,0.009120905,0.041399516,-0.9092244,0.07749173
0.0661323,0.008848404,0.00883697,0.04011074,-0.88092005,0.0750794
0.06407361,0.008572953,0.008561875,0.038862094,-0.853497,0.07274218
0.06207901,0.008306079,0.008295345,0.037652325,-0.82692784,0.07047773
0.06014651,0.008047514,0.0080371145,0.036480226,-0.8011859,0.06828378
0.058274187,0.007796999,0.0077869236,0.035344616,-0.7762455,0.066158146
0.056460153,0.0075542843,0.0075445226,0.034244362,-0.7520815,0.06409869
0.0547026,0.007319126,0.007309668,0.033178367,-0.7286699,0.06210336
0.052999765,0.0070912894,0.0070821256,0.03214556,-0.70598716,0.060170148
0.05134994,0.006870546,0.0068616676,0.031144906,-0.68401057,0.05829712
0.049751487,0.0066566747,0.006648073,0.030175405,-0.66271824,0.05648241
0.048202794,0.006449462,0.0064411275,0.029236088,-0.6420888,0.05472419
0.046702314,0.0062487,0.0062406254,0.028326014,-0.62210155,0.053020712
0.04524855,0.006054188,0.006046365,0.027444271,-0.60273653,0.051370263
0.04384004,0.0058657317,0.005858152,0.026589978,-0.58397436,0.049771197
0.04247538,0.005683142,0.0056757987,0.025762282,-0.5657963,0.04822191
0.041153204,0.005506237,0.0054991217,0.024960352,-0.5481842,0.046720855
0.039872188,0.005334839,0.005327945,0.024183385,-0.5311203,0.045266528
0.038631048,0.0051687765,0.0051620975,0.023430608,-0.51458764,0.043857474
0.037428547,0.0050078835,0.0050014127,0.022701263,-0.49856964,0.042492285
0.03626348,0.0048519997,0.0048457296,0.021994622,-0.4830503,0.041169595
0.03513468,0.004700968,0.004694893,0.021309981,-0.46801403,0.03988808
0.03404102,0.0045546377,0.004548752,0.020646652,-0.45344585,0.03864646
0.032981407,0.004412863,0.0044071604,0.02000397,-0.43933117,0.03744349
0.031954776,0.0042755012,0.0042699766,0.019381296,-0.42565587,0.036277965
0.030960103,0.0041424157,0.004137063,0.018778006,-0.41240627,0.03514872
0.029996395,0.0040134727,0.0040082866,0.018193495,-0.39956912,0.034054633
