ax,ay,az,gx,gy,gz
-0.1127283,5.1073194,-1.4181947,-10.209184,11.874654,-9.876453
-0.41446134,6.1096535,-2.0808675,-7.5842395,0.10989597,-25.3819
-0.35484973,6.5615516,-2.0595813,-9.689588,-11.267127,-42.249256
0.33889833,6.874036,-1.5424054,-14.414966,-15.74071,-54.050144
0.9866801,7.1916943,-1.0512261,-19.663559,-14.561853,-64.616936
1.3374062,7.4388213,-0.8487945,-24.550549,-11.293452,-75.20566
1.4368291,7.5169187,-0.8902148,-28.78219,-8.91498,-86.0063
1.3909825,7.4050865,-1.046516,-32.09132,-7.901992,-95.73857
1.2776599,7.1245756,-1.2257762,-34.720913,-8.276144,-103.989395
1.1630901,6.644503,-1.3938854,-37.556995,-11.412316,-109.85414
1.1738083,5.993954,-1.4370825,-40.7375,-14.833998,-113.401764
1.2878916,5.0958114,-1.3759067,-42.417873,-17.184256,-115.499954
1.4232212,3.9940996,-1.2567868,-41.209454,-17.866611,-115.723305
1.5268805,2.8209262,-1.0736998,-39.43995,-17.80373,-113.45052
1.5731941,1.7460136,-0.8645345,-38.015236,-17.520262,-108.942474
1.5959936,0.7741751,-0.6296842,-36.87259,-17.124002,-102.81399
1.6022251,-0.09684046,-0.38644108,-35.160744,-16.318552,-95.65209
1.5999668,-0.8166873,-0.14472958,-31.761463,-14.621387,-87.542725
1.595148,-1.2820605,0.090197474,-27.342943,-11.967701,-78.96968
1.5579302,-1.5281862,0.30323428,-23.045952,-8.708906,-70.51579
1.4811468,-1.6391925,0.4982793,-19.019815,-5.4498906,-62.289154
1.4042835,-1.6437492,0.686953,-15.812437,-2.3290684,-54.34997
1.3440851,-1.5602174,0.86685467,-13.625993,0.91550297,-46.89146
1.3149345,-1.3593985,1.0226344,-11.789767,4.396091,-40.952873
1.290488,-1.1621239,1.1344757,-9.796704,8.207722,-36.450066
1.2545606,-0.96893364,1.1733122,-7.3362217,12.293548,-32.810246
1.2002326,-0.7833348,1.1312429,-4.76057,16.362535,-29.824127
1.1598288,-0.61452895,1.008203,-2.8537686,19.708632,-27.367718
1.1439024,-0.42054638,0.7716873,-1.944958,21.961407,-25.857996
1.1228889,-0.27154243,0.4561818,-1.5795134,23.115885,-24.849104
1.0948142,-0.13841243,0.06592151,-1.3649629,23.199963,-24.315428
1.0621485,-0.04965274,-0.40053505,-0.9691816,22.146687,-24.046251
1.0537381,-0.045384426,-0.92302346,-0.44186205,19.464994,-23.1132
1.0474832,-0.08808351,-1.4934388,0.28502318,15.811942,-22.101448
0.9930563,-0.13743977,-2.0726483,1.2931833,10.490438,-21.698244
0.91907924,-0.19760655,-2.589222,2.1298091,4.107433,-21.3066
0.8797788,-0.2885842,-3.001326,2.2270198,-3.0818949,-20.062109
0.8762368,-0.44159868,-3.3035,1.6442479,-11.232961,-17.12945
0.8693177,-0.62896794,-3.4106097,1.2970601,-19.569054,-13.632002
0.8886128,-0.7153374,-3.2921875,1.4527183,-27.262886,-10.415204
0.94496286,-0.6629356,-2.9498563,1.9216279,-33.707424,-7.980765
1.0873363,-0.49581474,-2.427615,1.732278,-38.61984,-6.0524535
1.3056267,-0.29117402,-1.7756732,0.6028497,-40.63453,-4.3222694
1.4951831,-0.12275157,-1.1059697,-0.63256234,-40.77284,-3.3539457
1.6482009,-0.019962534,-0.50853986,-1.7661529,-39.28594,-2.7452114
1.757378,0.01680156,-0.022126691,-2.8479815,-36.52516,-2.1153274
1.8270181,-0.0006221512,0.34844103,-3.9842129,-33.05665,-1.684177
1.864951,-0.03654495,0.60301876,-4.620019,-28.958652,-1.7582886
1.8445983,-0.0630177,0.708097,-4.749679,-24.693832,-2.1727984
1.8057574,-0.07108638,0.7379636,-4.930096,-20.351074,-2.6454341
1.7448541,-0.06868883,0.7130741,-4.7638173,-19.664688,-2.556211
1.6862936,-0.06638351,0.68914205,-4.6039352,-19.004705,-2.47042
1.6299593,-0.06416582,0.66611975,-4.450131,-18.369812,-2.38789
1.5757425,-0.062031496,0.64396286,-4.3021073,-17.758783,-2.3084626
1.5235418,-0.05997654,0.6226299,-4.159589,-17.170477,-2.2319887
1.4732629,-0.05799723,0.6020822,-4.0223165,-16.603827,-2.15833
1.4248171,-0.05609009,0.58228374,-3.8900495,-16.057838,-2.0873568
1.3781217,-0.054251857,0.56320065,-3.7625613,-15.531577,-2.018948
1.3330992,-0.052479476,0.5448012,-3.6396403,-15.024168,-1.9529902
1.2896764,-0.05077007,0.52705544,-3.521087,-14.534789,-1.8893758
1.2477847,-0.049120944,0.5099355,-3.406714,-14.062666,-1.8280045
1.2073597,-0.047529545,0.49341482,-3.296345,-13.60707,-1.7687817
1.16834,-0.045993477,0.47746855,-3.189813,-13.167314,-1.7116178
1.1306682,-0.04451047,0.46207312,-3.086961,-12.742748,-1.6564286
1.0942897,-0.043078374,0.44720623,-2.9876404,-12.33276,-1.6031343
1.0591531,-0.041695166,0.43284684,-2.8917098,-11.936766,-1.551659
1.0252093,-0.04035892,0.41897497,-2.7990363,-11.554216,-1.5019314
0.99241203,-0.03906781,0.40557164,-2.709493,-11.184588,-1.4538835
0.96071726,-0.037820093,0.39261883,-2.6229594,-10.827384,-1.4074506
0.930083,-0.036614127,0.38009945,-2.5393214,-10.482133,-1.3625714
0.90046936,-0.035448343,0.36799717,-2.45847,-10.148384,-1.3191874
0.87183833,-0.03432124,0.35629648,-2.3803015,-9.82571,-1.277243
0.8441538,-0.033231396,0.34498256,-2.3047168,-9.513702,-1.2366852
0.81738114,-0.03217745,0.3340413,-2.231622,-9.211971,-1.1974633
0.79148734,-0.0311581,0.3234592,-2.1609263,-8.920145,-1.1595289
0.7664408,-0.030172106,0.31322336,-2.092544,-8.637868,-1.1228356
0.7422114,-0.029218279,0.30332148,-2.0263927,-8.3648,-1.0873395
0.7187702,-0.028295482,0.2937417,-1.9623934,-8.1006155,-1.0529983
0.6960896,-0.027402624,0.28447276,-1.9004706,-7.845003,-1.0197712
0.6741431,-0.026538666,0.2755038,-1.8405519,-7.597663,-0.98761946
0.65290517,-0.025702603,0.26682445,-1.782568,-7.3583097,-0.95650595
0.63235146,-0.024893476,0.25842473,-1.7264521,-7.1266675,-0.9263948
0.6124586,-0.024110362,0.25029507,-1.6721404,-6.9024725,-0.8972517
0.593204,-0.023352377,0.24242625,-1.6195713,-6.6854715,-0.8690438
0.5745662,-0.02261867,0.23480947,-1.5686861,-6.475421,-0.84173936
0.5565242,-0.021908423,0.22743623,-1.5194279,-6.2720866,-0.8153079
0.5390582,-0.021220846,0.22029835,-1.471742,-6.075243,-0.78972024
0.5221489,-0.020555185,0.21338797,-1.425576,-5.884673,-0.76494807
0.5057778,-0.01991071,0.20669752,-1.3808793,-5.7001686,-0.74096435
0.48992696,-0.019286718,0.20021974,-1.3376033,-5.5215282,-0.7177429
0.4745793,-0.018682536,0.19394757,-1.295701,-5.348559,-0.6952586
0.4597183,-0.018097509,0.18787427,-1.2551273,-5.181073,-0.6734872
0.4453279,-0.01753101,0.18199332,-1.2158386,-5.0188923,-0.6524053
0.4313928,-0.016982432,0.17629842,-1.1777928,-4.861842,-0.6319904
0.41789812,-0.016451193,0.17078352,-1.1409495,-4.7097554,-0.61222064
0.40482953,-0.01593673,0.16544275,-1.1052696,-4.5624714,-0.5930752
0.39217326,-0.015438496,0.16027048,-1.0707153,-4.419834,-0.57453376
0.37991595,-0.014955969,0.15526126,-1.0372503,-4.281693,-0.55657685
0.36804473,-0.01448864,0.15040982,-1.0048393,-4.147903,-0.5391855
0.35654718,-0.014036021,0.14571108,-0.9734486,-4.0183244,-0.52234155
0.34541127,-0.013597639,0.14116013,-0.9430452,-3.8928213,-0.50602746
0.3346254,-0.013173037,0.13675225,-0.9135975,-3.7712634,-0.49022615
0.3241784,-0.0127617745,0.13248283,-0.885075,-3.6535244,-0.4749213
0.31405938,-0.0123634245,0.12834747,-0.8574479,-3.539482,-0.46009693
0.3042579,-0.011977575,0.12434188,-0.8306879,-3.4290185,-0.44573778
0.29476386,-0.011603828,0.120461926,-0.8047672,-3.3220198,-0.43182904
0.2855675,-0.011241798,0.116703615,-0.7796591,-3.2183757,-0.41835633
0.27665928,-0.010891113,0.11306308,-0.7553379,-3.1179793,-0.4053058
0.26803014,-0.0105514135,0.10953658,-0.73177844,-3.0207276,-0.3926641
0.25967118,-0.01022235,0.106120504,-0.7089568,-2.9265213,-0.38041824
0.25157386,-0.009903587,0.10281135,-0.68684936,-2.8352637,-0.36855567
0.2437299,-0.009594798,0.09960574,-0.66543376,-2.7468617,-0.35706428
0.23613133,-0.0092956675,0.096500404,-0.644688,-2.6612248,-0.34593233
0.22877035,-0.009005892,0.09349217,-0.624591,-2.5782657,-0.3351485
0.22163948,-0.008725175,0.09057799,-0.60512227,-2.4979002,-0.32470182
0.21473148,-0.008453231,0.08775488,-0.586262,-2.4200463,-0.3145816
0.20803934,-0.008189784,0.08501998,-0.567991,-2.3446252,-0.3047776
0.20155624,-0.0079345675,0.08237052,-0.5502908,-2.27156,-0.29527986
0.19527562,-0.0076873214,0.0798038,-0.5331434,-2.2007768,-0.28607875
0.18919112,-0.007447796,0.07731723,-0.5165314,-2.1322038,-0.27716497
0.18329658,-0.0072157476,0.074908294,-0.50043803,-2.0657716,-0.26852944
0.177586,-0.006990943,0.07257454,-0.48484704,-2.0014129,-0.2601635
0.17205366,-0.006773154,0.070313625,-0.46974257,-1.9390628,-0.2520586
0.16669394,-0.0065621603,0.06812325,-0.45510942,-1.8786583,-0.2442066
0.16150144,-0.0063577495,0.06600122,-0.4409328,-1.8201382,-0.2365996
0.15647091,-0.0061597154,0.06394538,-0.4271984,-1.7634437,-0.22922987
0.15159729,-0.005967858,0.061953664,-0.4138924,-1.7085174,-0.22209
0.14687565,-0.0057819835,0.06002406,-0.40100133,-1.6553041,-0.21517281
0.14230126,-0.005601905,0.058154628,-0.38851225,-1.6037501,-0.20847131
0.13786948,-0.005427441,0.05634348,-0.37641257,-1.5538034,-0.20197876
0.13357586,-0.0052584168,0.0545888,-0.36469012,-1.505414,-0.19568862
0.1294161,-0.005094661,0.052888814,-0.3533331,-1.4585329,-0.18959455
0.12538598,-0.0049360096,0.05124182,-0.34233004,-1.4131132,-0.18369044
0.121481486,-0.0047823032,0.049646158,-0.33166993,-1.369109,-0.17797035
0.11769867,-0.0046333866,0.048100222,-0.32134205,-1.3264763,-0.17242853
0.11403373,-0.0044891112,0.046602465,-0.311336,-1.2851721,-0.1670594
0.110483,-0.004349331,0.045151375,-0.30164173,-1.245155,-0.16185758
0.1070429,-0.0042139064,0.043745503,-0.29224956,-1.2063847,-0.15681782
0.10370998,-0.0040827007,0.04238343,-0.28315,-1.1688223,-0.1519351
0.10048089,-0.003955583,0.041063793,-0.27433392,-1.1324302,-0.14720449
0.09735241,-0.0038324252,0.039785262,-0.2657925,-1.0971718,-0.14262126
0.09432138,-0.0037131042,0.038546562,-0.25751713,-1.0630118,-0.13818079
0.09138476,-0.0035974998,0.03734645,-0.24949954,-1.0299158,-0.13387866
0.088539615,-0.0034854964,0.036183715,-0.2417317,-0.9978507,-0.12971053
0.08578309,-0.0033769815,0.0350572,-0.23420581,-0.96678436,-0.1256722
0.08311241,-0.0032718463,0.033965766,-0.2269143,-0.9366856,-0.12175967
0.080524914,-0.0031699855,0.032908328,-0.2198499,-0.9075242,-0.117968984
0.078018,-0.0030712972,0.03188382,-0.2130055,-0.8792711,-0.11429636
0.07558916,-0.002975682,0.030891221,-0.20637426,-0.8518978,-0.110738106
0.07323596,-0.0028830445,0.02992953,-0.19994952,-0.8253769,-0.10729066
0.07095603,-0.002793292,0.028997788,-0.19372484,-0.7996819,-0.103950575
0.0687471,-0.0027063342,0.02809506,-0.18769401,-0.77478707,-0.1007145
0.06660696,-0.0026220842,0.027220441,-0.18185097,-0.75066745,-0.09757919
0.06453346,-0.0025404575,0.026373057,-0.17618987,-0.72729886,-0.094541505
0.06252452,-0.0024613726,0.025552059,-0.17070504,-0.70465785,-0.09159841
0.06057813,-0.0023847502,0.024756623,-0.165391,-0.68272185,-0.08874695
0.058692347,-0.0023105133,0.023985956,-0.16024241,-0.66146886,-0.085984275
0.056865275,-0.002238588,0.023239281,-0.15525413,-0.6408776,-0.08330762
0.05509509,-0.002168902,0.022515856,-0.15042116,-0.62092745,-0.0807143
0.053380024,-0.0021013857,0.021814954,-0.14573865,-0.60159844,-0.078201726
0.05171835,-0.0020359715,0.021135874,-0.14120194,-0.58287126,-0.075767376
0.05010841,-0.0019725938,0.020477936,-0.13680647,-0.56472707,-0.07340881
0.048548594,-0.0019111892,0.019840483,-0.13254784,-0.54714775,-0.07112368
0.04703734,-0.0018516964,0.019222874,-0.1284218,-0.5301158,-0.0689097
0.045573134,-0.0017940557,0.018624494,-0.12442421,-0.513614,-0.06676464
0.044154514,-0.0017382095,0.018044742,-0.12055108,-0.497626,-0.06468636
0.042780057,-0.0016841019,0.017483039,-0.11679852,-0.4821357,-0.06267278
0.04144839,-0.0016316788,0.016938822,-0.113162786,-0.46712768,-0.06072188
0.040158175,-0.0015808876,0.016411547,-0.10964024,-0.45258686,-0.05883172
0.038908128,-0.0015316776,0.015900686,-0.10622735,-0.4384987,-0.057000402
0.037697,-0.0014839995,0.015405731,-0.1029207,-0.42484912,-0.055226095
0.03652357,-0.0014378057,0.014926182,-0.099717,-0.41162443,-0.053507023
0.035386667,-0.00139305,0.014461563,-0.09661302,-0.39881146,-0.051841464
0.03428516,-0.0013496873,0.014011406,-0.093605675,-0.38639736,-0.050227754
0.03321794,-0.0013076747,0.013575263,-0.09069195,-0.37436968,-0.04866428
0.032183945,-0.0012669698,0.013152697,-0.087868914,-0.36271644,-0.047149476
0.031182136,-0.0012275322,0.012743286,-0.08513377,-0.35142595,-0.045681823
0.030211514,-0.0011893221,0.012346619,-0.08248376,-0.3404869,-0.04425986
0.029271105,-0.0011523014,0.011962299,-0.07991625,-0.32988843,-0.042882163
0.02835997,-0.0011164333,0.011589943,-0.07742866,-0.31961983,-0.04154735
