ax,ay,az,gx,gy,gz
2.1791108,5.8636894,1.265466,1.3318303,-19.364721,-12.706479
2.6093078,7.4175963,1.3238494,-5.4096203,-12.261209,-42.393
2.9721236,8.685507,1.1080233,-15.436935,-9.482237,-62.658737
3.3082142,9.355421,0.7454575,-28.855837,-9.163195,-75.544495
3.5893357,9.693326,0.2933349,-38.866085,-8.210159,-88.27707
3.6501803,9.593813,-0.32697666,-43.21167,-7.225137,-101.10153
3.501433,9.212758,-1.0350499,-43.99586,-8.363082,-112.2917
3.1203601,8.638873,-1.6650057,-46.489964,-12.121229,-120.44656
2.7357128,7.8855257,-2.0399432,-50.96607,-16.844976,-125.14419
2.4297228,6.9101634,-2.2231123,-54.77113,-21.29071,-128.35645
2.278083,5.7023263,-2.243809,-56.727474,-24.872602,-129.85945
2.2689438,4.435158,-2.0752237,-58.16602,-26.983734,-128.05261
2.2995718,3.092999,-1.7776281,-60.225975,-28.43156,-123.92776
2.304784,1.716986,-1.4753369,-61.116116,-29.298386,-117.900314
2.2859237,0.43761924,-1.1792424,-59.975586,-29.453606,-110.85115
2.227125,-0.6650468,-0.879453,-56.74728,-28.57746,-103.12909
2.1162305,-1.5263839,-0.5828796,-51.703335,-26.562529,-94.11162
1.9985894,-2.079069,-0.2787184,-46.27117,-23.695948,-84.3518
1.8919742,-2.3935802,0.0031965387,-40.8256,-20.281237,-74.56385
1.809914,-2.4917874,0.26437694,-35.94672,-16.718712,-64.993774
1.7417291,-2.4239855,0.52142435,-31.66686,-13.078511,-56.230865
1.7000201,-2.2753606,0.7868943,-27.207735,-8.89984,-49.147694
1.6816825,-2.0636933,1.0320067,-23.271414,-4.4390388,-43.097294
1.685061,-1.8054355,1.248509,-20.236263,0.3943021,-37.45369
1.7013578,-1.5255706,1.4158418,-17.58844,5.439588,-32.578747
1.7354463,-1.2928551,1.5234252,-14.996533,10.427748,-28.627426
1.8010308,-1.1139688,1.5569513,-12.331578,15.52339,-25.780163
1.838651,-0.9295585,1.4387645,-9.554508,20.203587,-23.834702
1.8151101,-0.7168419,1.2177275,-7.187522,23.896461,-22.5139
1.7498155,-0.49371484,0.9243776,-5.5214887,26.319092,-21.355062
1.6898129,-0.2980826,0.57138264,-4.531942,27.635502,-20.316456
1.6358668,-0.20009989,0.13652273,-3.036254,27.415028,-19.887167
1.5906888,-0.19669414,-0.3908105,-0.8897753,26.310537,-19.760576
1.5196946,-0.21345301,-0.97238564,1.1246412,24.006311,-19.571177
1.4343079,-0.24011517,-1.5528789,2.749674,20.753504,-19.157187
1.3241956,-0.3133961,-2.1364462,4.124409,16.02093,-18.554232
1.2076954,-0.42064533,-2.7133338,4.8618164,9.332086,-17.2638
1.0928267,-0.52761585,-3.171309,4.960671,1.4675113,-15.59446
1.0239887,-0.6129927,-3.4321897,4.651049,-6.846242,-13.552131
1.0145552,-0.66352683,-3.4599726,4.1662955,-14.458526,-11.128329
1.0457443,-0.70880103,-3.3011034,3.975662,-21.074982,-8.668071
1.1347495,-0.70999193,-2.9830668,4.1614504,-26.530321,-6.491772
1.3184966,-0.5646233,-2.4394956,4.087256,-30.702555,-4.8306346
1.522448,-0.35569453,-1.793465,3.5577674,-33.348206,-3.7302804
1.7160224,-0.1752404,-1.1528616,2.856462,-34.477505,-3.035747
1.8634307,-0.068063356,-0.6182739,2.197275,-34.144756,-2.6609087
1.9576789,-0.019807853,-0.21277097,1.4388807,-32.56383,-2.1519394
1.9640694,-0.029143455,0.026928773,0.8892276,-30.47983,-1.810198
1.9292567,-0.03711665,0.17087768,0.56549376,-28.060976,-1.8088274
1.8677452,-0.024161167,0.24459027,0.2566068,-25.447887,-2.1717134
1.79153,0.009268012,0.26473927,-0.252291,-22.909811,-2.808663
1.7314031,0.008956961,0.25585416,-0.24382366,-22.140917,-2.714399
1.6735618,0.008657735,0.2473068,-0.23567821,-21.401253,-2.6237187
1.6178946,0.008369755,0.2390807,-0.22783892,-20.689388,-2.5364468
1.5642977,0.008092484,0.23116052,-0.22029115,-20.003998,-2.4524202
1.5126736,0.007825421,0.2235319,-0.21302123,-19.343838,-2.371487
1.4629319,0.007568096,0.21618143,-0.20601639,-18.707748,-2.2935047
1.4149874,0.0073200674,0.20909655,-0.19926465,-18.094643,-2.21834
1.3687605,0.0070809247,0.20226547,-0.19275476,-17.5035,-2.1458678
1.3241761,0.006850279,0.19567712,-0.1864762,-16.933361,-2.075971
1.2811638,0.0066277664,0.18932107,-0.18041903,-16.383327,-2.0085387
1.2396573,0.006413043,0.18318753,-0.1745739,-15.852548,-1.9434669
1.1995938,0.006205785,0.17726725,-0.16893198,-15.340221,-1.8806576
1.1609143,0.0060056862,0.17155147,-0.16348496,-14.845593,-1.8200179
1.1235627,0.0058124578,0.16603191,-0.15822494,-14.367947,-1.7614601
1.0874861,0.005625825,0.16070078,-0.1531445,-13.906606,-1.7049012
1.0526344,0.0054455283,0.15555064,-0.14823651,-13.460926,-1.6502625
1.0189598,0.0052713216,0.15057446,-0.14349431,-13.030301,-1.5974693
0.98641706,0.0051029706,0.14576554,-0.13891152,-12.61415,-1.5464507
0.9549633,0.0049402528,0.14111753,-0.13448206,-12.211925,-1.4971392
0.9245575,0.0047829566,0.13662438,-0.13020018,-11.823099,-1.4494706
0.8951606,0.0046308795,0.13228032,-0.12606038,-11.447177,-1.4033839
0.8667355,0.0044838293,0.12807986,-0.12205744,-11.08368,-1.3588206
0.83924663,0.004341623,0.12401776,-0.11818633,-10.732157,-1.315725
0.81266016,0.0042040846,0.120089,-0.11444231,-10.392173,-1.2740442
0.7869436,0.004071047,0.116288796,-0.11082079,-10.0633135,-1.2337271
0.762066,0.0039423495,0.112612575,-0.10731743,-9.745184,-1.1947255
0.7379978,0.0038178386,0.109055944,-0.10392804,-9.437403,-1.1569926
0.7147105,0.0036973679,0.105614714,-0.10064862,-9.139607,-1.120484
0.6921768,0.0035807958,0.102284856,-0.097475335,-8.851451,-1.085157
0.6703708,0.003467988,0.09906252,-0.09440451,-8.572598,-1.0509707
0.64926726,0.0033588146,0.095943995,-0.09143262,-8.302731,-1.0178857
0.6288423,0.003253151,0.092925735,-0.08855628,-8.041538,-0.9858645
0.6090726,0.003150878,0.090004325,-0.08577224,-7.7887273,-0.95487076
0.5899362,0.0030518807,0.08717648,-0.08307736,-7.544014,-0.9248697
0.57141167,0.0029560488,0.084439054,-0.080468655,-7.3071246,-0.89582795
0.5534784,0.0028632758,0.08178901,-0.07794322,-7.077797,-0.86771315
0.5361167,0.0027734598,0.07922343,-0.075498275,-6.8557787,-0.8404945
0.5193077,0.0026865024,0.076739505,-0.073131144,-6.6408267,-0.81414217
0.5030328,0.0026023088,0.07433453,-0.070839256,-6.432707,-0.7886274
0.48727462,0.002520788,0.0720059,-0.068620116,-6.231193,-0.7639225
0.47201607,0.0024418517,0.0697511,-0.06647134,-6.036069,-0.74000096
0.45724073,0.0023654152,0.067567706,-0.064390615,-5.847124,-0.716837
0.44293284,0.0022913972,0.065453395,-0.062375717,-5.6641574,-0.69440585
0.42907718,0.0022197184,0.0634059,-0.0604245,-5.486973,-0.6726837
0.415659,0.0021503032,0.061423063,-0.058534898,-5.3153834,-0.65164745
0.40266418,0.0020830778,0.05950278,-0.05670491,-5.1492076,-0.6312749
0.39007896,0.0020179716,0.057643034,-0.054932605,-4.98827,-0.6115445
0.3778902,0.0019549162,0.055841863,-0.05321613,-4.8324018,-0.5924356
0.36608505,0.0018938454,0.054097388,-0.051553678,-4.6814394,-0.5739281
0.35465124,0.0018346955,0.052407783,-0.04994352,-4.535226,-0.55600286
0.34357685,0.001777405,0.05077129,-0.048383977,-4.393608,-0.538641
0.33285037,0.0017219144,0.049186207,-0.046873428,-4.2564397,-0.5218246
0.32246068,0.001668166,0.047650892,-0.045410305,-4.1235776,-0.5055362
0.312397,0.0016161043,0.046163756,-0.043993097,-3.994885,-0.48975894
0.30264902,0.0015656755,0.04472327,-0.04262034,-3.870229,-0.47447658
0.2932066,0.0015168277,0.04332794,-0.041290622,-3.7494812,-0.4596733
0.28406012,0.0014695107,0.041976336,-0.040002573,-3.632517,-0.4453339
0.27520013,0.0014236759,0.040667072,-0.03875487,-3.519217,-0.4314437
0.26661757,0.0013792762,0.0393988,-0.037546236,-3.4094644,-0.41798842
0.25830364,0.0013362663,0.03817023,-0.036375433,-3.303147,-0.4049543
0.25024983,0.0012946022,0.0369801,-0.035241265,-3.2001567,-0.39232802
0.24244799,0.0012542413,0.0358272,-0.034142572,-3.1003876,-0.3800967
0.2348901,0.0012151425,0.03471035,-0.03307824,-3.0037386,-0.36824787
0.22756849,0.001177266,0.033628415,-0.03204718,-2.910111,-0.3567694
0.2204757,0.0011405734,0.032580294,-0.03104834,-2.8194094,-0.34564975
0.21360452,0.0011050272,0.031564925,-0.030080711,-2.7315419,-0.3348775
0.20694801,0.0010705914,0.030581271,-0.029143313,-2.6464193,-0.32444176
0.20049937,0.0010372311,0.02962834,-0.028235188,-2.5639553,-0.31433195
0.1942521,0.0010049125,0.028705163,-0.027355421,-2.4840662,-0.30453783
0.18819988,0.0009736029,0.027810808,-0.02650312,-2.406671,-0.29504946
0.18233655,0.00094327045,0.02694437,-0.02567742,-2.331692,-0.2858573
0.17665622,0.0009138847,0.02610497,-0.02487749,-2.2590525,-0.27695194
0.17115311,0.00088541594,0.025291763,-0.024102522,-2.18868,-0.2683245
0.16582172,0.0008578353,0.024503926,-0.02335173,-2.1205027,-0.25996622
0.16065662,0.000831115,0.023740666,-0.022624359,-2.0544522,-0.25186867
0.15565263,0.00080522813,0.023001213,-0.021919675,-1.9904618,-0.24402367
0.15080468,0.00078014855,0.022284819,-0.021236965,-1.9284672,-0.23642333
0.14610791,0.00075585104,0.021590764,-0.020575546,-1.8684055,-0.22905998
0.14155757,0.0007323111,0.020918349,-0.01993475,-1.8102165,-0.22192623
0.13714911,0.00070950505,0.020266898,-0.01931393,-1.7538418,-0.21501487
0.13287807,0.0006874099,0.019635754,-0.018712463,-1.6992242,-0.20831896
0.12874015,0.0006660035,0.019024283,-0.018129744,-1.6463093,-0.20183176
0.1247312,0.0006452642,0.018431868,-0.017565185,-1.5950434,-0.19554675
0.12084719,0.0006251713,0.017857919,-0.017018223,-1.5453752,-0.18945761
0.11708421,0.00060570455,0.017301852,-0.016488304,-1.497255,-0.18355823
0.113438495,0.0005868444,0.016763115,-0.015974898,-1.450634,-0.17784266
0.10990637,0.00056857185,0.016241163,-0.015477489,-1.4054657,-0.1723052
0.10648429,0.00055086863,0.015735473,-0.014995578,-1.3617047,-0.16694024
0.10316882,0.0005337169,0.015245538,-0.01452868,-1.3193071,-0.16174245
0.09995665,0.0005170996,0.014770866,-0.014076327,-1.2782303,-0.15670657
0.09684453,0.00050099986,0.01431098,-0.013638065,-1.238433,-0.15182756
0.09382936,0.00048540166,0.013865421,-0.013213456,-1.1998755,-0.14710054
0.0909081,0.00047028932,0.013433739,-0.012802072,-1.1625189,-0.14252076
0.088077836,0.00045564768,0.013015502,-0.012403502,-1.1263258,-0.13808362
0.085335724,0.00044146206,0.012610292,-0.012017345,-1.0912602,-0.13378468
0.08267901,0.00042771825,0.012217702,-0.011643215,-1.0572865,-0.12961963
0.08010504,0.00041440246,0.011837339,-0.011280737,-1.0243709,-0.12558429
0.07761122,0.00040150137,0.011468821,-0.010929547,-0.9924804,-0.12167463
0.07519507,0.000389002,0.01111178,-0.010589294,-0.96158296,-0.117886715
0.072854154,0.00037689193,0.010765857,-0.010259637,-0.9316477,-0.11421676
0.07058614,0.00036515892,0.010430706,-0.009940244,-0.9026447,-0.11066108
0.068388745,0.00035379129,0.010105991,-0.009630798,-0.87454474,-0.10721613
0.06625977,0.0003427776,0.009791387,-0.009330987,-0.8473198,-0.103878446
0.06419709,0.00033210687,0.009486579,-0.009040511,-0.8209425,-0.100644685
0.062198635,0.00032176837,0.009191262,-0.00875908,-0.7953866,-0.09751162
0.060262404,0.0003117518,0.00890514,-0.008486412,-0.77062637,-0.094476104
0.05838646,0.0003020471,0.008627926,-0.0082222335,-0.7466371,-0.0915351
0.056568924,0.00029264454,0.008359344,-0.00796628,-0.7233947,-0.08868566
0.054807972,0.00028353473,0.008099124,-0.007718296,-0.70087594,-0.085924946
0.05310185,0.00027470855,0.0078470055,-0.007478032,-0.6790583,-0.08325018
0.051448844,0.00026615715,0.007602736,-0.0072452486,-0.65791994,-0.08065869
0.0498473,0.000257872,0.007366072,-0.0070197126,-0.63743967,-0.07814787
0.04829562,0.00024984477,0.0071367756,-0.006801198,-0.617597,-0.07571524
0.046792246,0.00024206746,0.006914618,-0.0065894863,-0.5983721,-0.07335833
0.045335677,0.00023453227,0.0066993763,-0.0063843657,-0.57974565,-0.07107479
0.04392445,0.00022723166,0.006490836,-0.006185631,-0.56169915,-0.068862356
0.04255716,0.00022015834,0.0062887874,-0.005993083,-0.5442144,-0.06671879
0.041232433,0.00021330522,0.006093029,-0.0058065294,-0.527274,-0.06464195
0.039948948,0.00020666544,0.0059033646,-0.0056257835,-0.51086104,-0.062629774
0.038705416,0.00020023236,0.005719605,-0.005450664,-0.49495894,-0.060680237
0.037500598,0.00019399954,0.0055415654,-0.005280996,-0.47955188,-0.058791388
0.036333285,0.00018796074,0.0053690686,-0.0051166103,-0.46462446,-0.05696134
0.03520231,0.00018210996,0.0052019414,-0.0049573416,-0.45016176,-0.055188257
0.034106545,0.00017644129,0.005040017,-0.0048030308,-0.43614924,-0.053470373
0.033044886,0.00017094909,0.004883133,-0.0046535237,-0.42257294,-0.051805966
0.032016277,0.00016562785,0.0047311326,-0.004508671,-0.40941927,-0.050193373
0.031019691,0.00016047226,0.0045838645,-0.004368327,-0.39667505,-0.048630975
0.030054126,0.00015547716,0.0044411803,-0.0042323517,-0.38432756,-0.047117215
0.029118618,0.00015063756,0.0043029375,-0.0041006096,-0.37236443,-0.045650575
