ax,ay,az,gx,gy,gz
-1.9572906,-2.6318421,-10.66646,-55.875053,-78.957985,20.25291
-2.3673902,-3.7354147,-12.054666,-44.34548,-95.48616,11.301092
-2.0770612,-4.7752285,-12.775111,-25.951368,-104.31403,-0.37880024
-1.4456873,-5.626858,-13.119773,-4.1932654,-104.14854,-5.948957
-1.0471871,-6.0838513,-13.320086,17.720982,-101.71148,-6.629678
-0.9316442,-6.3147345,-13.438396,39.666435,-103.03019,-3.7649353
-0.8526241,-6.4836187,-13.60005,61.83777,-107.46384,-0.3790258
-0.68289703,-6.478263,-13.628821,83.71921,-111.35497,3.0741446
-0.5124719,-6.2244897,-13.48831,103.76517,-115.10537,4.9586005
-0.27404672,-5.818078,-13.232481,121.130615,-118.66876,6.312603
0.0460784,-5.3423667,-12.913621,136.70912,-122.3734,8.610196
0.46425912,-4.664396,-12.439639,150.82341,-126.2332,10.776242
0.91268927,-3.8013728,-11.768435,163.42722,-129.87747,11.805961
1.4319174,-2.7148883,-10.84005,173.48218,-132.45761,11.826909
2.001513,-1.4411134,-9.640351,179.89265,-133.64342,11.413632
2.6211617,-0.06707307,-8.223279,180.65472,-132.12605,11.385024
3.2504184,1.2984102,-6.6632233,177.5042,-127.65258,11.6856365
3.7789571,2.560193,-5.157109,170.71645,-120.575134,11.276663
4.2142863,3.644113,-3.8011718,160.55981,-111.044235,10.444422
4.521095,4.507511,-2.691629,147.87442,-100.072395,9.739203
4.685465,5.126671,-1.8766519,132.64087,-87.673164,8.956759
4.708534,5.4655585,-1.4154841,117.15174,-75.30312,7.6652746
4.6893163,5.6508555,-1.1547288,101.886734,-63.385406,5.8789277
4.66225,5.7238746,-1.0403495,86.966934,-52.115166,4.096026
4.6324816,5.7099977,-1.0291505,72.44645,-41.409286,2.7653666
4.5942473,5.619405,-1.1066297,58.14292,-30.670454,2.5813951
4.5048122,5.4383326,-1.2970212,44.65838,-19.937181,3.2291827
4.354598,5.201148,-1.5873884,32.83159,-9.579533,4.4836235
4.082796,4.94728,-1.98989,23.450998,-2.0019433,4.5087028
3.756777,4.6627693,-2.4065347,15.781859,2.8944185,3.2339373
3.4363177,4.35254,-2.8248858,10.120735,5.4463882,0.8907252
3.1323574,4.022407,-3.2405298,5.921632,6.821664,-1.805323
2.8463154,3.700945,-3.644197,3.0416794,7.1861854,-4.7668796
2.5804815,3.396352,-4.0302725,1.2022216,6.556695,-7.7320557
2.3290052,3.109269,-4.395584,0.43731558,4.86093,-10.747838
2.0911055,2.8491778,-4.7345977,0.96301955,1.7893841,-13.880802
1.87593,2.6635768,-5.008333,2.0346775,-1.8587857,-17.349499
1.6817129,2.5175447,-5.247685,3.518824,-5.9612136,-20.964275
1.5040878,2.4041882,-5.4640226,5.29467,-10.702936,-24.434351
1.3456818,2.3187273,-5.653908,7.116388,-16.183413,-27.575993
1.2188287,2.235971,-5.8289657,8.898379,-22.600378,-30.05362
1.1308073,2.1248794,-5.981885,10.832067,-29.415325,-31.795494
1.0500932,2.0059357,-6.1037173,13.127315,-36.540882,-33.193375
0.9651234,1.8730743,-6.1994867,15.830993,-44.02231,-34.603752
0.8894821,1.7289728,-6.255681,19.220484,-51.923862,-36.186855
0.8574259,1.6140211,-6.2403326,22.813606,-60.357426,-38.3123
0.9551604,1.5275924,-6.118411,26.418606,-68.721176,-40.942062
1.209439,1.463538,-5.900537,30.287483,-76.301445,-43.79156
1.6408545,1.4648834,-5.5682006,33.92452,-82.35676,-46.37511
2.2276788,1.5205247,-5.1269603,36.793026,-86.36445,-47.867516
2.8886433,1.605601,-4.6188264,38.60081,-87.44314,-47.40176
3.5403914,1.734156,-4.0647273,39.503292,-86.431885,-46.167297
4.151863,1.8667773,-3.5161908,39.199043,-83.32422,-44.247746
4.6870313,1.9527022,-3.0315468,37.852535,-78.15495,-41.23096
5.087378,1.9788498,-2.6497326,35.846405,-71.457275,-37.17183
5.337186,1.9435432,-2.3773808,33.56969,-63.567955,-32.47455
5.4342184,1.8403046,-2.207,31.329823,-55.079193,-27.792013
5.462658,1.7134964,-2.0999966,29.30689,-46.10103,-23.330677
5.445224,1.572936,-2.0567095,27.531927,-36.740623,-18.871626
5.361993,1.4322236,-2.080595,26.495985,-27.732693,-14.525285
5.223586,1.3093683,-2.1351783,26.117111,-19.542002,-10.425395
5.036536,1.2168614,-2.2047625,26.125208,-12.092835,-6.76365
4.834627,1.1470586,-2.286309,26.245457,-5.245876,-3.3850527
4.6231837,1.0943379,-2.3810637,26.302513,1.0870769,-0.1073957
4.404232,1.0528222,-2.4902935,26.536308,6.872687,3.1480434
4.1733923,1.0406907,-2.609473,27.183489,11.606347,6.078735
3.916643,1.0740626,-2.7422326,28.137318,15.169979,8.334859
3.6384306,1.1459439,-2.871724,29.178032,17.373344,9.708387
3.3579447,1.2473462,-2.9797442,29.977129,18.590393,10.320354
3.0865254,1.3876054,-3.050286,30.543182,19.00185,10.435009
2.8284154,1.5870305,-3.072915,30.264482,18.546482,9.982279
2.5828447,1.8109025,-3.0849047,29.269201,17.302782,9.065221
2.3350399,2.030867,-3.10866,27.905636,15.402457,7.618365
2.0621593,2.2683244,-3.1278267,26.575378,12.277461,5.0267296
1.8024813,2.5137315,-3.1054351,24.70678,8.483568,1.3097764
1.5911416,2.7306657,-3.0696943,21.922037,4.6496463,-3.025281
1.4838114,2.8567169,-3.0616112,18.558582,1.0913106,-6.7712727
1.4313581,2.907511,-3.0765936,14.93446,-2.0929482,-9.628188
1.417589,2.8930743,-3.095634,11.094739,-4.5132923,-11.477573
1.405495,2.8266103,-3.1191657,7.2445703,-6.37809,-13.126645
1.4219558,2.6763506,-3.154161,3.816774,-8.111508,-15.335845
1.5526952,2.3968568,-3.1711552,1.1584541,-9.583513,-17.48731
1.7793323,2.0632746,-3.1492238,-0.8633395,-10.683698,-18.939838
2.0909052,1.7065691,-3.0813732,-2.3923852,-10.971429,-18.833708
2.426494,1.3494118,-2.9782445,-3.2050874,-10.1070175,-17.48641
2.3502998,1.307039,-2.8847246,-3.1044445,-9.789647,-16.937319
2.2765377,1.2660187,-2.7941902,-3.0070143,-9.482408,-16.405756
2.2051268,1.226306,-2.7065413,-2.9126894,-9.184961,-15.891136
2.1359885,1.187857,-2.621682,-2.8213668,-8.896981,-15.392895
2.0690477,1.1506302,-2.5395198,-2.7329466,-8.618155,-14.91049
2.004232,1.1145852,-2.459966,-2.6473334,-8.348179,-14.443398
1.9414711,1.079683,-2.3829343,-2.5644343,-8.086763,-13.991116
1.880698,1.045886,-2.3083422,-2.484161,-7.8336263,-13.553158
1.8218476,1.0131584,-2.23611,-2.4064271,-7.588498,-13.129055
1.7648572,0.9814651,-2.1661608,-2.33115,-7.3511176,-12.718356
1.7096664,0.9507726,-2.0984204,-2.25825,-7.121232,-12.320626
1.6562166,0.9210484,-2.032817,-2.1876497,-6.8985996,-11.935444
1.6044519,0.8922612,-1.9692817,-2.119275,-6.6829853,-11.562404
1.5543177,0.8643807,-1.9077475,-2.0530543,-6.474162,-11.201114
1.5057614,0.83737785,-1.8481504,-1.9889177,-6.271912,-10.851195
1.4587325,0.81122434,-1.7904277,-1.9267986,-6.0760236,-10.512284
1.4131819,0.7858929,-1.7345195,-1.8666321,-5.886293,-10.184026
1.3690623,0.7613573,-1.6803677,-1.8083557,-5.7025223,-9.86608
1.3263279,0.73759204,-1.6279162,-1.7519091,-5.524522,-9.558117
1.2849346,0.71457255,-1.5771106,-1.6972339,-5.3521075,-9.259818
1.2448397,0.6922751,-1.5278987,-1.6442735,-5.185101,-8.970876
1.2060018,0.6706767,-1.4802295,-1.5929736,-5.02333,-8.690991
1.1683809,0.6497551,-1.4340541,-1.5432812,-4.8666286,-8.419879
1.1319383,0.6294889,-1.3893251,-1.4951454,-4.7148356,-8.157258
1.096637,0.60985726,-1.3459969,-1.4485168,-4.5677958,-7.9028606
1.0624406,0.5908401,-1.3040247,-1.4033478,-4.4253583,-7.656426
1.0293143,0.57241803,-1.2633657,-1.3595921,-4.287378,-7.417702
0.9972241,0.55457217,-1.2239788,-1.3172051,-4.1537137,-7.186446
0.96613735,0.5372843,-1.1858233,-1.2761436,-4.024229,-6.9624214
0.9360225,0.52053696,-1.1488608,-1.2363657,-3.898792,-6.7454
0.90684885,0.50431305,-1.1130534,-1.197831,-3.7772756,-6.5351615
0.8785867,0.48859602,-1.078365,-1.1605004,-3.6595562,-6.3314915
0.85120744,0.47337,-1.04476,-1.1243359,-3.5455139,-6.1341844
0.8246833,0.45861948,-1.0122046,-1.0893009,-3.4350336,-5.9430394
0.7989874,0.44432956,-0.9806658,-1.0553598,-3.328003,-5.757863
0.7740936,0.43048576,-0.9501116,-1.0224785,-3.2243137,-5.5784674
0.74997693,0.41707408,-0.9205111,-0.99062335,-3.1238608,-5.4046717
0.72661287,0.40408096,-0.8918344,-0.9597624,-3.0265431,-5.2363
0.7039778,0.39149326,-0.8640525,-0.92986447,-2.932262,-5.0731816
0.682049,0.37929827,-0.8371373,-0.90089923,-2.8409224,-4.9151525
0.6608042,0.3674837,-0.81106174,-0.8728376,-2.7524319,-4.762053
0.640222,0.35603765,-0.78579944,-0.84565115,-2.6667013,-4.6137285
0.6202817,0.34494853,-0.761325,-0.8193126,-2.5836446,-4.47003
0.60096323,0.33420518,-0.73761374,-0.79379535,-2.5031776,-4.3308115
0.582247,0.32379684,-0.7146418,-0.76907367,-2.4252195,-4.195935
0.56411433,0.31371295,-0.692386,-0.74512273,-2.349692,-4.0652623
0.54654694,0.30394343,-0.670824,-0.7219184,-2.2765188,-3.9386635
0.52952707,0.29447842,-0.64993405,-0.6994373,-2.2056265,-3.8160107
0.5130377,0.2853084,-0.6296952,-0.67765695,-2.1369436,-3.6971807
0.49706218,0.27642417,-0.6100871,-0.65655535,-2.0704012,-3.582054
0.4815845,0.26781678,-0.59109,-0.6361114,-2.0059323,-3.470515
0.46658912,0.25947762,-0.5726849,-0.6163044,-1.9434725,-3.3624516
0.45206097,0.2513983,-0.55485326,-0.59711456,-1.8829588,-3.257755
0.43798548,0.24357067,-0.5375772,-0.5785226,-1.8243303,-3.1563208
0.42434847,0.23598693,-0.52083933,-0.5605099,-1.7675285,-3.0580463
0.41113633,0.22863944,-0.50462294,-0.54305834,-1.7124963,-2.9628336
0.39833575,0.22152084,-0.48891166,-0.5261504,-1.6591784,-2.8705869
0.3859339,0.21462397,-0.47368982,-0.5097692,-1.6075212,-2.7812135
0.37391835,0.20794193,-0.45894212,-0.49389818,-1.5574732,-2.6946242
0.36227706,0.20146802,-0.44465372,-0.47852153,-1.5089839,-2.6107316
0.3509983,0.19519575,-0.4308104,-0.46362376,-1.4620049,-2.529452
0.34007087,0.18911882,-0.41739818,-0.44919,-1.416489,-2.4507039
0.32948375,0.18323115,-0.4044037,-0.43520576,-1.3723907,-2.3744082
0.3192263,0.17752682,-0.39181387,-0.42165703,-1.3296657,-2.3004887
0.30928832,0.17200014,-0.3796161,-0.4085302,-1.2882712,-2.228871
0.2996598,0.16664557,-0.3677982,-0.39581215,-1.2481657,-2.1594834
0.2903311,0.16145775,-0.3563483,-0.38349015,-1.2093092,-2.0922568
0.28129292,0.15643145,-0.34525493,-0.37155184,-1.1716626,-2.0271235
0.27253613,0.15156168,-0.33450702,-0.3599853,-1.1351882,-1.9640182
0.26405203,0.14684352,-0.32409373,-0.34877887,-1.0998496,-1.9028779
0.2558321,0.1422723,-0.3140047,-0.33792138,-1.0656112,-1.8436414
0.24786809,0.13784339,-0.3042298,-0.32740197,-1.032439,-1.7862492
0.24015206,0.13355237,-0.29475924,-0.31721008,-1.0002996,-1.730644
0.23267627,0.12939496,-0.28558356,-0.3073355,-0.96916085,-1.67677
0.22543322,0.125367,-0.27669355,-0.29776838,-0.9389916,-1.6245733
0.21841568,0.12146443,-0.26808032,-0.28849912,-0.9097616,-1.5740019
0.21161664,0.11768337,-0.25973526,-0.27951843,-0.8814417,-1.5250049
0.20502925,0.11402003,-0.25165,-0.27081734,-0.8540034,-1.4775332
0.19864696,0.11047073,-0.24381648,-0.26238716,-0.8274194,-1.4315395
0.19246337,0.107031934,-0.23622681,-0.2542194,-0.80166304,-1.3869778
0.18647228,0.10370019,-0.22887343,-0.24630596,-0.7767085,-1.3438033
0.1806677,0.100472175,-0.22174898,-0.23863886,-0.7525308,-1.3019729
0.17504384,0.09734465,-0.21484633,-0.23121046,-0.7291059,-1.2614447
0.16959503,0.09431449,-0.20815855,-0.2240133,-0.7064101,-1.2221782
0.16431586,0.09137867,-0.20167898,-0.2170402,-0.68442094,-1.1841342
0.15920104,0.08853423,-0.19540112,-0.21028416,-0.6631163,-1.1472745
0.15424545,0.08577834,-0.18931869,-0.20373845,-0.6424749,-1.1115623
0.14944412,0.08310825,-0.1834256,-0.19739652,-0.62247604,-1.0769616
0.14479226,0.08052128,-0.17771597,-0.19125201,-0.6030997,-1.0434383
0.14028521,0.07801483,-0.17218408,-0.18529877,-0.5843266,-1.0109584
0.13591845,0.075586416,-0.1668244,-0.17953084,-0.5661379,-0.9794897
0.13168764,0.07323359,-0.16163155,-0.17394249,-0.5485154,-0.9490005
0.12758853,0.07095401,-0.15660036,-0.16852808,-0.53144145,-0.9194605
0.12361702,0.06874539,-0.15172578,-0.16328223,-0.514899,-0.89083993
0.11976914,0.06660552,-0.14700295,-0.15819967,-0.4988715,-0.86311036
