ax,ay,az,gx,gy,gz
-0.08272802,-1.9136537,-6.160056,-53.156845,-12.318294,-12.207384
-0.4969074,-2.2125635,-6.8613887,-51.85045,-23.490828,-7.932339
-0.8792426,-2.791818,-7.43359,-47.30368,-36.94557,-4.441715
-0.94160914,-3.515269,-7.9720225,-37.90486,-46.025593,-1.098202
-0.7850238,-4.354958,-8.586632,-23.224394,-51.022297,1.1777841
-0.5126235,-4.966947,-9.032191,-5.563246,-53.840874,3.7909055
-0.20652728,-5.2940855,-9.245542,11.642988,-55.015823,6.368573
0.058693565,-5.4790545,-9.315218,26.969553,-54.76753,9.487649
0.23343687,-5.6086745,-9.380512,42.13521,-55.314304,13.862493
0.34371817,-5.6096244,-9.390546,57.00574,-57.836998,17.598545
0.51425165,-5.5153584,-9.325202,71.29545,-61.750362,20.53993
0.76924336,-5.3251014,-9.183032,84.72479,-65.70614,23.86045
1.025596,-5.0332074,-8.985419,97.39695,-69.38304,27.42774
1.2705145,-4.605801,-8.701011,109.74226,-73.08639,29.804121
1.5599035,-3.9730241,-8.254713,120.39994,-76.06602,30.950573
1.8371383,-3.3243725,-7.768445,129.28235,-78.23721,32.4773
2.0486019,-2.6487305,-7.244695,136.6667,-79.852234,34.424973
2.200407,-1.9031277,-6.642382,142.1164,-80.83971,35.802288
2.3410585,-1.1194164,-5.9853334,144.92964,-80.618195,36.65811
2.4624462,-0.24276741,-5.226733,145.75865,-79.24651,36.070396
2.6003597,0.68049276,-4.3917613,144.14796,-76.49032,33.977993
2.7584116,1.592045,-3.5269008,139.77788,-72.20413,31.701593
2.873434,2.4498425,-2.6905572,132.64546,-66.86889,29.808525
2.9246385,3.2034175,-1.9544116,122.232704,-60.28087,27.51675
2.9322844,3.7871568,-1.3922396,110.46599,-52.94773,24.032309
2.940486,4.208639,-0.9958447,97.897865,-45.171993,19.224785
2.965139,4.509752,-0.7249685,85.03898,-37.61131,13.89052
3.0165708,4.7156034,-0.55556273,71.908035,-30.391647,8.689522
3.0711083,4.8141937,-0.50463694,58.384506,-23.944307,4.830027
3.087521,4.784305,-0.5956446,45.279232,-18.348564,2.1069257
3.0811217,4.687216,-0.75684613,32.944122,-13.202986,-0.1289384
3.0554419,4.5383663,-0.98052037,21.570457,-8.2824545,-1.9117742
2.9896703,4.3506145,-1.2608843,11.185676,-3.759381,-3.4425337
2.8716674,4.1248827,-1.5985048,2.3512893,-0.3475862,-5.0336967
2.6999512,3.8399925,-1.9948757,-5.04057,1.9674786,-6.6325526
2.501397,3.5255132,-2.4064353,-10.800553,3.2810035,-8.354258
2.2853405,3.1963258,-2.8163755,-14.805882,3.6694012,-10.358304
2.0804946,2.8782074,-3.2122004,-17.217844,3.260841,-12.72204
1.8934546,2.5764372,-3.5873823,-18.090508,1.8276775,-15.380255
1.722749,2.2762895,-3.9541957,-17.841915,-0.43971592,-18.022705
1.560774,1.9809495,-4.3016906,-16.453432,-3.4203203,-20.43079
1.4018016,1.7171198,-4.6166854,-14.085424,-6.9145074,-22.576962
1.2370951,1.5003779,-4.893744,-11.014775,-10.929132,-24.71287
1.0795388,1.3279626,-5.13666,-7.431625,-15.604753,-27.249031
0.93759114,1.176795,-5.353993,-3.4351618,-20.681297,-30.28375
0.8195252,1.0286633,-5.557558,1.3206462,-26.263998,-33.653595
0.74333036,0.9195009,-5.704646,6.663971,-32.218967,-37.12671
0.7140629,0.86498445,-5.7855325,12.305246,-38.656364,-40.385494
0.7306648,0.8523019,-5.808869,17.789387,-45.995167,-42.643993
0.7956033,0.8754823,-5.7470655,22.827349,-53.892746,-43.933857
0.91433674,0.9242357,-5.605375,27.551722,-62.065247,-45.101433
1.1333832,1.0011514,-5.3703628,31.782965,-69.282196,-46.570282
1.4668741,1.0871364,-5.0483723,35.364014,-74.64862,-47.877262
1.8561183,1.1725837,-4.676084,38.1811,-78.0552,-48.237785
2.3220217,1.3031867,-4.2272677,40.09879,-80.25536,-47.871136
2.84341,1.4277278,-3.7534578,41.075733,-80.771194,-46.625694
3.3654847,1.5315164,-3.2933066,41.427002,-79.327415,-44.562637
3.8486063,1.635324,-2.8540092,41.047462,-75.9475,-42.060047
4.2850184,1.7233903,-2.4551468,39.473167,-69.893105,-38.775715
4.6071305,1.7609341,-2.1504233,37.300716,-62.417645,-34.906303
4.8109202,1.7484956,-1.9267042,34.814304,-54.2125,-30.600376
4.922467,1.6929177,-1.7649204,32.23302,-45.466087,-26.099148
4.9840508,1.6143872,-1.6528112,29.577759,-35.946762,-21.421051
4.9967856,1.5240595,-1.6055478,27.277939,-25.697472,-16.282665
4.8946714,1.4257652,-1.6630577,25.42628,-16.200668,-11.332469
4.7232194,1.3188494,-1.7603785,24.016039,-7.6767106,-6.5571256
4.5039077,1.2169416,-1.8774058,23.121193,-0.19328527,-1.9928119
4.263244,1.1427889,-1.9941591,22.672453,6.262207,2.0736897
4.02853,1.1038322,-2.0956821,22.480528,11.99,5.4401627
3.7894573,1.1098324,-2.2122707,22.721224,16.878036,8.112055
3.5211608,1.1477907,-2.3403535,23.191013,20.530502,9.923418
3.2369664,1.2165713,-2.461897,23.854778,22.907082,10.801409
2.965215,1.3163567,-2.5637677,24.508255,24.30582,10.888688
2.72563,1.46582,-2.644237,24.77047,24.60154,10.270406
2.5215023,1.6778533,-2.6944726,24.517498,24.270763,9.345652
2.3223767,1.9169984,-2.7318618,23.645065,23.332752,8.267679
2.0917804,2.168321,-2.773184,22.349598,21.483755,6.7135367
1.8280387,2.4111514,-2.8130043,20.537258,18.511309,4.2943344
1.5601693,2.6144223,-2.8469887,18.074972,14.497063,0.69982946
1.3338536,2.7815406,-2.869311,14.934183,10.3818245,-3.3325448
1.1605256,2.8945584,-2.9085548,11.26798,6.2283354,-7.5750513
1.0435596,2.9381096,-2.9628093,7.443212,2.126057,-11.459914
0.9804675,2.9107058,-3.0241911,3.5359566,-1.9422613,-14.680363
0.95552236,2.7990468,-3.0860238,-0.2190753,-5.904998,-17.047203
0.9730063,2.5939739,-3.1418233,-4.0935335,-9.754229,-19.048677
1.0758756,2.3107378,-3.181708,-7.4224596,-13.252321,-21.572603
1.3109151,1.9690988,-3.187743,-10.001527,-15.956804,-24.125147
1.6948967,1.5784668,-3.1544065,-11.625352,-17.275093,-25.01299
2.1530674,1.1836185,-3.0742545,-11.922978,-16.743023,-22.567677
2.0855913,1.1465247,-2.9779088,-11.549319,-16.218306,-21.860416
2.0202572,1.1106081,-2.8846219,-11.18752,-15.710245,-21.17561
1.9569947,1.0758305,-2.7942924,-10.837193,-15.218292,-20.512514
1.8957356,1.0421541,-2.7068238,-10.497961,-14.74192,-19.870419
1.8364147,1.0095433,-2.6221225,-10.16946,-14.280619,-19.248636
1.7789686,0.9779631,-2.5400982,-9.851343,-13.833898,-18.646507
1.7233365,0.94738007,-2.4606638,-9.54327,-13.401282,-18.063393
1.6694593,0.9177619,-2.3837354,-9.244917,-12.982315,-17.498672
1.6172807,0.8890774,-2.3092322,-8.955969,-12.576555,-16.951754
1.5667456,0.8612965,-2.2370758,-8.676122,-12.183576,-16.422064
1.5178012,0.8343899,-2.1671906,-8.405084,-11.802966,-15.909045
1.4703962,0.8083297,-2.0995033,-8.1425705,-11.434328,-15.412164
1.4244814,0.7830887,-2.033944,-7.8883095,-11.077278,-14.930901
1.380009,0.75864065,-1.9704441,-7.642036,-10.731445,-14.464757
1.3369329,0.7349602,-1.908938,-7.4034953,-10.39647,-14.013249
1.2952087,0.71202284,-1.8493621,-7.1724396,-10.072007,-13.575911
1.2547932,0.689805,-1.7916548,-6.948632,-9.757721,-13.152289
1.2156446,0.66828364,-1.7357566,-6.73184,-9.453288,-12.741949
1.1777229,0.6474367,-1.6816102,-6.5218425,-9.158396,-12.344467
1.1409891,0.6272428,-1.6291598,-6.3184223,-8.872741,-11.959436
1.1054054,0.6076812,-1.5783519,-6.121372,-8.596029,-11.586462
1.0709356,0.5887319,-1.5291342,-5.9304895,-8.32798,-11.225162
1.0375444,0.5703755,-1.4814565,-5.7455797,-8.068317,-10.875167
1.0051976,0.55259335,-1.4352702,-5.566454,-7.816777,-10.536119
0.97386235,0.5353672,-1.3905282,-5.3929296,-7.573103,-10.207675
0.9435067,0.5186796,-1.3471849,-5.22483,-7.3370466,-9.889498
0.91409975,0.5025135,-1.3051962,-5.061984,-7.1083674,-9.5812645
0.88561165,0.48685262,-1.2645196,-4.9042263,-6.886834,-9.282662
0.8580135,0.4716809,-1.2251135,-4.7513967,-6.6722207,-8.993388
0.83127725,0.45698303,-1.1869382,-4.60334,-6.46431,-8.713149
0.8053759,0.4427441,-1.1499549,-4.4599066,-6.262892,-8.44166
0.7802831,0.4289497,-1.1141263,-4.3209515,-6.0677614,-8.178646
0.7559736,0.41558588,-1.0794159,-4.186333,-5.8787217,-7.923843
0.7324227,0.40263912,-1.0457889,-4.055916,-5.6955814,-7.676991
0.7096067,0.39009634,-1.013211,-3.9295685,-5.518156,-7.4378414
0.6875025,0.37794486,-0.9816496,-3.8071628,-5.346266,-7.2061534
0.6660878,0.36617246,-0.9510727,-3.6885753,-5.1797376,-6.981693
0.6453411,0.35476723,-0.9214495,-3.5736866,-5.0184035,-6.7642326
0.62524134,0.34371766,-0.8927501,-3.462381,-4.862101,-6.5535545
0.6057684,0.33301267,-0.8649456,-3.354546,-4.710672,-6.349446
0.58690256,0.32264146,-0.83800805,-3.2500734,-4.563965,-6.151701
0.56862485,0.31259358,-0.81191033,-3.1488576,-4.421831,-5.960121
0.55091697,0.3028589,-0.7866261,-3.050797,-4.284128,-5.7745132
0.533761,0.29342765,-0.76213,-2.9557931,-4.1507173,-5.594691
0.5171398,0.28429037,-0.7383974,-2.8637502,-4.0214643,-5.420473
0.5010366,0.27543783,-0.71540445,-2.7745757,-3.89624,-5.2516847
0.48543513,0.26686117,-0.69312793,-2.6881802,-3.7749176,-5.088156
0.47031987,0.25855175,-0.6715456,-2.6044767,-3.6573758,-4.9297233
0.45567554,0.25050125,-0.6506358,-2.5233812,-3.5434964,-4.776227
0.4414875,0.24270158,-0.63037735,-2.4448125,-3.433165,-4.627513
0.42774147,0.23514488,-0.61075014,-2.3686917,-3.326271,-4.4834323
0.41442367,0.22782362,-0.59173435,-2.2949421,-3.222707,-4.3438396
0.40152076,0.22073041,-0.5733109,-2.2234898,-3.1223693,-4.2085958
0.38901973,0.21385816,-0.55546135,-2.1542635,-3.025157,-4.0775647
0.37690812,0.20719996,-0.5381678,-2.0871933,-2.9309726,-3.9506152
0.36517373,0.20074914,-0.52141285,-2.022212,-2.839722,-3.8276196
0.35380483,0.19449925,-0.50517976,-1.9592547,-2.7513132,-3.7084546
0.34279,0.188444,-0.48945227,-1.8982583,-2.665658,-3.5930014
0.3321182,0.18257734,-0.47421458,-1.8391614,-2.5826702,-3.4811435
0.32177877,0.17689337,-0.4594514,-1.781905,-2.5022671,-3.372769
0.31176132,0.17138642,-0.445148,-1.7264316,-2.4243677,-3.2677698
0.3020558,0.16605096,-0.43129,-1.6726857,-2.3488944,-3.1660402
0.29265252,0.16088162,-0.41786355,-1.6206135,-2.275771,-3.0674784
0.28354207,0.15587328,-0.40485516,-1.5701627,-2.2049248,-2.9719858
0.27471527,0.15102087,-0.39225185,-1.5212828,-2.1362844,-2.8794665
0.26616332,0.14631957,-0.38004097,-1.473925,-2.0697815,-2.789828
0.25787768,0.14176464,-0.36821032,-1.4280417,-2.0053492,-2.7029808
0.24984999,0.13735153,-0.35674798,-1.3835871,-1.9429231,-2.6188376
0.24207225,0.13307583,-0.34564257,-1.3405166,-1.8824407,-2.5373142
0.23453668,0.12893327,-0.33488292,-1.298787,-1.8238413,-2.458329
0.22723573,0.12491966,-0.32445827,-1.2583568,-1.7670665,-2.381803
0.22016208,0.12103102,-0.31435817,-1.2191852,-1.7120594,-2.3076596
0.21330866,0.11726345,-0.30457252,-1.1812333,-1.6587647,-2.2358246
0.20666862,0.11361318,-0.29509154,-1.1444628,-1.6071293,-2.1662261
0.20023529,0.110076554,-0.28590572,-1.1088372,-1.5571015,-2.0987942
0.19400226,0.106650025,-0.27700588,-1.0743207,-1.5086311,-2.0334618
0.18796326,0.10333017,-0.26838312,-1.0408788,-1.4616698,-1.9701632
0.18211228,0.100113675,-0.26002878,-1.0084779,-1.4161704,-1.9088353
0.17644344,0.09699731,-0.25193456,-0.97708577,-1.3720875,-1.8494166
0.17095108,0.093977965,-0.24409229,-0.94667083,-1.3293769,-1.7918476
0.1656297,0.09105261,-0.23649417,-0.91720283,-1.2879959,-1.7360709
0.16047397,0.088218324,-0.22913258,-0.88865215,-1.2479032,-1.6820304
0.15547876,0.08547227,-0.22200015,-0.8609902,-1.2090586,-1.6296724
0.15063904,0.082811706,-0.21508977,-0.8341895,-1.1714232,-1.5789442
0.14594999,0.08023396,-0.2083945,-0.808223,-1.1349595,-1.5297952
0.1414069,0.07773646,-0.20190766,-0.7830649,-1.0996307,-1.4821762
0.13700522,0.075316705,-0.19562274,-0.75868994,-1.0654018,-1.4360394
0.13274059,0.07297228,-0.18953349,-0.73507375,-1.0322384,-1.3913391
0.1286087,0.07070083,-0.18363377,-0.71219265,-1.0001074,-1.3480301
0.12460543,0.068500094,-0.17791772,-0.6900239,-0.96897656,-1.3060693
0.12072679,0.06636786,-0.17237958,-0.66854525,-0.93881476,-1.2654147
