ax,ay,az,gx,gy,gz
-3.1318467,-2.6882062,-8.495532,10.1537285,-65.80787,-48.77317
-2.6859467,-3.0673757,-9.048457,16.83202,-76.475075,-50.864304
-2.3543956,-3.4492364,-9.295855,25.692575,-82.53118,-44.54534
-2.2465835,-3.7892163,-9.626625,34.47907,-87.57858,-35.35861
-2.2660017,-4.183,-10.024275,47.72729,-91.32514,-28.478363
-2.3265707,-4.3784437,-10.296791,61.515038,-93.86771,-26.755222
-2.2431366,-4.418772,-10.4267025,75.19315,-96.12455,-27.118002
-2.00159,-4.3613715,-10.432772,87.84126,-98.88649,-26.39467
-1.6200649,-4.22181,-10.3143015,99.079704,-102.52912,-23.386095
-1.1869045,-3.9989367,-10.086895,108.38561,-108.188225,-16.421297
-0.7824719,-3.7339473,-9.804375,116.157814,-114.811775,-8.735387
-0.43764624,-3.4687724,-9.491951,123.98157,-121.89436,-2.7927666
-0.03010859,-3.1251173,-9.068996,131.86261,-127.27606,0.09777493
0.449541,-2.7134082,-8.559852,139.22398,-130.04234,1.0618043
0.945499,-2.237107,-7.978042,145.51917,-130.43666,2.104287
1.414894,-1.5723941,-7.1981344,150.33246,-129.79532,2.563728
1.8957047,-0.8164473,-6.3048043,153.25444,-127.58114,2.6607072
2.3589518,-6.2537483e-06,-5.3359537,154.17299,-123.87742,2.747353
2.8031096,0.90160507,-4.281473,152.73383,-118.64627,2.3857124
3.2401333,1.8488781,-3.177213,147.05988,-110.914055,2.0687509
3.6093385,2.7165956,-2.162096,138.65257,-101.77934,2.6299174
3.8397322,3.4462523,-1.3379552,128.0872,-91.77501,3.6432126
3.9367535,4.0036716,-0.73732185,116.40001,-81.19456,3.9262383
3.9466112,4.3895125,-0.3387114,104.24448,-70.50504,3.18153
3.915167,4.628867,-0.1004831,91.76263,-60.125072,1.5471685
3.883085,4.7294807,-0.005299153,79.463295,-50.35623,-0.19177754
3.857776,4.757421,0.013265495,67.456436,-41.188023,-1.6534582
3.816468,4.721805,-0.03404818,55.886044,-32.575584,-2.6361754
3.7357893,4.627288,-0.14717497,44.96857,-24.67006,-3.2454789
3.6102407,4.4814606,-0.323328,35.082714,-17.655252,-3.9096265
3.4538066,4.297062,-0.5527116,26.225939,-11.461558,-4.7815504
3.292238,4.1046815,-0.80922735,18.301985,-6.067993,-5.7691336
3.1124156,3.8902235,-1.107012,11.401782,-1.5797955,-6.803542
2.9030442,3.6543407,-1.4427755,5.469004,1.9216604,-7.8461976
2.6615267,3.4040737,-1.8080289,0.7151131,3.9494908,-8.911516
2.4079769,3.1354473,-2.1926513,-2.8663342,4.9930124,-10.132025
2.1670492,2.871544,-2.5661602,-5.3203497,5.3351154,-11.512502
1.955151,2.624199,-2.9155405,-6.750133,5.0764256,-13.011978
1.7683083,2.40417,-3.2279627,-7.4998784,4.3993835,-14.25432
1.5724143,2.1999075,-3.5258286,-7.44657,2.678476,-15.148047
1.352631,2.0116415,-3.797341,-6.905166,0.35622832,-15.991782
1.1266208,1.8366755,-4.0390997,-5.746669,-2.3976717,-17.036104
0.9094343,1.6830682,-4.2483664,-4.1337185,-5.583212,-18.199194
0.707919,1.5516481,-4.42594,-2.295857,-9.211685,-19.245062
0.5297321,1.4343724,-4.5815563,-0.10270369,-13.576277,-20.28049
0.40290427,1.3206577,-4.721648,2.3187635,-18.45147,-21.240719
0.30674613,1.1999327,-4.845573,5.0216475,-23.780752,-22.14025
0.25026628,1.0941262,-4.9293427,8.077392,-29.408522,-23.193733
0.2461318,1.0264786,-4.9503675,11.073251,-35.07949,-24.479748
0.302341,0.96668875,-4.9308257,13.779095,-40.71905,-25.23698
0.40172383,0.8921282,-4.862163,16.414541,-46.593872,-25.157755
0.5449748,0.8522189,-4.704753,19.241533,-52.58479,-25.270027
0.77855855,0.8597283,-4.446223,22.018152,-57.6404,-26.275215
1.1179525,0.89319956,-4.0945954,24.475195,-61.23103,-27.510618
1.5254241,0.96030957,-3.6472864,26.11905,-63.0827,-27.994392
1.9821494,1.0661678,-3.0958238,26.83828,-63.673798,-27.694958
2.4431686,1.1568216,-2.537372,26.60401,-63.027054,-26.388868
2.8722908,1.2144094,-2.0149605,25.776134,-61.08749,-24.36587
3.2530773,1.2491564,-1.5405025,24.497347,-57.811634,-22.190018
3.5784118,1.2485324,-1.1411761,22.776937,-53.137287,-19.687904
3.8089578,1.1795228,-0.8527602,20.922884,-47.840683,-16.77639
3.964921,1.0613196,-0.6524216,19.256327,-42.021576,-13.567369
4.052506,0.9195293,-0.53160256,17.900211,-35.743977,-10.292361
4.080606,0.77309275,-0.47480166,16.907803,-29.138107,-7.134448
4.062022,0.63737863,-0.46367574,16.230284,-22.164005,-3.9789083
3.9870467,0.52488834,-0.51409745,15.848272,-15.367218,-0.8448393
3.8589492,0.43797773,-0.6091167,15.995652,-9.446661,2.0947912
3.6900396,0.38797686,-0.71653795,16.591043,-4.3079615,4.622741
3.5043237,0.37941843,-0.82721496,17.441273,0.10440992,6.6017666
3.3230047,0.41157895,-0.94152254,18.294174,3.738577,8.177878
3.1443834,0.49386632,-1.073641,19.0254,6.7152905,9.608221
2.949464,0.6090025,-1.2092925,19.56353,9.049842,10.711649
2.7397127,0.75056267,-1.3456358,19.814466,10.993237,11.518884
2.5048375,0.90522087,-1.4861466,19.795803,12.425466,11.846571
2.2479894,1.0687726,-1.6315802,19.630793,12.754975,11.430671
1.9855903,1.2601364,-1.7438062,19.20467,12.417008,10.340799
1.7376634,1.4856268,-1.8231608,18.433546,11.634716,8.667093
1.490538,1.732964,-1.8749832,17.165098,10.303412,6.527382
1.2377045,1.9669751,-1.9127548,15.334983,8.347006,4.09308
0.9919819,2.167307,-1.9526143,12.840556,5.649567,1.3257724
0.7878078,2.3150492,-2.005521,9.895994,2.4815807,-1.7482765
0.64460975,2.4021537,-2.0517492,6.4948254,-0.6573435,-4.8482013
0.55027777,2.4223137,-2.08913,2.9399812,-3.791361,-7.8542185
0.5001881,2.3586416,-2.1102521,-0.5180869,-7.074245,-10.681254
0.52462614,2.1880167,-2.1234717,-3.455003,-10.393902,-12.934488
0.7007974,1.8772407,-2.139283,-5.640636,-13.323772,-14.649971
1.0057316,1.4958849,-2.147685,-6.747031,-15.273203,-15.703473
1.4064696,1.0861562,-2.1286542,-6.5047417,-15.703538,-15.180236
1.789813,0.71273226,-2.0610046,-5.301876,-14.830359,-13.020261
2.0844727,0.4023232,-1.9515669,-3.433327,-12.978813,-9.689431
2.2721968,0.19154909,-1.8024355,-1.4194995,-10.281648,-6.0972514
2.375308,0.04754957,-1.6549011,0.6852945,-7.0851445,-2.4373746
2.3009548,0.046061147,-1.6030984,0.66384304,-6.8633614,-2.3610783
2.2289538,0.044619814,-1.5529345,0.64307016,-6.6485944,-2.287196
2.1592283,0.04322403,-1.5043563,0.6229539,-6.440615,-2.2156487
2.0917046,0.041872323,-1.4573117,0.60347277,-6.2392035,-2.1463606
2.0263112,0.04056326,-1.4117515,0.5846063,-6.044146,-2.0792584
1.9629793,0.03929546,-1.3676275,0.56633455,-5.855237,-2.0142717
1.9016421,0.038067598,-1.3248932,0.5486383,-5.672279,-1.9513317
1.8422357,0.03687838,-1.2835041,0.531499,-5.495079,-1.890373
1.7846978,0.035726573,-1.2434169,0.51489896,-5.3234534,-1.8313316
1.7289685,0.034610968,-1.2045898,0.49882063,-5.1572223,-1.7741462
1.67499,0.033530414,-1.1669824,0.48324743,-4.9962134,-1.7187573
1.6227063,0.032483783,-1.1305559,0.46816316,-4.84026,-1.6651074
1.5720633,0.03147,-1.0952724,0.4535523,-4.689201,-1.6131412
1.5230088,0.030488012,-1.0610956,0.4393997,-4.5428796,-1.5628048
1.4754922,0.029536812,-1.0279903,0.4256908,-4.4011455,-1.5140467
1.4294647,0.028615419,-0.99592245,0.41241148,-4.263853,-1.4668164
1.3848789,0.027722888,-0.9648591,0.39954814,-4.130861,-1.4210656
1.3416891,0.026858304,-0.9347684,0.38708758,-4.002033,-1.3767474
1.2998513,0.026020784,-0.90561956,0.37501705,-3.877238,-1.3338163
1.2593226,0.025209468,-0.87738276,0.3633242,-3.7563477,-1.2922285
1.2200617,0.02442353,-0.85002923,0.3519971,-3.6392386,-1.2519417
1.1820283,0.02366217,-0.8235311,0.34102422,-3.525792,-1.2129146
1.145184,0.022924611,-0.7978613,0.33039436,-3.4158916,-1.1751076
1.1094913,0.022210103,-0.7729938,0.32009673,-3.309426,-1.1384821
1.0749137,0.021517921,-0.7489033,0.31012085,-3.2062871,-1.1030011
1.0414164,0.020847362,-0.7255653,0.30045658,-3.1063702,-1.0686284
1.0089653,0.020197745,-0.70295626,0.29109418,-3.0095737,-1.0353293
0.9775273,0.019568413,-0.68105316,0.28202412,-2.9157999,-1.00307
0.94707096,0.018958727,-0.6598339,0.2732372,-2.8249533,-0.97181773
0.91756517,0.018368073,-0.6392769,0.26472455,-2.7369428,-0.941541
0.8889802,0.017795851,-0.6193615,0.2564776,-2.6516786,-0.91220915
0.8612872,0.017241485,-0.6000675,0.24848793,-2.5690749,-0.8837925
0.8344582,0.016704414,-0.5813754,0.24074756,-2.4890485,-0.85626245
0.8084661,0.016184097,-0.56326646,0.23324864,-2.4115183,-0.82959116
0.78328466,0.015680008,-0.5457223,0.2259836,-2.3364065,-0.80375177
0.75888854,0.015191641,-0.5287253,0.21894515,-2.2636368,-0.7787182
0.73525316,0.014718501,-0.5122583,0.21212615,-2.1931367,-0.7544652
0.7123547,0.014260113,-0.49630472,0.20551978,-2.1248343,-0.7309684
0.6901701,0.013816017,-0.4808485,0.19911936,-2.0586615,-0.70820415
0.6686771,0.013385763,-0.4658741,0.19291845,-1.9945514,-0.68614954
0.64785403,0.012968921,-0.45136645,0.18691084,-1.9324397,-0.66478235
0.62767994,0.012565071,-0.43731096,0.18109046,-1.8722638,-0.6440812
0.6081346,0.012173806,-0.4236935,0.17545147,-1.8139633,-0.62402505
0.58919835,0.011794735,-0.41050044,0.16998821,-1.7574795,-0.604594
0.5708521,0.011427475,-0.39771843,0.1646952,-1.7027559,-0.5857684
0.5530775,0.011071659,-0.3853347,0.1595671,-1.6497374,-0.5675294
0.5358568,0.010726929,-0.37333682,0.15459877,-1.5983707,-0.5498586
0.5191725,0.010392938,-0.36171272,0.14978522,-1.5486042,-0.5327384
0.50300795,0.010069353,-0.35045072,0.14512163,-1.5003883,-0.5161515
0.48734698,0.009755847,-0.33953956,0.14060333,-1.4536742,-0.5000813
0.47217384,0.009452106,-0.3289683,0.13622576,-1.4084152,-0.4845117
0.45747334,0.009157828,-0.3187263,0.13198455,-1.3645661,-0.46942705
0.4432307,0.008872715,-0.3088033,0.12787545,-1.3220826,-0.45481226
0.42943165,0.008596482,-0.29918936,0.12389431,-1.2809224,-0.44065264
0.41606238,0.008328851,-0.28987485,0.120037176,-1.2410442,-0.42693403
0.40310946,0.008069556,-0.28085044,0.11630016,-1.2024077,-0.41364264
0.39055994,0.007818337,-0.27210703,0.112679526,-1.1649747,-0.4007652
0.37840122,0.00757494,-0.26363593,0.109171644,-1.1287072,-0.3882888
0.36662114,0.007339123,-0.25542864,0.105772994,-1.0935692,-0.37620088
0.35520786,0.0071106493,-0.2474769,0.10248019,-1.0595254,-0.3644894
0.34415,0.00688929,-0.23977278,0.09928991,-1.0265416,-0.3531426
0.33343646,0.0066748234,-0.23230855,0.09619897,-0.994585,-0.3421491
0.32305652,0.006467035,-0.22507675,0.093204275,-0.96362334,-0.33149794
0.31299978,0.006265716,-0.2180701,0.090302825,-0.93362576,-0.3211784
0.30325615,0.0060706655,-0.21128163,0.08749172,-0.9045622,-0.3111802
0.2938159,0.005881688,-0.20470452,0.08476814,-0.8764035,-0.3014933
0.2846696,0.0056985947,-0.19833218,0.08212935,-0.8491216,-0.29210797
0.27580804,0.0055212015,-0.19215825,0.07957273,-0.82268906,-0.28301486
0.26722237,0.0053493315,-0.18617654,0.0770957,-0.79707944,-0.27420488
0.25890404,0.0051828125,-0.18038104,0.07469579,-0.7722672,-0.26566917
0.25084466,0.0050214776,-0.174766,0.072370596,-0.7482274,-0.25739917
0.24303618,0.0048651653,-0.16932577,0.070117794,-0.72493607,-0.24938668
0.23547082,0.0047137197,-0.16405489,0.06793513,-0.70236987,-0.24162363
0.22814097,0.004566989,-0.15894811,0.06582041,-0.68050617,-0.23410226
0.22103931,0.0044248262,-0.15400033,0.06377153,-0.6593231,-0.22681504
0.21415874,0.0042870888,-0.14920656,0.061786436,-0.63879955,-0.21975468
0.20749238,0.0041536395,-0.14456204,0.059863135,-0.6189149,-0.21291412
0.20103353,0.004024345,-0.1400621,0.05799971,-0.59964925,-0.20628652
0.19477576,0.003899075,-0.13570224,0.056194298,-0.5809834,-0.19986524
0.1887128,0.0037777051,-0.13147812,0.054445084,-0.5628986,-0.19364384
0.18283857,0.0036601133,-0.12738548,0.052750327,-0.5453768,-0.18761612
0.17714722,0.003546182,-0.12342026,0.051108327,-0.5284004,-0.18177606
0.17163303,0.0034357975,-0.119578466,0.04951744,-0.5119525,-0.17611778
0.1662905,0.0033288493,-0.115856275,0.04797608,-0.49601662,-0.17063566
0.16111428,0.0032252301,-0.11224995,0.0464827,-0.4805768,-0.16532417
0.15609919,0.0031248366,-0.10875588,0.04503581,-0.46561766,-0.16017804
0.15124021,0.0030275683,-0.10537058,0.043633956,-0.45112413,-0.15519209
0.14653249,0.0029333278,-0.102090664,0.04227574,-0.43708178,-0.15036136
