ax,ay,az,gx,gy,gz
-3.7363977,-1.4309222,-5.7382336,-64.08786,6.7136974,-16.757425
-3.7686079,-1.9322025,-6.6953444,-57.515064,-5.761969,-21.365135
-3.6611204,-2.3238142,-7.2239327,-54.47114,-19.620304,-21.699568
-3.3903337,-2.790463,-7.739759,-49.398937,-29.624538,-17.776876
-3.243471,-3.33139,-8.305882,-40.77206,-38.266712,-14.20918
-3.1033885,-3.9472787,-8.903983,-27.913815,-45.771893,-12.625412
-2.8210185,-4.5422688,-9.450488,-12.387114,-51.591755,-11.851343
-2.3721383,-4.960702,-9.834712,4.9543867,-54.534874,-10.883549
-1.8240497,-5.2459583,-10.064317,21.895256,-55.62249,-8.3218775
-1.398837,-5.3813486,-10.178787,37.37273,-56.441277,-4.147642
-1.0875925,-5.407433,-10.218449,51.808598,-57.644035,0.6171991
-0.88344467,-5.3121963,-10.185242,65.65474,-60.21303,4.733925
-0.6929336,-5.125313,-10.067297,78.54432,-64.59942,8.645571
-0.41749573,-4.847219,-9.849263,89.601494,-69.12929,13.60958
-0.14443652,-4.498465,-9.573816,99.29262,-74.15781,19.361427
0.12225097,-4.104066,-9.24355,107.85989,-79.02497,24.770761
0.39315623,-3.6526322,-8.856938,115.86126,-83.147285,28.477457
0.7101153,-3.1277304,-8.394805,123.39139,-84.867935,29.549118
1.0871787,-2.4305265,-7.775195,130.07507,-84.63584,28.82192
1.4947432,-1.5979426,-7.022739,134.9674,-82.81192,27.425148
1.8880427,-0.68257207,-6.1707325,137.5213,-79.75919,26.732014
2.206257,0.30713657,-5.2396564,137.36243,-75.81334,26.117636
2.4685326,1.3059452,-4.286524,133.52489,-70.422516,24.925123
2.6479182,2.241656,-3.3851516,127.14782,-64.09264,23.365198
2.7444413,3.0455732,-2.6168754,118.51454,-57.125458,21.60737
2.7498667,3.6826038,-2.024636,108.27343,-49.968193,19.567978
2.692418,4.151759,-1.6061704,97.23388,-43.010544,16.694437
2.6143844,4.4783955,-1.3262231,85.66655,-36.48254,12.481901
2.5520973,4.665104,-1.1798824,74.12109,-30.571953,7.81253
2.5340722,4.7574,-1.115948,62.708645,-25.252914,2.8950415
2.5836842,4.774198,-1.1153289,51.527298,-20.003412,-1.3147864
2.6493285,4.7047334,-1.1914448,40.659107,-14.915428,-4.281193
2.6781301,4.549384,-1.3421448,30.441025,-9.8899355,-5.6805077
2.6157875,4.3267345,-1.570211,21.242332,-5.3491077,-6.7602043
2.500067,4.061695,-1.8519132,13.342003,-1.538519,-8.064437
2.35131,3.7612865,-2.1749008,6.8099914,1.461871,-9.752319
2.1825728,3.4336963,-2.5230215,1.3836936,3.6989172,-11.560368
2.0112405,3.078267,-2.8929613,-2.2650993,4.879075,-13.245099
1.8410605,2.7314484,-3.2542944,-4.642095,5.280683,-14.884798
1.6774998,2.4168935,-3.5884945,-6.1394954,4.880044,-16.503132
1.5235714,2.1204455,-3.9029589,-6.823221,3.7995572,-18.022642
1.3676554,1.8394516,-4.2099447,-6.490904,1.9270686,-19.300632
1.1961621,1.5916184,-4.4910836,-5.025128,-0.79152495,-20.671837
1.0182877,1.385441,-4.737903,-3.0008473,-4.128336,-22.080402
0.846493,1.2031406,-4.951762,-0.5928937,-7.9295654,-23.32208
0.6817266,1.0371007,-5.1526594,2.2867577,-12.235302,-24.365374
0.5501957,0.8914744,-5.3459263,5.7512712,-16.717361,-25.521507
0.464513,0.78180796,-5.519373,10.073612,-21.046663,-27.33197
0.42583248,0.6944647,-5.6493278,14.901322,-25.275536,-29.438288
0.40085053,0.62711453,-5.7306876,19.838522,-30.05141,-31.169682
0.4220363,0.58788586,-5.729956,24.05229,-35.419365,-32.181072
0.4847956,0.502777,-5.6897507,28.089628,-41.027393,-31.906065
0.5566947,0.42858714,-5.5877666,32.260994,-47.431534,-31.17254
0.7283736,0.40142524,-5.367509,36.24716,-53.71068,-30.716291
1.025715,0.42171842,-5.0570197,40.02848,-59.28319,-30.351812
1.4559965,0.5292462,-4.623249,43.223427,-63.3413,-29.87386
1.9725277,0.74143416,-4.051104,45.328472,-65.52941,-29.110281
2.5177524,0.99563897,-3.4048853,45.92325,-65.1241,-27.480148
3.0153172,1.280627,-2.7374182,45.164722,-62.73729,-25.457771
3.4574828,1.5556188,-2.107414,43.381435,-58.848804,-23.54305
3.8329298,1.7676105,-1.5619255,40.641994,-53.596653,-21.404415
4.120039,1.8909606,-1.1336648,37.18576,-47.35181,-18.709833
4.304672,1.9216964,-0.83382756,33.463066,-40.191853,-15.663138
4.373845,1.8489318,-0.6707113,29.861101,-32.568756,-12.729586
4.376135,1.7190785,-0.5991006,26.803028,-24.802858,-10.093109
4.3170495,1.552783,-0.60214776,24.362833,-17.31772,-7.6877494
4.2213206,1.3807883,-0.65723354,22.355608,-10.090614,-5.321012
4.097154,1.2169063,-0.7553098,20.824253,-3.1720452,-2.915113
3.9372718,1.0731921,-0.89272547,19.574385,3.3053842,-0.3093894
3.745336,0.9639097,-1.055453,18.86068,8.881017,2.3395622
3.522797,0.89880025,-1.2340915,18.73435,13.145668,4.5854263
3.2864988,0.8661207,-1.4147195,18.903301,16.323713,6.2715974
3.0616312,0.8585276,-1.5939174,19.349628,18.592402,7.233382
2.8526702,0.88562757,-1.7776791,19.872248,20.341112,7.824735
2.650442,0.9570121,-1.9532859,20.375776,21.475567,8.24392
2.441635,1.0787497,-2.1081786,20.52673,21.885319,8.489076
2.220293,1.2290453,-2.248471,20.335102,21.625671,8.454173
1.9827174,1.3927379,-2.376809,19.843225,20.518576,7.720655
1.7357789,1.5894898,-2.4828389,19.0996,18.603848,6.344564
1.510579,1.7917918,-2.568538,17.948986,16.225733,4.4203086
1.2982266,1.9788035,-2.6442556,16.508644,13.420631,2.1197817
1.0945101,2.1475759,-2.703525,14.797666,10.2524605,-0.439029
0.9011183,2.2985904,-2.7503502,12.573367,6.406573,-3.4186263
0.7590456,2.4065619,-2.7837894,10.023252,2.3866866,-6.553963
0.6597289,2.4665544,-2.807266,7.136752,-1.7153941,-9.694352
0.59454894,2.465595,-2.818876,3.9266384,-5.876042,-12.646189
0.57334745,2.3940833,-2.812415,0.3745976,-10.047552,-15.509542
0.6304268,2.235075,-2.7815354,-3.2958844,-13.940588,-18.367771
0.8269993,1.9433918,-2.7315414,-6.4343014,-17.198784,-20.955154
1.1439041,1.5887108,-2.6630476,-8.757549,-19.538565,-22.83674
1.5821946,1.2034678,-2.5722935,-10.12944,-20.654957,-23.132814
2.063549,0.84706724,-2.4354103,-10.710554,-20.327349,-21.447056
2.4757247,0.55034775,-2.262701,-10.734484,-18.19316,-17.844908
2.7207794,0.33457997,-2.0816875,-10.117832,-15.045511,-13.7512865
2.6356688,0.32411376,-2.0165687,-9.80133,-14.574863,-13.321123
2.5532458,0.31397802,-1.9535064,-9.494821,-14.119076,-12.904543
2.4734232,0.30416206,-1.8924334,-9.197983,-13.677669,-12.501106
2.3961167,0.29465553,-1.8332858,-8.910501,-13.250175,-12.110386
2.3212454,0.28544843,-1.7760012,-8.632075,-12.836147,-11.731974
2.2487307,0.27653113,-1.7205197,-8.362412,-12.435152,-11.365471
2.1784968,0.26789433,-1.6667832,-8.101233,-12.046769,-11.010497
2.1104708,0.25952902,-1.614736,-7.848262,-11.670594,-10.666682
2.0445817,0.25142652,-1.5643239,-7.6032386,-11.306238,-10.333668
1.9807615,0.24357842,-1.5154946,-7.3659086,-10.953321,-10.011109
1.918944,0.23597659,-1.4681976,-7.1360264,-10.61148,-9.698673
1.8590655,0.2286132,-1.4223841,-6.913355,-10.28036,-9.396036
1.8010643,0.22148065,-1.3780069,-6.697664,-9.959621,-9.102888
1.7448806,0.21457162,-1.3350203,-6.488732,-9.648934,-8.818926
1.6904567,0.20787902,-1.2933804,-6.286345,-9.347979,-8.543859
1.637737,0.20139597,-1.2530441,-6.090295,-9.056446,-8.277405
1.5866675,0.19511585,-1.2139705,-5.9003816,-8.774039,-8.019291
1.537196,0.18903224,-1.1761194,-5.7164106,-8.500469,-7.7692533
1.489272,0.1831389,-1.1394525,-5.538194,-8.235456,-7.5270367
1.4428465,0.17742988,-1.103932,-5.3655505,-7.9787307,-7.2923946
1.3978724,0.17189932,-1.069522,-5.198304,-7.7300305,-7.065088
1.354304,0.16654162,-1.0361875,-5.036285,-7.489103,-6.8448853
1.3120968,0.16135131,-1.0038946,-4.8793283,-7.255704,-6.631563
1.2712082,0.15632315,-0.97261035,-4.7272744,-7.0295954,-6.424905
1.2315966,0.15145202,-0.9423032,-4.57997,-6.810549,-6.224701
1.1932218,0.146733,-0.9129424,-4.4372644,-6.598342,-6.030748
1.1560451,0.1421613,-0.88449824,-4.2990146,-6.3927603,-5.8428507
1.1200287,0.1377323,-0.8569419,-4.1650796,-6.1935954,-5.660818
1.0851364,0.13344152,-0.83024555,-4.035325,-6.000646,-5.484466
1.051333,0.12928462,-0.8043822,-3.9096186,-5.8137174,-5.313617
1.018584,0.12525742,-0.7793258,-3.7878344,-5.6326203,-5.1480985
0.98685664,0.12135584,-0.75505096,-3.6698492,-5.457173,-4.987743
0.9561188,0.11757594,-0.7315332,-3.5555437,-5.287197,-4.832389
0.9263396,0.11391394,-0.708749,-3.444803,-5.122523,-4.68188
0.8974891,0.11036612,-0.6866752,-3.3375156,-4.962983,-4.536064
0.869538,0.106928915,-0.66528964,-3.2335732,-4.808418,-4.3947945
0.8424583,0.10359887,-0.64457077,-3.1328714,-4.6586714,-4.2579293
0.8162228,0.100372635,-0.62449783,-3.0353086,-4.5135927,-4.1253304
0.79080504,0.09724696,-0.6050505,-2.940787,-4.3730364,-3.9968646
0.7661795,0.09421871,-0.5862093,-2.8492115,-4.2368608,-3.872403
0.7423214,0.09128483,-0.5679553,-2.7604897,-4.104929,-3.7518198
0.71920675,0.08844237,-0.55027014,-2.6745327,-3.9771082,-3.6349947
0.6968124,0.08568849,-0.53313607,-2.5912542,-3.8532708,-3.5218098
0.6751158,0.08302041,-0.5165359,-2.5105705,-3.7332919,-3.4121513
0.65409523,0.08043547,-0.5004529,-2.4324007,-3.617051,-3.3059096
0.6337295,0.077931054,-0.4848709,-2.356666,-3.5044315,-3.202978
0.61399823,0.07550465,-0.46977437,-2.283291,-3.3953204,-3.1032526
0.5948816,0.073153846,-0.4551481,-2.2122016,-3.2896085,-3.006634
0.57636046,0.07087626,-0.44097745,-2.1433265,-3.187189,-2.913025
0.55841625,0.068669625,-0.4272482,-2.076597,-3.0879602,-2.8223317
0.54103094,0.06653171,-0.41394657,-2.0119457,-2.991822,-2.7344632
0.5241871,0.06446039,-0.4010592,-1.9493079,-2.8986778,-2.6493316
0.5078678,0.062453575,-0.38857326,-1.8886211,-2.8084347,-2.5668514
0.49205682,0.06050926,-0.37647614,-1.8298243,-2.721002,-2.4869397
0.47673818,0.0586255,-0.36475575,-1.7728586,-2.6362925,-2.4095168
0.46189663,0.0568004,-0.35340035,-1.7176669,-2.5542207,-2.3345048
0.44751722,0.055032134,-0.34239858,-1.6641937,-2.4747047,-2.261829
0.43358558,0.053318933,-0.3317394,-1.6123859,-2.397665,-2.191416
0.42008778,0.051659077,-0.32141212,-1.5621912,-2.323024,-2.123196
0.40701026,0.05005091,-0.3114064,-1.5135596,-2.2507071,-2.0570998
0.39433995,0.048492815,-0.30171227,-1.4664421,-2.1806424,-1.9930619
0.38206416,0.046983235,-0.29231998,-1.4207917,-2.1127589,-1.9310179
0.37017056,0.045520656,-0.2832201,-1.3765628,-2.0469892,-1.8709058
0.35864732,0.044103615,-0.27440357,-1.333711,-1.9832672,-1.8126652
0.34748283,0.042730696,-0.26586154,-1.2921933,-1.9215292,-1.756238
0.33666593,0.04140052,-0.25758547,-1.2519683,-1.8617134,-1.7015675
0.32618582,0.040111758,-0.24956708,-1.2129956,-1.8037599,-1.6485993
0.316032,0.038863122,-0.24179831,-1.1752363,-1.7476108,-1.59728
0.3061943,0.037653357,-0.2342714,-1.1386526,-1.6932096,-1.5475587
0.29666287,0.036481258,-0.22697885,-1.1032078,-1.6405023,-1.4993851
0.28742817,0.035345647,-0.21991332,-1.0688666,-1.5894358,-1.4527115
0.27848098,0.034245394,-0.21306776,-1.0355943,-1.5399591,-1.4074907
0.26981232,0.03317939,-0.20643531,-1.003358,-1.4920228,-1.3636779
0.26141354,0.032146573,-0.20000933,-0.97212523,-1.4455786,-1.321229
0.25327623,0.03114591,-0.19378342,-0.9418648,-1.4005804,-1.2801015
0.24539222,0.030176397,-0.18775131,-0.91254634,-1.3569831,-1.2402544
0.23775364,0.029237067,-0.18190698,-0.8841406,-1.3147429,-1.2016478
0.23035288,0.028326977,-0.1762446,-0.8566191,-1.2738177,-1.164243
0.22318248,0.02744522,-0.17075849,-0.82995445,-1.2341665,-1.1280026
0.21623531,0.026590912,-0.16544315,-0.8041198,-1.1957496,-1.0928904
0.2095044,0.025763197,-0.1602933,-0.7790894,-1.1585287,-1.0588713
0.20298302,0.02496125,-0.15530373,-0.75483817,-1.1224664,-1.0259111
0.19666465,0.024184266,-0.1504695,-0.7313419,-1.0875267,-0.99397695
0.19054297,0.023431469,-0.14578576,-0.708577,-1.0536747,-0.9630369
0.18461184,0.022702105,-0.14124781,-0.68652076,-1.0208764,-0.93305993
0.17886534,0.021995448,-0.13685113,-0.6651511,-0.98909914,-0.9040162
