ax,ay,az,gx,gy,gz
-2.7627525,-0.7481886,-9.505541,5.7155066,-43.334938,-12.429204
-3.1974082,-1.1235547,-9.857869,4.35924,-58.631466,-11.334662
-3.5559905,-1.6588614,-9.993964,5.534517,-69.645134,-12.7802925
-3.835808,-2.3622277,-10.3212805,13.383903,-79.71502,-14.627295
-4.0372972,-2.9998817,-10.721563,24.772926,-90.059074,-16.594397
-4.1911535,-3.553465,-11.061552,38.612034,-102.83108,-17.171394
-4.1954136,-4.0242558,-11.281701,52.283443,-115.04638,-16.053354
-4.1138043,-4.3068457,-11.373349,66.38396,-126.62102,-15.186468
-3.8454673,-4.3654366,-11.287867,80.769,-136.8208,-15.427905
-3.3548112,-4.16104,-10.966682,94.96822,-145.91307,-15.87696
-2.602284,-3.7033343,-10.380756,108.17636,-152.70126,-16.126755
-1.4913143,-2.8124819,-9.359432,118.586044,-156.01479,-16.719769
-0.22594248,-1.6671057,-8.051322,124.87886,-155.5443,-18.163504
1.0878308,-0.48972782,-6.6019382,127.32565,-151.74829,-18.98559
2.3112907,0.6548053,-5.0740113,126.23782,-144.93835,-18.605635
3.3532856,1.7307504,-3.5782888,122.1249,-135.29521,-17.287418
4.1346855,2.698987,-2.2277973,114.220314,-122.44358,-15.34224
4.674916,3.4746356,-1.1439893,104.2033,-108.513855,-13.285904
4.9965224,4.020746,-0.36853367,92.8227,-94.259544,-11.319534
5.11688,4.321783,0.11248541,81.26704,-80.172195,-9.870902
5.097757,4.4361424,0.37511542,70.383354,-65.95286,-9.894766
4.9869227,4.411278,0.44828057,60.424587,-52.153927,-11.079009
4.8392797,4.320435,0.3978786,51.161526,-39.372337,-12.435763
4.614819,4.1737556,0.22734366,42.664677,-28.481201,-13.617522
4.3176885,3.983003,-0.0224287,35.113537,-19.427284,-14.915746
3.9890213,3.775327,-0.3190622,28.8172,-12.223922,-16.73149
3.6491106,3.5644052,-0.6550518,23.452253,-6.3639145,-18.852785
3.3285081,3.366291,-1.0049963,18.85911,-1.606878,-21.14934
3.0221727,3.186702,-1.3668624,14.903384,2.1131914,-23.513577
2.7276223,3.0303903,-1.7364928,11.453764,4.77513,-25.905983
2.4489982,2.8898118,-2.1055207,8.4314375,6.341768,-28.139406
2.1727602,2.7436235,-2.4806936,6.1488023,6.4562354,-30.245295
1.9077128,2.601085,-2.841012,4.4102726,5.711762,-32.10528
1.6492715,2.4637184,-3.1882026,3.1397889,4.3587465,-33.64208
1.3724439,2.3462918,-3.511148,2.349424,2.184181,-34.867092
1.0798985,2.2483242,-3.8061607,1.9671592,-1.1612847,-35.939705
0.80232406,2.1484609,-4.0724998,1.9274018,-5.1110625,-36.98123
0.5366379,2.0501192,-4.3151717,2.277371,-9.591493,-38.149307
0.28924727,1.9451667,-4.5311217,3.0796187,-14.593764,-39.556633
0.080411285,1.8537463,-4.694054,4.1654887,-19.996727,-41.223568
-0.04654062,1.7746823,-4.805457,5.433393,-25.961836,-43.18499
-0.11489144,1.692836,-4.8466206,6.6791086,-32.347496,-45.02944
-0.110805914,1.5841352,-4.8344016,7.7395015,-39.22338,-46.421173
0.0027932946,1.423791,-4.771218,8.695736,-46.32821,-47.011944
0.23951182,1.2054626,-4.6636877,9.831245,-53.010437,-46.921715
0.5898773,0.9700159,-4.486509,11.319992,-58.60019,-46.4959
1.056917,0.7543596,-4.1876173,12.837935,-62.396214,-45.744247
1.5673403,0.54170066,-3.8204722,14.419823,-64.70459,-44.30301
2.0762556,0.3563397,-3.3957424,16.090317,-65.50551,-42.12039
2.5514526,0.22193065,-2.937633,17.75902,-64.85731,-39.601746
2.9879696,0.1340734,-2.4788194,19.39975,-62.416656,-36.808628
3.3585598,0.09567627,-2.0392668,20.952795,-58.756824,-33.83208
3.6725352,0.09886077,-1.6299868,22.397863,-53.8863,-30.80148
3.9476664,0.15095478,-1.246934,23.573404,-47.982758,-27.793451
4.179571,0.23486862,-0.91330767,24.310946,-41.02089,-24.630375
4.3560433,0.3261218,-0.6458213,24.199533,-32.824768,-20.852562
4.4286814,0.39438355,-0.49587923,23.670721,-24.307308,-16.66459
4.3873653,0.43713954,-0.46488005,23.189001,-16.40563,-12.699941
4.259354,0.448504,-0.5187887,22.76642,-9.889708,-9.3219795
4.110159,0.41829258,-0.6223771,22.668982,-4.032736,-6.2171082
3.9219515,0.37206078,-0.780586,23.080532,1.229126,-3.2970772
3.6772223,0.33875415,-0.97838646,23.983889,5.5791073,-0.5979061
3.40125,0.33384973,-1.1830773,25.139881,9.124927,1.7510093
3.1024055,0.35748935,-1.3930471,26.649544,11.790595,3.5149753
2.7959645,0.42697006,-1.5967088,28.317507,13.46927,4.6154976
2.499984,0.55245334,-1.7751483,29.677694,14.046068,4.68092
2.2557788,0.72690815,-1.9300317,30.796083,14.153395,4.247281
2.0427914,0.9551653,-2.0608728,31.562357,13.663507,3.3596556
1.8429034,1.2292446,-2.1628523,31.76291,12.521483,2.0243108
1.6504691,1.531365,-2.2345705,31.207443,10.687844,0.3327335
1.4831998,1.8502606,-2.2726645,29.440353,8.581043,-1.6250857
1.3400496,2.1879218,-2.2784622,26.777111,6.480115,-3.8711567
1.2102686,2.52309,-2.2706993,23.244452,4.5455494,-6.358872
1.0783875,2.8391628,-2.2636364,18.842846,2.6785734,-9.072446
0.9521977,3.1162221,-2.2739437,13.684717,0.7742666,-11.946351
0.8339345,3.3422546,-2.3038814,7.8552,-1.1546558,-14.940611
0.72256434,3.4793832,-2.3612943,1.4575676,-3.279179,-18.116959
0.6344619,3.5426948,-2.421987,-5.057714,-5.421345,-21.654558
0.59301597,3.5012732,-2.4924808,-11.323073,-7.53831,-25.40094
0.6529193,3.3275118,-2.5780337,-17.033514,-9.3827715,-28.668129
0.8228836,3.0383244,-2.6558464,-21.730839,-10.233186,-31.158766
1.1127269,2.5977151,-2.7268078,-25.268072,-10.183882,-32.78716
1.4402192,2.0920904,-2.7680876,-27.64898,-9.2317915,-33.203476
1.3949413,2.026319,-2.6810641,-26.779747,-8.941562,-32.15962
1.3511138,1.9626542,-2.5968277,-25.938356,-8.660627,-31.149199
1.3086874,1.9010249,-2.515285,-25.123865,-8.388675,-30.171083
1.2676156,1.841363,-2.436345,-24.335377,-8.125404,-29.224192
1.2278526,1.7836026,-2.359921,-23.572018,-7.8705244,-28.30748
1.1893553,1.7276807,-2.2859294,-22.832954,-7.6237564,-27.419943
1.1520815,1.6735361,-2.2142897,-22.117382,-7.384832,-26.560617
1.1159909,1.6211102,-2.144924,-21.424524,-7.153492,-25.728569
1.0810447,1.5703466,-2.0777576,-20.753633,-6.9294863,-24.922901
1.0472051,1.5211906,-2.0127184,-20.10399,-6.7125754,-24.14275
1.0144362,1.4735898,-1.9497368,-19.474901,-6.5025268,-23.38728
0.982703,1.4274935,-1.8887458,-18.865694,-6.299117,-22.655685
0.95197177,1.3828527,-1.8296807,-18.275723,-6.1021304,-21.947195
0.92221004,1.3396204,-1.7724789,-17.704365,-5.9113584,-21.261055
0.89338654,1.2977507,-1.7170805,-17.151018,-5.7265997,-20.596544
0.86547095,1.2571999,-1.6634269,-16.6151,-5.547661,-19.952965
0.838434,1.2179255,-1.6114621,-16.096052,-5.3743544,-19.329643
0.81224746,1.1798865,-1.561132,-15.59333,-5.206499,-18.725927
0.7868841,1.1430432,-1.5123838,-15.106411,-5.04392,-18.141188
0.76231754,1.1073573,-1.465167,-14.634788,-4.8864484,-17.57482
0.7385223,1.0727919,-1.4194329,-14.177973,-4.7339215,-17.026234
0.71547383,1.0393112,-1.3751339,-13.735493,-4.5861807,-16.494862
0.69314826,1.0068806,-1.3322244,-13.306892,-4.4430737,-15.980158
0.6715226,0.9754668,-1.29066,-12.891728,-4.304454,-15.48159
0.6505746,0.94503736,-1.2503983,-12.489574,-4.1701775,-14.998647
0.6302828,0.91556114,-1.2113976,-12.100018,-4.0401073,-14.53083
0.61062646,0.8870079,-1.1736182,-11.722659,-3.91411,-14.077662
0.5915853,0.85934836,-1.1370213,-11.357112,-3.7920563,-13.6386795
0.57313997,0.8325543,-1.1015695,-11.003002,-3.673822,-13.213432
0.55527157,0.80659837,-1.0672268,-10.659969,-3.5592859,-12.801487
0.53796196,0.781454,-1.0339578,-10.327664,-3.4483314,-12.402423
0.5211935,0.7570958,-1.0017289,-10.005747,-3.3408456,-12.015835
0.5049491,0.7334989,-0.9705074,-9.693891,-3.2367191,-11.641329
0.48921224,0.71063924,-0.9402613,-9.391779,-3.1358461,-11.278524
0.47396702,0.6884937,-0.9109601,-9.099104,-3.0381243,-10.927053
0.4591979,0.6670398,-0.882574,-8.81557,-2.9434545,-10.586559
0.44488996,0.64625585,-0.8550743,-8.54089,-2.8517406,-10.256698
0.43102872,0.6261207,-0.8284331,-8.274785,-2.76289,-9.937134
0.41760013,0.60661405,-0.80262345,-8.016986,-2.676813,-9.627545
0.4045906,0.58771616,-0.7776193,-7.7672324,-2.5934222,-9.327618
0.39198703,0.569408,-0.7533953,-7.525272,-2.5126333,-9.037049
0.37977666,0.55167097,-0.7299271,-7.2908607,-2.434365,-8.755546
0.3679472,0.53448725,-0.707191,-7.063761,-2.3585382,-8.482823
0.35648668,0.5178395,-0.68516403,-6.843745,-2.2850764,-8.218608
0.34538358,0.5017109,-0.66382396,-6.6305904,-2.2139056,-7.9626317
0.3346267,0.48608527,-0.6431493,-6.4240823,-2.1449542,-7.7146378
0.32420522,0.47094682,-0.62311935,-6.2240133,-2.0781524,-7.474376
0.3141086,0.4562803,-0.6037138,-6.0301814,-2.0134335,-7.2416043
0.30432677,0.442071,-0.58491313,-5.8423915,-1.9507319,-7.0160894
0.2948498,0.42830458,-0.56669855,-5.660455,-1.8899846,-6.797603
0.28566822,0.41496724,-0.54905164,-5.4841895,-1.8311309,-6.585927
0.2767728,0.40204558,-0.5319547,-5.3134174,-1.7741112,-6.3808475
0.26815456,0.38952655,-0.5153905,-5.1479664,-1.7188684,-6.182159
0.25980487,0.37739763,-0.49934253,-4.9876714,-1.665347,-5.989661
0.25171536,0.36564663,-0.48379454,-4.8323708,-1.6134932,-5.8031616
0.24387787,0.35426176,-0.46873096,-4.6819086,-1.563255,-5.622473
0.23628457,0.34323156,-0.4541367,-4.536134,-1.5145819,-5.447413
0.2289278,0.332545,-0.43999708,-4.394901,-1.4674252,-5.277807
0.22180022,0.32219133,-0.42629793,-4.258067,-1.4217374,-5.1134844
0.21489467,0.31216016,-0.4130255,-4.125496,-1.3774729,-4.9542804
0.2082042,0.30244148,-0.40016648,-3.9970539,-1.334587,-4.8000355
0.20172212,0.2930255,-0.387708,-3.8726125,-1.2930369,-4.6505947
0.19544193,0.28390276,-0.37563753,-3.7520468,-1.252781,-4.5058084
0.18935734,0.27506417,-0.363943,-3.6352363,-1.2137789,-4.365531
0.18346223,0.26650083,-0.35261267,-3.5220637,-1.1759913,-4.229623
0.17775072,0.25820416,-0.3416352,-3.4124155,-1.1393806,-4.097947
0.17221707,0.25016588,-0.33099958,-3.306182,-1.10391,-3.9703717
0.16685575,0.24237792,-0.32069516,-3.2032564,-1.0695438,-3.8467693
0.16166137,0.23483247,-0.31071162,-3.1035361,-1.036248,-3.7270157
0.15662874,0.22752197,-0.30103898,-3.0069208,-1.0039889,-3.6109912
0.15175283,0.22043912,-0.2916675,-2.913314,-0.9727343,-3.4985795
0.14702873,0.21357681,-0.28258783,-2.822622,-0.94245285,-3.389668
0.14245173,0.20692816,-0.27379087,-2.7347538,-0.9131143,-3.2841477
0.13801724,0.20048653,-0.26526782,-2.6496215,-0.8846892,-3.181913
0.13372082,0.19424546,-0.25701013,-2.5671399,-0.8571492,-3.0828612
0.12955816,0.18819872,-0.24900955,-2.4872262,-0.8304666,-2.9868934
0.12552512,0.18234022,-0.24125807,-2.4098008,-0.80461484,-2.8939137
0.12161763,0.17666413,-0.23374793,-2.3347857,-0.7795679,-2.8038287
0.1178318,0.17116477,-0.22647159,-2.2621064,-0.75530076,-2.7165484
0.11416383,0.1658366,-0.2194218,-2.1916895,-0.7317891,-2.6319854
0.11061006,0.16067433,-0.21259148,-2.123465,-0.70900947,-2.5500553
0.10716692,0.15567276,-0.20597382,-2.0573647,-0.686939,-2.4706757
0.103830986,0.15082692,-0.19956216,-1.9933221,-0.66555566,-2.3937674
0.100598894,0.14613192,-0.19335012,-1.9312732,-0.64483804,-2.3192532
0.09746743,0.14158309,-0.18733147,-1.8711561,-0.62476534,-2.2470589
0.09443345,0.13717586,-0.18150018,-1.8129104,-0.60531753,-2.177112
0.09149391,0.13290584,-0.17585044,-1.7564781,-0.5864752,-2.1093428
0.08864589,0.12876876,-0.17037657,-1.7018024,-0.56821936,-2.0436833
0.08588653,0.12476045,-0.1650731,-1.6488289,-0.55053186,-1.9800676
0.08321307,0.12087692,-0.15993473,-1.5975044,-0.533395,-1.9184324
0.08062283,0.1171143,-0.15495631,-1.5477777,-0.51679164,-1.8587158
0.07811323,0.113468796,-0.15013288,-1.4995989,-0.50070506,-1.8008583
0.075681746,0.10993678,-0.14545959,-1.4529198,-0.4851193,-1.7448018
0.073325954,0.106514715,-0.14093179,-1.407694,-0.4700187,-1.6904902
0.0710435,0.10319917,-0.13654493,-1.3638759,-0.4553882,-1.6378695
0.06883209,0.09998684,-0.13229463,-1.3214219,-0.4412131,-1.5868868
0.06668953,0.096874505,-0.12817663,-1.2802894,-0.42747927,-1.537491
