ax,ay,az,gx,gy,gz
-1.3618306,-3.3318484,-10.431913,-96.21451,45.44405,30.240274
-1.2170653,-4.869956,-11.236708,-82.622574,4.481683,41.917873
-0.41850126,-6.848392,-11.3693,-62.13496,-19.255398,55.768806
0.29768378,-8.068907,-11.481838,-35.299156,-33.33835,71.417206
0.64678377,-8.573836,-11.859123,-8.825148,-44.655857,85.67463
0.7171528,-8.597859,-12.516925,19.897139,-61.335777,97.02084
1.0498282,-8.329552,-13.082563,46.458233,-82.20025,110.44865
1.7513156,-7.897947,-13.514909,69.32898,-102.05967,125.8685
2.6061616,-7.243525,-13.716497,90.87607,-119.61142,141.92378
3.50281,-6.045474,-13.65726,110.40017,-134.6973,154.0465
4.312457,-4.1006403,-13.295701,123.52958,-149.6366,156.66022
4.978985,-1.8786087,-12.583067,127.40547,-164.81941,146.33421
5.51586,0.2863341,-11.362207,127.403435,-175.7483,135.29793
5.7950673,2.8721986,-9.96606,121.63742,-183.61368,122.86345
6.075156,5.4968786,-8.436073,110.56584,-185.30374,107.98579
6.3089566,7.7163854,-7.1226463,91.40961,-181.15517,93.0322
6.4235334,9.323258,-6.1717424,64.96388,-171.16992,76.4723
6.4129457,10.115937,-5.772954,37.163166,-158.74597,58.973972
6.2700663,10.271311,-5.8536906,9.965903,-146.57263,41.492493
6.01908,9.797111,-6.270822,-14.124895,-135.93414,23.556004
5.776624,8.631165,-6.837681,-32.49648,-127.937744,5.15041
5.6434827,6.7998533,-7.3872595,-41.914932,-124.168144,-7.6217155
5.6532545,4.396866,-7.7543797,-43.034924,-121.852005,-12.147848
5.621659,2.3468242,-8.046947,-37.450897,-120.33059,-10.41642
5.475214,0.9405034,-8.3324795,-27.118837,-121.04637,-6.0388694
5.312617,0.042444117,-8.593667,-14.177646,-124.08507,0.00015114748
5.168412,-0.5209554,-8.813459,1.5430659,-129.27647,8.283336
5.094471,-0.56016296,-8.91812,17.24266,-135.21696,17.39923
5.099489,0.055571645,-8.844002,28.966692,-142.1339,25.925611
5.2114363,1.269805,-8.446902,33.49108,-149.88048,29.256891
5.455973,2.4090545,-7.7479053,34.09089,-155.32365,27.807623
5.7287135,3.325045,-6.939458,31.658215,-155.7413,26.045353
5.8711586,4.178604,-6.2214684,26.864012,-153.59015,23.295559
5.9483056,4.8711104,-5.6416163,20.790945,-149.88776,19.34246
5.9687214,5.3643126,-5.2260947,13.5315275,-145.2994,14.246531
5.9345603,5.637445,-4.979342,5.7740636,-140.49767,7.6307926
5.838773,5.676158,-4.8717246,-1.3144158,-136.84813,-0.08424163
5.678345,5.5139227,-4.8429213,-8.404746,-134.50986,-7.024383
5.5344725,5.2947907,-4.8038273,-16.114595,-133.28105,-12.464374
5.408925,5.0453835,-4.733847,-23.930283,-132.16364,-16.541367
5.28257,4.7566657,-4.6674514,-30.93965,-130.7596,-20.035055
5.1898947,4.4104505,-4.6157093,-36.564384,-128.82555,-23.03398
5.1513515,3.9767814,-4.569989,-41.11992,-126.56687,-25.435768
5.1433325,3.5160162,-4.494723,-44.900734,-123.84435,-26.654793
5.1495514,3.0561383,-4.395505,-48.00977,-120.385544,-26.572092
4.970605,2.9499378,-4.2427616,-46.341434,-116.20216,-25.648714
4.7990394,2.8481178,-4.0963182,-44.741917,-112.19133,-24.763426
4.634443,2.7504337,-3.9558237,-43.207367,-108.343414,-23.914093
4.476434,2.6566594,-3.8209522,-41.734238,-104.649506,-23.098757
4.324663,2.5665865,-3.6914046,-40.31926,-101.10142,-22.315605
4.178804,2.4800224,-3.5669036,-38.9594,-97.69154,-21.56296
4.0385556,2.3967886,-3.447192,-37.65185,-94.41284,-20.839268
3.903639,2.3167186,-3.332031,-36.39401,-91.25877,-20.143087
3.7737935,2.2396584,-3.2211988,-35.18345,-88.22326,-19.473074
3.6487765,2.1654637,-3.114488,-34.017902,-85.30063,-18.827976
3.528362,2.0940003,-3.0117054,-32.895264,-82.485596,-18.206627
3.4123378,2.0251427,-2.9126706,-31.813559,-79.77319,-17.607933
3.3005056,1.958773,-2.817214,-30.770939,-77.1588,-17.03087
3.1926796,1.8947809,-2.725177,-29.765667,-74.638054,-16.47448
3.0886853,1.8330625,-2.6364105,-28.796116,-72.20689,-15.9378605
2.9883575,1.7735205,-2.5507739,-27.860752,-69.86144,-15.420162
2.8915422,1.7160628,-2.4681349,-26.958132,-67.5981,-14.920588
2.7980928,1.6606027,-2.3883693,-26.086893,-65.41345,-14.43838
2.7078714,1.6070584,-2.311359,-25.24575,-63.304268,-13.972831
2.6207476,1.5553524,-2.2369926,-24.433487,-61.2675,-13.523266
2.5365977,1.5054115,-2.165165,-23.64895,-59.300255,-13.089046
2.4553049,1.4571661,-2.0957756,-22.891048,-57.3998,-12.669568
2.3767576,1.4105502,-2.0287302,-22.158745,-55.563538,-12.264258
2.3008509,1.3655013,-1.9639384,-21.45106,-53.788998,-11.872573
2.227484,1.3219596,-1.9013145,-20.767052,-52.073833,-11.493994
2.1565614,1.2798687,-1.840777,-20.105833,-50.415813,-11.128028
2.0879922,1.2391746,-1.7822484,-19.466557,-48.812813,-10.774205
2.0216897,1.1998255,-1.7256545,-18.84841,-47.2628,-10.432078
1.9575709,1.1617726,-1.6709247,-18.250626,-45.76384,-10.101221
1.8955569,1.1249688,-1.6179914,-17.672464,-44.314087,-9.781224
1.8355722,1.0893693,-1.5667903,-17.11322,-42.911774,-9.471699
1.7775446,1.0549312,-1.5172595,-16.572222,-41.55521,-9.172271
1.7214046,1.0216134,-1.4693401,-16.048824,-40.242775,-8.882585
1.6670861,0.98937666,-1.4229754,-15.542408,-38.972927,-8.602297
1.6145257,0.9581833,-1.3781114,-15.0523815,-37.744175,-8.33108
1.5636623,0.92799705,-1.3346959,-14.578177,-36.555096,-8.068622
1.5144377,0.8987834,-1.2926793,-14.119251,-35.40433,-7.8146186
1.4667957,0.87050897,-1.2520134,-13.67508,-34.29056,-7.568782
1.4206823,0.8431418,-1.2126524,-13.245161,-33.21253,-7.3308334
1.376046,0.81665117,-1.1745522,-12.829012,-32.169025,-7.1005063
1.3328367,0.7910075,-1.1376702,-12.426168,-31.158888,-6.8775434
1.2910069,0.7661824,-1.1019653,-12.036184,-30.180994,-6.6616983
1.2505102,0.74214864,-1.0673987,-11.65863,-29.234268,-6.452732
1.2113025,0.71887976,-1.0339321,-11.293092,-28.317675,-6.250417
1.1733409,0.69635046,-1.0015292,-10.939173,-27.430214,-6.0545325
1.1365844,0.6745363,-0.9701549,-10.596488,-26.570925,-5.864866
1.1009933,0.6534138,-0.93977535,-10.264668,-25.738878,-5.6812124
1.0665293,0.6329602,-0.9103579,-9.943357,-24.933186,-5.503376
1.0331557,0.61315376,-0.88187116,-9.632212,-24.15298,-5.3311653
1.0008368,0.5939733,-0.85428476,-9.3309,-23.397436,-5.1643977
0.96953857,0.5753985,-0.8275695,-9.0391035,-22.665749,-5.002896
0.93922764,0.5574097,-0.801697,-8.756512,-21.957144,-4.8464894
0.9098723,0.5399879,-0.7766401,-8.482828,-21.270878,-4.695013
0.88144153,0.523115,-0.75237244,-8.217766,-20.606226,-4.5483084
0.8539057,0.50677305,-0.72886866,-7.961046,-19.962498,-4.406221
0.82723594,0.4909452,-0.70610416,-7.712402,-19.339016,-4.268603
0.80140454,0.47561488,-0.6840552,-7.471573,-18.735132,-4.135311
0.77638465,0.46076614,-0.662699,-7.2383103,-18.15022,-4.0062065
0.7521503,0.44638366,-0.6420133,-7.012371,-17.583673,-3.8811553
0.7286765,0.43245247,-0.62197673,-6.7935224,-17.034906,-3.7600286
0.70593894,0.41895828,-0.6025686,-6.581538,-16.50335,-3.642701
0.68391424,0.40588713,-0.583769,-6.3761997,-15.98846,-3.5290518
0.6625797,0.39322558,-0.5655585,-6.1772957,-15.489704,-3.418964
0.6419135,0.38096067,-0.5479184,-5.9846225,-15.006572,-3.3123245
0.62189436,0.3690798,-0.5308307,-5.797982,-14.538567,-3.2090244
0.60250187,0.3575708,-0.5142778,-5.617184,-14.085212,-3.1089575
0.58371615,0.3464219,-0.49824286,-5.442043,-13.646041,-3.0120218
0.5655181,0.33562174,-0.4827095,-5.2723804,-13.220609,-2.918118
0.54788905,0.32515934,-0.4676619,-5.108023,-12.808479,-2.8271508
0.53081113,0.315024,-0.45308468,-4.9488044,-12.409234,-2.7390275
0.51426697,0.30520543,-0.4389631,-4.7945614,-12.022467,-2.6536582
0.49823973,0.29569364,-0.42528272,-4.645138,-11.647784,-2.5709565
0.48271316,0.286479,-0.41202968,-4.500382,-11.284806,-2.4908383
0.4676715,0.27755213,-0.3991906,-4.3601475,-10.933165,-2.413222
0.45309955,0.268904,-0.3867524,-4.224292,-10.592504,-2.3380296
0.43898252,0.26052588,-0.3747025,-4.092677,-10.262477,-2.2651846
0.4253061,0.25240925,-0.36302873,-3.9651706,-9.942752,-2.1946132
0.41205654,0.24454594,-0.3517193,-3.8416436,-9.633005,-2.1262445
0.39922038,0.23692797,-0.34076273,-3.7219708,-9.332923,-2.0600088
0.3867847,0.2295477,-0.330148,-3.606032,-9.042203,-1.9958397
0.37473693,0.22239763,-0.3198644,-3.4937093,-8.760552,-1.9336723
0.36306494,0.21547057,-0.3099015,-3.38489,-8.487686,-1.873444
0.35175696,0.20875955,-0.30024937,-3.2794647,-8.22333,-1.8150939
0.3408016,0.20225778,-0.29089817,-3.1773267,-7.967216,-1.7585633
0.3301878,0.19595873,-0.28183854,-3.0783732,-7.7190876,-1.7037952
0.3199049,0.18985608,-0.27306136,-2.9825046,-7.4786954,-1.6507345
0.30994254,0.18394366,-0.26455778,-2.8896246,-7.2457967,-1.599328
0.3002907,0.17821552,-0.25631928,-2.7996397,-7.0201573,-1.5495238
0.2909397,0.17266591,-0.24833752,-2.7124593,-6.801551,-1.5012718
0.2818801,0.16728926,-0.24060453,-2.627996,-6.589757,-1.4545237
0.27310285,0.16208015,-0.23311251,-2.5461645,-6.3845634,-1.4092324
0.26459908,0.15703337,-0.22585396,-2.4668832,-6.1857634,-1.3653523
0.2563603,0.15214384,-0.21882157,-2.390072,-5.993158,-1.3228394
0.24837817,0.14740664,-0.21200827,-2.315654,-5.806553,-1.2816511
0.24064474,0.14281704,-0.20540725,-2.2435546,-5.625762,-1.241746
0.23315223,0.13837041,-0.19901186,-2.173701,-5.450603,-1.203084
0.22589312,0.13406229,-0.19281569,-2.1060238,-5.2809005,-1.1656264
0.21886013,0.12988837,-0.18681253,-2.0404544,-5.116484,-1.1293356
0.2120462,0.12584446,-0.18099637,-1.9769275,-4.957189,-1.0941752
0.20544451,0.12192652,-0.17536137,-1.9153794,-4.8028555,-1.06011
0.19904843,0.118130594,-0.16990186,-1.855748,-4.653329,-1.0271057
0.19285156,0.1144529,-0.1646124,-1.797974,-4.508459,-0.99512935
0.18684767,0.11088973,-0.15948766,-1.7419993,-4.368101,-0.9641488
0.18103077,0.107437536,-0.15452252,-1.6877676,-4.2321143,-0.9341332
0.17539501,0.104092844,-0.149712,-1.6352249,-4.1003623,-0.9050522
0.16993475,0.1008523,-0.14505129,-1.5843184,-3.9727128,-0.87687683
0.16464452,0.09771268,-0.1405357,-1.5349971,-3.8490386,-0.8495788
0.15951903,0.09467082,-0.13616073,-1.4872116,-3.7292154,-0.82313085
0.15455313,0.09172367,-0.13192199,-1.440914,-3.6131234,-0.79750645
0.14974186,0.0888683,-0.12781523,-1.3960581,-3.500646,-0.7726799
0.1450804,0.08610183,-0.123836346,-1.3525988,-3.391671,-0.74862635
0.14056408,0.0834215,-0.11998134,-1.3104928,-3.286089,-0.72532177
0.13618837,0.08082462,-0.11624637,-1.2696975,-3.1837943,-0.7027428
0.1319489,0.0783086,-0.11262769,-1.2301726,-3.0846846,-0.68086684
0.12784143,0.07587091,-0.10912167,-1.1918782,-2.9886606,-0.65967196
0.12386184,0.07350911,-0.10572481,-1.1547761,-2.8956263,-0.63913697
0.12000615,0.07122085,-0.10243371,-1.1188291,-2.8054886,-0.6192413
0.116270505,0.06900383,-0.09924507,-1.0840013,-2.7181568,-0.59996504
0.112651154,0.066855825,-0.096155696,-1.0502578,-2.6335442,-0.5812889
0.10914449,0.0647747,-0.09316251,-1.0175648,-2.5515656,-0.5631942
0.105746984,0.062758364,-0.0902625,-0.9858895,-2.4721394,-0.5456628
0.10245526,0.0608048,-0.08745278,-0.9552004,-2.3951857,-0.5286772
0.099266,0.058912054,-0.08473053,-0.92546666,-2.320628,-0.51222044
0.096176036,0.057078227,-0.08209302,-0.8966586,-2.248391,-0.49627596
0.09318226,0.055301495,-0.07953762,-0.86874735,-2.178403,-0.48082784
0.09028168,0.053580068,-0.07706178,-0.84170496,-2.1105936,-0.46586064
0.0874714,0.051912233,-0.074663006,-0.81550443,-2.0448952,-0.45135936
0.0847486,0.050296318,-0.07233891,-0.7901196,-1.9812421,-0.43730953
0.08211057,0.048730705,-0.07008716,-0.7655249,-1.9195703,-0.42369705
0.079554655,0.04721383,-0.0679055,-0.7416959,-1.8598186,-0.41050833
0.077078305,0.045744173,-0.06579176,-0.7186086,-1.8019267,-0.39773017
0.07467905,0.044320267,-0.06374382,-0.69624007,-1.7458371,-0.38534978
0.072354466,0.042940687,-0.061759636,-0.6745678,-1.6914935,-0.3733548
0.07010225,0.04160405,-0.059837215,-0.65357023,-1.6388415,-0.3617332
0.06792015,0.040309023,-0.057974637,-0.6332262,-1.5878286,-0.35047337
