ax,ay,az,gx,gy,gz
4.3327665,-8.609169,-10.471004,-99.26636,9.987364,54.7105
4.8560386,-10.298164,-11.569259,-70.93022,-25.917456,78.662254
5.561497,-11.33095,-12.188361,-42.623077,-52.493504,100.77739
6.1751084,-11.43525,-12.754023,-11.075678,-75.1895,122.635185
6.6099534,-11.054989,-13.385404,18.62718,-95.92823,142.82784
7.015908,-10.344377,-13.970344,43.412407,-116.14295,162.55359
7.501336,-9.360361,-14.441865,62.592464,-136.97285,182.52634
8.024063,-7.87256,-14.800281,74.76853,-157.59625,197.2489
8.446438,-5.982066,-14.93797,82.810585,-178.5795,201.66296
8.821685,-3.597779,-14.567164,92.381065,-196.37541,191.21074
9.2088995,-0.7894676,-13.479373,95.28696,-209.63791,173.03392
9.504328,1.8872654,-11.74301,84.727165,-215.6813,157.78473
9.241435,4.559351,-9.70101,70.9722,-217.66925,139.81216
8.824597,7.018416,-7.720809,56.24166,-216.43074,117.09559
8.426401,9.133794,-5.9368334,38.837772,-212.14177,91.89886
8.180856,10.580492,-4.5110993,18.375677,-204.51138,67.59717
8.268926,11.3078985,-3.5890324,-4.761393,-192.20285,45.785553
8.834984,10.995485,-3.3408546,-26.799389,-177.1922,26.386923
9.499679,9.929938,-3.515923,-46.318203,-160.5371,9.575073
9.920046,8.168323,-3.987656,-61.00404,-143.18477,-3.0772042
9.874745,5.908162,-4.6923537,-69.24434,-127.29801,-10.629039
9.408227,3.460293,-5.508687,-67.85225,-116.8309,-11.072008
8.809841,1.4032166,-6.2540717,-61.168785,-110.87885,-6.581809
8.31353,-0.048901215,-6.850693,-51.175705,-108.76482,0.9381118
7.985804,-0.95036846,-7.2904224,-38.799362,-108.81107,10.509673
7.7822447,-1.4049306,-7.664173,-25.102205,-110.25114,20.869247
7.6378317,-1.5590616,-8.02839,-10.6017475,-113.910805,31.711273
7.5278783,-1.4986883,-8.343866,3.805988,-119.36453,43.15069
7.4703503,-1.2746403,-8.544033,17.32297,-126.78804,56.07728
7.5056605,-0.815136,-8.613204,28.521057,-135.8546,69.10697
7.625074,0.10428075,-8.501831,37.615234,-145.85483,77.08146
7.761461,1.3769021,-8.129207,41.165874,-154.32175,75.914474
7.9169626,2.4310102,-7.4919095,42.176003,-158.76398,72.7371
7.968899,3.3098435,-6.890289,41.54585,-159.40326,69.8397
7.9050965,4.201544,-6.3985853,38.642963,-158.66927,65.04395
7.803344,5.051564,-6.0027914,32.9772,-157.02403,58.004387
7.6522684,5.7744794,-5.735206,23.724068,-155.02332,47.970894
7.473585,6.217314,-5.6476746,12.577639,-153.40858,36.287853
7.3715715,6.402772,-5.6472797,-0.1501089,-152.20093,24.307854
7.3538165,6.3240175,-5.691185,-14.258485,-150.85367,13.661596
7.3836565,6.01674,-5.757652,-28.316,-149.2414,4.7983947
7.458998,5.5200787,-5.793141,-40.870148,-146.56558,-1.799596
7.557037,4.890914,-5.747584,-51.55156,-142.40854,-6.2891207
7.6007004,4.25224,-5.698608,-59.71555,-136.78941,-9.294263
7.5557346,3.6280951,-5.678846,-65.50409,-130.4208,-10.923652
7.4183774,3.0480814,-5.694176,-69.529205,-124.18133,-11.286384
7.162325,2.9428737,-5.4976363,-67.12933,-119.89509,-10.896823
6.9166727,2.8419397,-5.309079,-64.82694,-115.78294,-10.523086
6.680853,2.7450454,-5.1280694,-62.61671,-111.835396,-10.164308
6.454342,2.6519759,-4.9542046,-60.49372,-108.04367,-9.819692
6.2366543,2.562532,-4.7871127,-58.45343,-104.39965,-9.4885
6.0273414,2.476529,-4.6264486,-56.49163,-100.89581,-9.170049
5.825985,2.393795,-4.471892,-54.604404,-97.52517,-8.863704
5.632197,2.314171,-4.323145,-52.788116,-94.28122,-8.568873
5.4456153,2.237508,-4.1799293,-51.039368,-91.157906,-8.2850065
5.2659025,2.1636672,-4.041986,-49.355,-88.14957,-8.01159
5.0927424,2.0925186,-3.909072,-47.732044,-85.250916,-7.7481422
4.9258385,2.0239408,-3.7809606,-46.16773,-82.457,-7.494213
4.7649136,1.9578196,-3.6574383,-44.65945,-79.76317,-7.249381
4.6097074,1.8940479,-3.5383053,-43.204765,-77.16506,-7.0132484
4.4599733,1.8325249,-3.423373,-41.801376,-74.65856,-6.785442
4.315481,1.7731556,-3.3124642,-40.447113,-72.23981,-6.5656104
4.1760125,1.7158504,-3.2054114,-39.13994,-69.90515,-6.3534217
4.041362,1.6605247,-3.1020565,-37.877914,-67.65114,-6.148563
3.9113338,1.6070986,-3.00225,-36.659218,-65.47451,-5.950737
3.7857444,1.5554961,-2.9058504,-35.482124,-63.37218,-5.7596645
3.664419,1.5056455,-2.8127236,-34.344994,-61.34123,-5.5750785
3.5471914,1.4574788,-2.7227426,-33.24627,-59.378876,-5.3967276
3.4339042,1.410931,-2.6357858,-32.18448,-57.482483,-5.2243714
3.3244076,1.3659408,-2.551739,-31.158216,-55.649548,-5.0577826
3.2185593,1.3224496,-2.4704921,-30.166145,-53.877678,-4.896744
3.116223,1.2804015,-2.3919413,-29.206995,-52.164604,-4.741049
3.0172698,1.2397434,-2.315987,-28.27955,-50.50816,-4.5905004
2.921576,1.2004244,-2.2425346,-27.382652,-48.906273,-4.444911
2.8290234,1.1623962,-2.1714933,-26.515198,-47.356968,-4.3041005
2.7394993,1.1256123,-2.1027768,-25.676126,-45.858364,-4.1678977
2.6528957,1.0900284,-2.0363019,-24.86443,-44.40865,-4.0361385
2.5691097,1.0556022,-1.9719895,-24.07914,-43.006096,-3.9086657
2.488042,1.0222929,-1.9097639,-23.319328,-41.649048,-3.7853289
2.4095984,0.9900617,-1.8495523,-22.58411,-40.335926,-3.6659837
2.3336873,0.95887125,-1.7912848,-21.87263,-39.065197,-3.550492
2.260222,0.9286856,-1.7348945,-21.18407,-37.83541,-3.4387214
2.1891186,0.8994705,-1.6803172,-20.51765,-36.645164,-3.330544
2.120297,0.8711928,-1.6274911,-19.872614,-35.49311,-3.225838
2.0536795,0.84382087,-1.5763571,-19.248238,-34.377953,-3.1244855
1.9891919,0.81732404,-1.526858,-18.643824,-33.29845,-3.0263736
1.9267628,0.79167306,-1.4789389,-18.058704,-32.25341,-2.9313936
1.8663236,0.7668397,-1.4325471,-17.492233,-31.241676,-2.8394408
1.807808,0.74279666,-1.3876319,-16.943792,-30.262142,-2.7504148
1.7511523,0.71951777,-1.3441442,-16.412783,-29.313744,-2.6642182
1.696295,0.6969779,-1.3020371,-15.89863,-28.395449,-2.5807579
1.643177,0.67515266,-1.2612649,-15.400779,-27.506271,-2.4999437
1.5917413,0.6540186,-1.221784,-14.9186945,-26.645252,-2.421689
1.5419328,0.6335532,-1.1835523,-14.451861,-25.811476,-2.34591
1.4936986,0.6137346,-1.1465287,-13.9997835,-25.00405,-2.272526
1.4469875,0.5945418,-1.1106744,-13.56198,-24.22212,-2.2014592
1.40175,0.5759545,-1.0759511,-13.137989,-23.464859,-2.1326346
1.3579385,0.5579532,-1.0423224,-12.727364,-22.731468,-2.0659795
1.3155072,0.5405188,-1.009753,-12.329672,-22.02118,-2.0014238
1.2744112,0.52363324,-0.9782088,-11.944498,-21.333246,-1.9389002
1.2346079,0.5072788,-0.9476567,-11.57144,-20.666952,-1.8783432
1.1960559,0.49143842,-0.918065,-11.210109,-20.021603,-1.8196899
1.158715,0.47609568,-0.889403,-10.860128,-19.396528,-1.762879
1.1225466,0.4612347,-0.8616409,-10.521136,-18.791079,-1.7078519
1.087513,0.44684005,-0.83475,-10.192783,-18.204628,-1.6545516
1.0535784,0.43289688,-0.8087025,-9.874728,-17.636574,-1.6029232
1.0207076,0.41939086,-0.7834717,-9.566645,-17.086327,-1.5529133
0.98886687,0.40630808,-0.7590315,-9.268216,-16.553324,-1.5044706
0.9580236,0.3936351,-0.73535687,-8.9791355,-16.037016,-1.4575454
0.92814606,0.38135895,-0.71242356,-8.699106,-15.536876,-1.4120895
0.8992037,0.36946705,-0.6902081,-8.427842,-15.05239,-1.3680563
0.871167,0.35794723,-0.66868776,-8.165067,-14.583064,-1.325401
0.84400725,0.34678778,-0.64784056,-7.91051,-14.128418,-1.2840799
0.8176968,0.3359773,-0.62764525,-7.6639137,-13.687989,-1.244051
0.79220885,0.32550475,-0.60808134,-7.425027,-13.26133,-1.2052734
0.76751757,0.3153595,-0.58912885,-7.193606,-12.848004,-1.1677078
0.7435977,0.30553126,-0.57076854,-6.9694157,-12.447594,-1.131316
0.72042507,0.29601005,-0.55298173,-6.7522287,-12.059691,-1.096061
0.6979762,0.2867862,-0.5357505,-6.5418253,-11.683904,-1.061907
0.6762283,0.27785036,-0.5190573,-6.337991,-11.319851,-1.0288196
0.6551593,0.26919347,-0.5028852,-6.140521,-10.967162,-0.996765
0.634748,0.26080683,-0.48721796,-5.949215,-10.6254835,-0.96571106
0.61497366,0.25268188,-0.47203964,-5.763879,-10.294467,-0.9356262
0.5958163,0.24481049,-0.45733494,-5.5843253,-9.97378,-0.90648013
0.5772567,0.23718466,-0.44308898,-5.410374,-9.663097,-0.8782433
0.55927604,0.22979672,-0.42928743,-5.2418494,-9.362106,-0.85088736
0.54185617,0.2226392,-0.41591635,-5.0785804,-9.070503,-0.8243846
0.5249796,0.2157049,-0.40296224,-4.9204035,-8.787994,-0.79870844
0.5086292,0.20898683,-0.3904121,-4.767159,-8.514295,-0.7738329
0.49278867,0.20247823,-0.37825325,-4.6186924,-8.249128,-0.7497329
0.47744194,0.19617252,-0.36647347,-4.474854,-7.9922295,-0.7263843
0.46257362,0.1900634,-0.35506088,-4.3355,-7.743338,-0.70376354
0.44816875,0.18414469,-0.34400403,-4.2004895,-7.5022054,-0.6818478
0.43421286,0.17841046,-0.3332918,-4.069687,-7.2685876,-0.6606152
0.42069188,0.17285492,-0.3229134,-3.9429607,-7.0422506,-0.6400443
0.40759224,0.16747251,-0.31285843,-3.8201835,-6.822967,-0.6201144
0.3949008,0.16225782,-0.3031168,-3.7012324,-6.6105165,-0.6008055
0.3826048,0.15720561,-0.29367867,-3.5859873,-6.4046855,-0.5820983
0.37069193,0.15231082,-0.2845346,-3.474333,-6.2052674,-0.5639739
0.35915017,0.14756851,-0.27567542,-3.3661573,-6.0120616,-0.5464142
0.34796798,0.14297394,-0.26709223,-3.2613513,-5.8248754,-0.5294015
0.33713412,0.1385225,-0.2587764,-3.1598103,-5.64352,-0.5129188
0.32663772,0.13420972,-0.2507196,-3.0614324,-5.4678135,-0.49694946
0.3164683,0.13003127,-0.24291378,-2.9661186,-5.2975802,-0.4814776
0.3066156,0.12598297,-0.23535109,-2.8737736,-5.1326494,-0.46648762
0.29706976,0.12206076,-0.22802393,-2.7843049,-4.972855,-0.45196453
0.28782123,0.118260704,-0.22092497,-2.6976225,-4.818038,-0.43789372
0.27886075,0.114579,-0.2140471,-2.6136396,-4.668042,-0.42426115
0.2701793,0.111011945,-0.20738344,-2.5322723,-4.5227175,-0.41105315
0.26176822,0.10755598,-0.20092727,-2.453439,-4.3819184,-0.39825645
0.25361907,0.10420763,-0.19467217,-2.3770604,-4.245504,-0.38585824
0.24572366,0.10096355,-0.18861184,-2.3030603,-4.1133375,-0.3738461
0.23807412,0.09782048,-0.18274023,-2.2313645,-3.9852867,-0.36220804
0.23066278,0.09477529,-0.17705144,-2.1619012,-3.861223,-0.35093233
0.22348219,0.09182492,-0.1715398,-2.0946007,-3.7410223,-0.34000775
0.2165252,0.08896641,-0.16619976,-2.0293958,-3.6245642,-0.3294233
0.2097848,0.0861969,-0.161026,-1.9662211,-3.5117323,-0.31916842
0.2032543,0.083513625,-0.15601332,-1.9050134,-3.4024136,-0.30923283
0.1969271,0.080913894,-0.15115672,-1.8457115,-3.2964983,-0.2996066
0.19079691,0.078395106,-0.14645132,-1.7882558,-3.1938808,-0.29028007
0.18485758,0.075954735,-0.14189242,-1.732589,-3.094458,-0.2812439
0.17910315,0.073590346,-0.13747546,-1.6786554,-2.9981308,-0.27248907
0.17352788,0.07129956,-0.13319601,-1.6264008,-2.9048026,-0.26400682
0.16812618,0.0690801,-0.1290498,-1.575773,-2.81438,-0.25578862
0.16289265,0.066929735,-0.12503265,-1.5267215,-2.726772,-0.2478263
0.15782206,0.064846314,-0.12114058,-1.479197,-2.641892,-0.24011183
0.15290931,0.06282776,-0.117369674,-1.433152,-2.5596542,-0.23263755
0.1481495,0.060872037,-0.11371616,-1.3885405,-2.4799767,-0.22539595
0.1435379,0.0589772,-0.110176384,-1.3453177,-2.4027796,-0.21837978
0.13906983,0.057141356,-0.10674681,-1.3034406,-2.3279855,-0.21158205
0.13474086,0.05536266,-0.10342399,-1.2628671,-2.25552,-0.20499592
0.13054666,0.053639337,-0.10020462,-1.2235566,-2.1853104,-0.19861482
0.12648302,0.05196966,-0.09708547,-1.18547,-2.1172864,-0.19243237
0.12254589,0.05035196,-0.09406341,-1.148569,-2.05138,-0.18644238
0.11873132,0.048784617,-0.091135435,-1.1128167,-1.9875252,-0.18063885
0.11503549,0.047266066,-0.088298604,-1.0781773,-1.9256582,-0.17501599
0.11145472,0.04579479,-0.08555008,-1.0446162,-1.8657172,-0.16956817
0.1079854,0.04436931,-0.08288711,-1.0120999,-1.807642,-0.16428992
0.104624085,0.042988203,-0.080307044,-0.98059577,-1.7513746,-0.15917599
0.10136741,0.04165009,-0.07780729,-0.9500723,-1.6968588,-0.15422125
