ax,ay,az,gx,gy,gz
-1.2309202,-0.40000364,-2.0182002,-1.6645606,-0.1109101,18.477442
-1.5792556,-0.09315717,-2.333526,-0.2606218,-5.496459,10.9533415
-1.976667,0.0019044041,-2.7130759,0.040446624,-16.71857,1.279259
-2.366727,-0.05829487,-3.030573,1.5995171,-32.961662,-7.117461
-2.6522853,-0.23462991,-3.3390493,3.283043,-46.99091,-12.697828
-2.79307,-0.45479274,-3.701133,1.780222,-60.50665,-16.687157
-2.9018183,-0.75183773,-4.0907593,-0.07669122,-73.58823,-20.368498
-3.0339158,-1.1696966,-4.5292373,0.11704645,-86.76022,-24.581503
-3.110824,-1.6632775,-4.9862194,3.8024533,-100.30913,-28.556355
-3.0088696,-2.2313814,-5.400606,9.831718,-113.56237,-30.845247
-2.7367043,-2.8338108,-5.7074256,18.017862,-127.10843,-29.10107
-2.2543583,-3.3976996,-5.811031,27.308287,-139.64677,-21.14103
-1.654765,-3.743321,-5.730301,35.72213,-151.70319,-7.6737113
-0.94211465,-3.806058,-5.412945,41.14149,-162.16182,10.05776
-0.09440259,-3.6370928,-4.839824,43.820797,-169.53221,27.1758
0.7868142,-3.4296336,-4.142818,45.866642,-172.35933,41.72314
1.666859,-3.19911,-3.3658626,48.232025,-169.4219,52.6722
2.4989934,-2.91186,-2.5651689,51.61907,-161.42496,59.496204
3.2640533,-2.5915444,-1.7719296,56.52638,-147.03984,61.684265
3.8659844,-2.208876,-1.1058452,60.090878,-130.87294,62.48908
4.2990346,-1.8027008,-0.5681824,61.555157,-114.29981,63.571995
4.5735545,-1.372667,-0.16843003,60.745804,-97.87476,65.23625
4.689976,-0.94310564,0.06670157,57.66959,-82.61232,67.16544
4.676184,-0.5573243,0.17891532,53.98122,-68.55757,69.04425
4.519006,-0.17175303,0.14162886,51.192055,-56.300404,69.737686
4.2956386,0.18617627,0.048284203,48.390137,-45.474293,68.561424
4.0589023,0.48460817,-0.06852897,46.252514,-35.492577,66.043175
3.8152244,0.75888896,-0.21014766,44.54227,-26.475428,62.61076
3.5520082,1.0422972,-0.38386106,42.387554,-19.536997,58.319065
3.2572958,1.3422301,-0.59184927,39.047913,-14.879466,53.505924
2.9573152,1.607276,-0.7908956,35.08749,-12.228395,48.380543
2.6668231,1.8660474,-0.97249526,30.329493,-11.199352,43.044388
2.3952098,2.1255395,-1.1262349,24.838556,-11.332486,37.20828
2.151683,2.3576095,-1.2509795,18.845303,-12.595926,30.167236
1.9501021,2.4688098,-1.3640684,12.495817,-14.643008,22.524738
1.785369,2.4673612,-1.4393815,6.8146205,-17.060926,15.079792
1.6588392,2.3970358,-1.461304,1.5474559,-19.57135,8.131077
1.6088421,2.243774,-1.3902494,-2.8967059,-21.205294,2.0038657
1.6342721,2.0105686,-1.2783818,-6.5066714,-21.384768,-2.5427823
1.773285,1.6618202,-1.1721444,-9.07188,-19.904264,-6.0430093
1.9885173,1.2393792,-1.0824215,-9.424057,-16.427969,-8.893661
2.2457302,0.79359615,-1.0138928,-7.4987125,-11.477407,-10.97423
2.5128303,0.38797855,-0.9604855,-4.8033876,-5.882005,-12.426666
2.7825139,-0.005109635,-0.89116204,-1.8569529,0.48875174,-12.4404335
3.0226023,-0.3722306,-0.8288197,1.1048592,7.344078,-10.866356
3.1997364,-0.668257,-0.7983503,4.0549226,14.421066,-7.846021
3.3059857,-0.88732094,-0.8139049,7.2814426,21.368334,-3.8674347
3.3250556,-1.0303662,-0.8943023,10.992385,27.64198,0.006075237
3.2797081,-1.1348871,-1.0073831,14.943911,33.27328,3.630885
3.1985168,-1.1997503,-1.1435646,18.851206,38.39672,7.338179
3.0964406,-1.2102816,-1.297207,22.05256,42.787415,11.498029
2.9682534,-1.1616411,-1.4621227,24.381023,46.35985,15.807193
2.8094606,-1.0615987,-1.637239,25.982763,49.00941,19.691538
2.6120646,-0.91981316,-1.8280591,27.01877,50.33924,22.388393
2.382852,-0.77806616,-2.0387158,27.67252,50.61068,24.31568
2.1568635,-0.6562228,-2.2526731,28.126965,49.885124,25.745014
1.9452639,-0.5446424,-2.465439,28.370138,48.160454,26.81918
1.7601213,-0.43912554,-2.6637988,28.710545,45.587967,27.710497
1.6061786,-0.3259869,-2.8330007,29.256107,42.411705,28.468185
1.4812236,-0.16947499,-2.9785686,29.688868,38.891052,28.888824
1.3648647,0.007796267,-3.1205626,29.89026,34.7035,28.632448
1.2586375,0.18193965,-3.2552533,30.035168,29.671886,27.928272
1.1635369,0.35885137,-3.3826435,29.247923,23.870354,27.003996
1.0778798,0.5228808,-3.504408,27.356274,17.078554,25.735746
0.98100686,0.6658672,-3.6236649,24.86974,9.6421585,24.196827
0.8728311,0.8127384,-3.7360895,22.27604,1.6874472,22.161694
0.75422686,0.9866713,-3.8562026,18.890165,-7.127789,19.48563
0.65463233,1.1646786,-3.9720988,14.911819,-16.732866,16.116982
0.58971584,1.3279834,-4.094351,10.213424,-27.632988,11.537993
0.62585276,1.3846788,-4.12814,5.802625,-38.24236,6.5147257
0.7773192,1.3166794,-3.9835827,3.7969544,-45.97384,2.7937157
0.99542695,1.2609836,-3.7485948,2.3565826,-51.512005,0.8340975
1.2361103,1.2466313,-3.4896202,-0.5401503,-55.6887,-0.82236415
1.4667412,1.165515,-3.2514496,-3.3008125,-58.27989,-3.709596
1.6697803,0.99230945,-3.0408332,-5.0214953,-60.055153,-7.2580695
1.8999404,0.8120504,-2.8087866,-6.328572,-61.330025,-10.73679
2.1573977,0.6369134,-2.5328763,-7.8245387,-61.96323,-13.613853
2.407553,0.4372492,-2.229653,-9.649665,-61.758503,-15.244576
2.6081922,0.21130945,-1.9356683,-11.120883,-60.298923,-14.713461
2.7047257,0.022413414,-1.715611,-12.155773,-58.64025,-13.273926
2.7369626,-0.13206166,-1.5373446,-12.307375,-57.0736,-11.790519
2.7457154,-0.2485685,-1.3722192,-11.954532,-55.384506,-10.477866
2.746039,-0.33031142,-1.2119309,-11.240531,-53.45787,-9.29764
2.7371721,-0.38506687,-1.0642996,-10.407435,-51.180496,-8.182163
2.6982386,-0.4287371,-0.94832283,-9.514747,-48.721004,-6.975858
2.6326032,-0.461842,-0.8643151,-8.757928,-46.18877,-5.507208
2.549981,-0.4473475,-0.8371893,-8.483068,-44.739178,-5.334369
2.4699926,-0.43331498,-0.81092817,-8.2169695,-43.335785,-5.1670394
2.39255,-0.41972908,-0.7855028,-7.959339,-41.977062,-5.005035
2.3175688,-0.406575,-0.76088554,-7.709898,-40.661522,-4.84818
2.2449677,-0.39383847,-0.73704976,-7.4683747,-39.387745,-4.696304
2.1746686,-0.38150576,-0.7139697,-7.234509,-38.15435,-4.5492435
2.1065958,-0.36956364,-0.6916206,-7.00805,-36.960022,-4.4068403
2.0406766,-0.35799932,-0.66997856,-6.7887554,-35.803474,-4.2689424
1.9768409,-0.34680054,-0.6490205,-6.576392,-34.683483,-4.1354027
1.9150208,-0.33595532,-0.6287242,-6.370734,-33.598858,-4.0060797
1.8551512,-0.3254523,-0.60906833,-6.1715646,-32.548447,-3.880837
1.7971687,-0.31528032,-0.590032,-5.9786735,-31.531153,-3.759542
1.7410126,-0.30542877,-0.57159525,-5.791858,-30.5459,-3.6420677
1.6866242,-0.29588732,-0.5537389,-5.610923,-29.591658,-3.528291
1.6339464,-0.28664598,-0.5364441,-5.435679,-28.667433,-3.4180932
1.5829245,-0.27769512,-0.5196931,-5.2659435,-27.772259,-3.3113592
1.5335056,-0.26902547,-0.5034682,-5.1015406,-26.905207,-3.2079785
1.4856383,-0.260628,-0.4877528,-4.9422994,-26.06538,-3.1078436
1.439273,-0.2524941,-0.47253054,-4.7880554,-25.251907,-3.0108511
1.3943621,-0.24461529,-0.45778576,-4.6386495,-24.46395,-2.9169006
1.3508592,-0.2369835,-0.4435032,-4.4939275,-23.700693,-2.8258958
1.3087194,-0.22959086,-0.42966825,-4.3537407,-22.961357,-2.737743
1.2678998,-0.2224298,-0.41626665,-4.217945,-22.24518,-2.6523511
1.2283583,-0.21549296,-0.4032847,-4.0864015,-21.551428,-2.5696332
1.1900544,-0.20877324,-0.3907091,-3.9589753,-20.87939,-2.4895043
1.1529491,-0.2022638,-0.378527,-3.8355365,-20.22838,-2.4118829
1.1170044,-0.19595797,-0.36672592,-3.7159586,-19.597734,-2.3366895
1.0821837,-0.18984932,-0.35529387,-3.6001203,-18.98681,-2.263847
1.0484517,-0.18393165,-0.34421924,-3.487903,-18.394985,-2.1932821
1.0157739,-0.17819892,-0.3334907,-3.379193,-17.821655,-2.1249228
0.9841171,-0.17264532,-0.3230974,-3.27388,-17.26624,-2.058699
0.9534492,-0.16726519,-0.31302878,-3.1718566,-16.728174,-1.9945441
0.92373914,-0.16205311,-0.3032746,-3.0730195,-16.206915,-1.9323928
0.89495677,-0.15700378,-0.293825,-2.9772687,-15.70193,-1.8721824
0.86707294,-0.15211207,-0.2846704,-2.8845072,-15.212711,-1.8138515
0.8400595,-0.14737305,-0.27580157,-2.794641,-14.738763,-1.7573414
0.8138891,-0.14278193,-0.26720953,-2.7075794,-14.279606,-1.7025949
0.7885353,-0.13833407,-0.25888556,-2.6232345,-13.834776,-1.6495566
0.76397246,-0.13402498,-0.2508213,-2.541521,-13.403824,-1.598173
0.7401759,-0.1298503,-0.2430086,-2.4623563,-12.986315,-1.5483924
0.7171215,-0.12580584,-0.23543957,-2.385661,-12.581828,-1.5001644
0.6947861,-0.1218875,-0.22810659,-2.3113575,-12.189956,-1.4534403
0.6731472,-0.118091345,-0.22100227,-2.2393708,-11.810303,-1.4081733
0.65218294,-0.11441355,-0.21411946,-2.1696286,-11.442487,-1.3643177
0.63187224,-0.110850416,-0.20745122,-2.1020608,-11.086138,-1.3218293
0.6121947,-0.10739835,-0.20099086,-2.0365992,-10.740898,-1.2806654
0.5931305,-0.10405389,-0.19473186,-1.9731781,-10.406419,-1.2407846
0.57466054,-0.10081367,-0.18866794,-1.9117336,-10.082364,-1.2021468
0.55676615,-0.09767443,-0.18279299,-1.8522041,-9.768409,-1.164713
0.5394294,-0.09463301,-0.17710114,-1.7945296,-9.464237,-1.1284459
0.5226329,-0.09168637,-0.17158663,-1.7386522,-9.169544,-1.0933088
0.5063597,-0.08883154,-0.16624396,-1.684516,-8.884033,-1.0592666
0.49059355,-0.08606566,-0.16106774,-1.6320664,-8.607417,-1.0262849
0.47531858,-0.08338594,-0.15605278,-1.5812509,-8.339419,-0.99433076
0.46051946,-0.08078971,-0.15119405,-1.5320184,-8.07977,-0.9633722
0.44618136,-0.07827435,-0.14648668,-1.4843196,-7.828209,-0.9333779
0.43228987,-0.075837344,-0.14192595,-1.4381065,-7.5844846,-0.904318
0.41883108,-0.07347625,-0.13750726,-1.393333,-7.3483515,-0.8761632
0.40579152,-0.07118869,-0.1332262,-1.3499539,-7.119573,-0.84888536
0.39315805,-0.06897238,-0.12907849,-1.3079259,-6.8979206,-0.82245713
0.38091806,-0.0668251,-0.12505996,-1.267207,-6.683171,-0.796852
0.36905926,-0.06474469,-0.12116657,-1.2277561,-6.4751096,-0.7720443
0.35756978,-0.06272907,-0.11739444,-1.1895338,-6.2735276,-0.74800915
0.3464381,-0.06077622,-0.11373977,-1.1525018,-6.078223,-0.7247225
0.33565307,-0.058884185,-0.110198915,-1.116623,-5.889001,-0.702161
0.32520387,-0.057051063,-0.106768325,-1.0818616,-5.705671,-0.6803021
0.31508005,-0.055275027,-0.103444554,-1.0481825,-5.5280495,-0.65912384
0.30527148,-0.05355429,-0.10022428,-1.0155522,-5.355959,-0.638605
0.29576832,-0.051887136,-0.097104274,-0.9839378,-5.1892266,-0.6187251
0.28656104,-0.050271887,-0.094081424,-0.9533078,-5.027686,-0.5994642
0.27764046,-0.048706934,-0.09115268,-0.92363155,-4.8711753,-0.580803
0.26899764,-0.047190707,-0.08831514,-0.8948792,-4.7195377,-0.56272286
0.26062387,-0.045721687,-0.08556594,-0.86702216,-4.572621,-0.5452056
0.25251085,-0.044298407,-0.082902335,-0.8400324,-4.430279,-0.52823377
0.24465042,-0.042919435,-0.08032166,-0.81388295,-4.292368,-0.5117903
0.23703471,-0.041583396,-0.07782133,-0.78854764,-4.158751,-0.4958588
0.22965609,-0.040288955,-0.07539884,-0.7640011,-4.029294,-0.4804233
0.2225072,-0.039034814,-0.07305177,-0.7402187,-3.9038675,-0.46546835
0.21558087,-0.037819713,-0.070777774,-0.71717674,-3.7823455,-0.450979
0.20887016,-0.036642443,-0.06857457,-0.6948521,-3.664607,-0.4369407
0.20236838,-0.035501827,-0.06643996,-0.67322254,-3.5505338,-0.42333946
0.196069,-0.034396715,-0.0643718,-0.65226626,-3.440012,-0.41016164
0.18996574,-0.033326007,-0.062368024,-0.6319624,-3.3329306,-0.39739406
0.18405247,-0.032288633,-0.060426626,-0.6122907,-3.229183,-0.38502395
0.17832328,-0.031283554,-0.058545668,-0.59323126,-3.128665,-0.37303892
0.17277245,-0.030309763,-0.056723263,-0.5747652,-3.031276,-0.361427
0.16739441,-0.029366285,-0.05495759,-0.55687404,-2.936919,-0.35017654
0.1621838,-0.028452178,-0.05324688,-0.53953975,-2.8454993,-0.33927634
0.1571354,-0.027566526,-0.05158943,-0.52274513,-2.7569253,-0.32871544
0.15224414,-0.026708445,-0.049983572,-0.5064733,-2.6711087,-0.3184833
0.14750515,-0.025877075,-0.048427705,-0.49070802,-2.5879636,-0.30856967
0.14291367,-0.025071586,-0.04692027,-0.47543347,-2.5074067,-0.29896468
0.13846512,-0.02429117,-0.04545976,-0.46063444,-2.4293573,-0.28965864
0.13415506,-0.023535049,-0.04404471,-0.44629607,-2.3537376,-0.2806423
