ax,ay,az,gx,gy,gz
-1.630924,-0.37000337,-5.0509553,79.73527,19.253813,-3.051846
-2.014516,-0.31663746,-5.5831904,82.92318,2.4026937,-5.698217
-2.2308705,-0.048850063,-5.862021,68.15703,-23.699966,-5.671324
-2.373625,0.16703357,-5.980258,52.726795,-47.901413,-5.1495595
-2.407636,0.075476095,-5.931472,39.842632,-66.67813,-3.7842762
-2.356891,-0.25938877,-5.9136863,32.491467,-80.824684,-1.8246645
-2.2956765,-0.6956505,-6.0066466,31.277647,-93.63707,-1.2245442
-2.2308736,-1.214945,-6.199462,34.311512,-109.83499,-0.62580454
-2.103285,-1.7416635,-6.3890715,37.185493,-127.80257,-0.2878762
-1.8827063,-2.2813063,-6.3787756,39.944607,-143.6768,2.129092
-1.591062,-2.7223763,-6.309586,41.177464,-158.93423,7.7545156
-1.182346,-2.9961388,-6.0595193,41.02683,-172.63765,15.936265
-0.6042383,-3.1537347,-5.6708307,38.90724,-185.18083,25.995686
0.1311948,-3.3157623,-5.107496,35.221138,-196.07701,36.676945
0.89560634,-3.5133717,-4.3905425,34.327686,-202.20189,49.643547
1.642423,-3.558771,-3.651543,35.228363,-202.96187,64.25981
2.3597875,-3.404918,-2.9273775,37.303837,-199.7629,76.63992
3.029165,-3.1240494,-2.2104294,40.002354,-191.73222,84.93874
3.6272867,-2.7143924,-1.4711334,41.713207,-180.52151,90.41005
4.1683974,-2.3277717,-0.7753594,44.34374,-166.04836,93.633545
4.6072826,-1.9136491,-0.20709372,46.77558,-149.68735,95.29279
4.9226823,-1.489534,0.2287726,47.341354,-132.49641,95.83671
5.1328406,-1.1029321,0.54613227,46.8672,-114.154755,95.65522
5.1924086,-0.7476217,0.6513065,47.037144,-96.715294,94.82755
5.11506,-0.40927726,0.6045723,45.872654,-81.31062,93.10203
4.968669,-0.1366554,0.50269246,44.35276,-67.583916,91.11512
4.796455,0.1107982,0.37190247,42.471085,-55.166565,89.16985
4.6220555,0.3269882,0.23360895,41.217293,-43.323223,87.225555
4.441357,0.54351395,0.049829073,39.75509,-32.4237,85.274994
4.237158,0.77422273,-0.18169603,38.558975,-23.634007,83.23446
3.9917266,1.0513207,-0.43674168,36.241646,-17.397459,80.889404
3.717941,1.3644509,-0.65610707,32.258686,-13.644848,77.933365
3.4364378,1.6953638,-0.8493226,26.348608,-12.058194,73.53936
3.1686685,2.0290642,-0.99459344,19.723425,-11.566224,67.57516
2.941185,2.3191605,-1.08327,13.773588,-11.363574,59.520466
2.7337341,2.533149,-1.1477338,9.170457,-11.533835,48.72689
2.5726209,2.6523595,-1.151564,6.388151,-11.483122,35.95784
2.507945,2.6746569,-1.0947756,3.9961822,-10.84186,22.232899
2.5977442,2.5411563,-0.96696156,0.46980974,-9.654067,9.554327
2.7743294,2.2823749,-0.8226014,-4.024369,-7.415181,-0.80688065
3.000277,1.894635,-0.7323551,-8.430873,-4.331394,-8.810362
3.25757,1.3900142,-0.67878693,-11.130102,-0.26794398,-14.361896
3.5463674,0.8280604,-0.6252057,-11.313801,5.5170474,-15.739454
3.8582509,0.32171595,-0.54746246,-9.657544,12.781696,-13.724756
4.0962133,-0.05400912,-0.5430361,-8.232147,20.351814,-10.037802
4.218769,-0.36074618,-0.60714847,-7.2101126,27.57914,-5.7694435
4.2467346,-0.6402997,-0.70824057,-5.1157837,34.645275,-1.0093318
4.2202315,-0.8761557,-0.8359232,-1.2790289,41.70702,4.482724
4.1463413,-1.0265747,-1.024229,3.5632606,47.653694,10.454126
4.036276,-1.0921944,-1.254433,8.197865,51.472168,16.285023
3.91016,-1.1178206,-1.4717908,12.343156,53.597992,21.907293
3.7818143,-1.1021533,-1.658804,16.640333,55.166805,27.034718
3.6335595,-1.010813,-1.8420489,20.549864,56.20701,30.592924
3.4632027,-0.87484133,-2.0268548,23.764307,56.74726,32.64091
3.2915616,-0.7637364,-2.2071733,26.26676,56.689148,34.23667
3.1210248,-0.6691961,-2.3993018,28.387041,55.901993,35.767616
2.9378312,-0.5661663,-2.6133952,29.82391,53.925278,37.176517
2.7581103,-0.45492974,-2.8238168,30.57074,50.39973,38.434517
2.6100159,-0.30360684,-2.9876277,31.123322,46.27864,39.2646
2.4854243,-0.10792223,-3.113045,31.403795,41.90836,39.371353
2.392089,0.09609646,-3.2105553,31.587132,37.378956,38.383915
2.3178308,0.28040293,-3.2916284,31.44176,32.646225,36.764656
2.2490957,0.44207785,-3.3682022,30.755037,27.391603,34.98274
2.1586807,0.5901392,-3.481146,28.987976,21.301037,32.731026
2.0602698,0.7109492,-3.6056237,26.450905,14.471079,30.044088
1.96692,0.82471335,-3.7293842,23.54969,6.917894,26.968708
1.8943659,0.9576256,-3.838207,20.293175,-1.3568985,23.405043
1.8424971,1.101948,-3.9418185,16.271896,-10.867375,18.393847
1.8299619,1.1784711,-4.0230083,11.857547,-20.851522,12.516043
1.8501793,1.1601211,-4.0444045,8.513392,-30.075392,6.8933
1.8832871,1.1632376,-4.0253196,5.8792124,-38.455578,2.3440557
1.9367582,1.2563275,-3.98194,2.333009,-46.802193,-1.9145231
2.0386016,1.3518338,-3.892268,-2.4158337,-54.838036,-6.7436237
2.2050884,1.3379477,-3.7688231,-7.3082886,-62.3072,-11.982766
2.4250646,1.2185512,-3.593644,-11.964745,-68.676575,-17.187223
2.686291,1.0196457,-3.342743,-15.497303,-73.217026,-21.433327
2.9403863,0.8151215,-3.0509956,-18.162102,-75.83037,-23.783134
3.1573484,0.65849817,-2.7717714,-20.62648,-76.74136,-25.088829
3.2952316,0.51269954,-2.5334773,-22.920399,-76.82741,-26.244307
3.384765,0.35109478,-2.319637,-24.778288,-76.175545,-27.156473
3.4549623,0.18670613,-2.1190338,-26.237776,-74.88328,-27.733448
3.5189943,0.024150828,-1.9232249,-27.588762,-73.00821,-27.701952
3.566497,-0.11854999,-1.7373292,-28.625582,-70.59435,-26.692228
3.4543731,-0.114823,-1.6827108,-27.725647,-68.375,-25.853075
3.3458402,-0.111215375,-1.6298418,-26.854536,-66.22673,-25.040798
3.2407775,-0.10772311,-1.5786632,-26.011278,-64.14715,-24.254492
3.1390686,-0.10434231,-1.5291183,-25.194937,-62.133945,-23.493288
3.0406015,-0.10106928,-1.4811524,-24.404615,-60.18491,-22.756344
2.9452684,-0.09790041,-1.4347132,-23.639448,-58.29791,-22.042854
2.852965,-0.094832264,-1.3897501,-22.8986,-56.470882,-21.352043
2.763592,-0.09186151,-1.3462143,-22.181269,-54.701855,-20.68316
2.6770527,-0.08898495,-1.3040588,-21.486683,-52.988914,-20.035486
2.5932539,-0.086199485,-1.2632383,-20.814093,-51.330223,-19.408323
2.5121064,-0.08350215,-1.2237093,-20.162783,-49.724007,-18.801003
2.4335234,-0.08089007,-1.1854297,-19.532059,-48.16856,-18.212875
2.357422,-0.07836046,-1.1483587,-18.92125,-46.662224,-17.64332
2.2837214,-0.07591066,-1.1124574,-18.32971,-45.203415,-17.091732
2.2123442,-0.07353809,-1.0776877,-17.756817,-43.79059,-16.557533
2.1432152,-0.07124025,-1.0440133,-17.201971,-42.422264,-16.040161
2.076262,-0.06901473,-1.0113987,-16.664589,-41.09701,-15.539073
2.0114148,-0.066859215,-0.97981006,-16.14411,-39.813442,-15.053747
1.948606,-0.06477146,-0.94921434,-15.639991,-38.57022,-14.583676
1.8877704,-0.06274929,-0.91957986,-15.15171,-37.36606,-14.128373
1.828845,-0.060790613,-0.89087576,-14.67876,-36.199703,-13.687366
1.7717687,-0.058893405,-0.86307245,-14.220651,-35.069946,-13.260198
1.7164825,-0.0570557,-0.8361412,-13.776911,-33.975628,-12.846427
1.6629298,-0.055275608,-0.81005436,-13.347083,-32.91562,-12.445629
1.6110551,-0.0535513,-0.7847849,-12.930724,-31.888824,-12.057391
1.5608054,-0.051881008,-0.7603071,-12.527408,-30.894194,-11.681314
1.5121292,-0.050263014,-0.73659563,-12.13672,-29.930708,-11.317014
1.4649764,-0.048695665,-0.7136264,-11.758262,-28.99738,-10.964116
1.4192992,-0.047177356,-0.69137585,-11.3916445,-28.093256,-10.62226
1.3750508,-0.045706544,-0.6698213,-11.036495,-27.217413,-10.291098
1.332186,-0.04428172,-0.64894086,-10.692452,-26.368958,-9.970291
1.2906612,-0.04290144,-0.62871313,-10.359164,-25.547028,-9.6595125
1.2504343,-0.041564304,-0.60911757,-10.036293,-24.750784,-9.358448
1.2114643,-0.040268943,-0.5901343,-9.72351,-23.979422,-9.066791
1.1737115,-0.03901405,-0.571744,-9.420498,-23.232155,-8.784244
1.137138,-0.03779835,-0.55392814,-9.126949,-22.508226,-8.510521
1.1017064,-0.036620606,-0.53666854,-8.8425665,-21.806902,-8.245345
1.067381,-0.03547963,-0.51994777,-8.567062,-21.127474,-7.9884486
1.034127,-0.034374274,-0.50374895,-8.300158,-20.469252,-7.73957
1.0019108,-0.03330341,-0.48805562,-8.041582,-19.831573,-7.4984593
0.97069985,-0.03226596,-0.472852,-7.7910757,-19.21379,-7.2648716
0.94046265,-0.031260878,-0.45812267,-7.548384,-18.615284,-7.0385714
0.91116863,-0.03028715,-0.44385284,-7.3132634,-18.035444,-6.81933
0.8827883,-0.029343791,-0.4300281,-7.085476,-17.473692,-6.6069274
0.8552931,-0.028429853,-0.41663447,-6.8647923,-16.929459,-6.401149
0.8286552,-0.027544413,-0.4036585,-6.6509905,-16.402195,-6.201787
0.80284786,-0.026686579,-0.3910871,-6.4438543,-15.891371,-6.008641
0.7778451,-0.02585549,-0.37890765,-6.243176,-15.396473,-5.821516
0.75362176,-0.025050309,-0.36710787,-6.0487533,-14.917002,-5.6402245
0.73015344,-0.024270223,-0.35567585,-5.860391,-14.452476,-5.464584
0.7074166,-0.023514451,-0.34460017,-5.6778994,-14.002427,-5.294418
0.68538827,-0.022782234,-0.33386964,-5.501095,-13.566405,-5.1295547
0.66404647,-0.022072835,-0.3234735,-5.3298,-13.1439705,-4.969829
0.6433697,-0.02138554,-0.31340134,-5.163843,-12.734699,-4.8150806
0.62333715,-0.02071966,-0.303643,-5.003057,-12.33818,-4.6651535
0.6039287,-0.020074528,-0.29418868,-4.8472805,-11.954015,-4.519898
0.58512497,-0.019449493,-0.2850289,-4.696357,-11.581818,-4.379168
0.566907,-0.01884393,-0.27615446,-4.550135,-11.221216,-4.2428217
0.54925656,-0.01825723,-0.2675565,-4.4084682,-10.871848,-4.110723
0.53215593,-0.017688807,-0.25922635,-4.2712145,-10.533361,-3.9827392
0.5155879,-0.017138088,-0.25115567,-4.1382356,-10.20542,-3.8587418
0.499536,-0.016604524,-0.24333638,-4.009399,-9.8876915,-3.7386065
0.48398402,-0.016087579,-0.23576063,-3.8845747,-9.579859,-3.622213
0.4689164,-0.015586731,-0.22842081,-3.7636383,-9.281614,-3.5094445
0.45431802,-0.015101483,-0.22130957,-3.6464682,-8.992658,-3.400188
0.44017428,-0.014631347,-0.21441981,-3.5329468,-8.7127,-3.294334
0.426471,-0.014175851,-0.2077446,-3.422961,-8.441461,-3.1917763
0.41319442,-0.013734539,-0.20127726,-3.3164,-8.178668,-3.0924125
0.4003313,-0.013306971,-0.19501132,-3.2131574,-7.924058,-2.9961429
0.38786873,-0.012892716,-0.18894048,-3.1131296,-7.6773767,-2.902871
0.3757942,-0.012491359,-0.18305868,-3.0162165,-7.438377,-2.8125033
0.36409566,-0.012102501,-0.17736003,-2.922321,-7.2068186,-2.7249494
0.35276136,-0.01172575,-0.1718388,-2.8313494,-6.9824705,-2.640122
0.34177998,-0.01136073,-0.1664895,-2.74321,-6.7651076,-2.5579355
0.3311405,-0.011007075,-0.16130675,-2.657815,-6.5545125,-2.478308
0.32083228,-0.010664431,-0.15628536,-2.5750787,-6.3504744,-2.4011595
0.310845,-0.010332455,-0.15142031,-2.4949183,-6.1527886,-2.3264132
0.30116868,-0.010010815,-0.14670673,-2.4172537,-5.961258,-2.253994
0.2917936,-0.009699189,-0.14213991,-2.3420072,-5.77569,-2.1838295
0.2827104,-0.009397265,-0.13771527,-2.2691033,-5.5958996,-2.1158495
0.27391002,-0.00910474,-0.13342836,-2.1984692,-5.4217067,-2.049986
0.26538357,-0.008821323,-0.12927492,-2.1300337,-5.2529364,-1.9861727
0.2571226,-0.008546728,-0.1252508,-2.0637293,-5.089421,-1.9243462
0.24911879,-0.008280682,-0.12135194,-1.9994887,-4.9309955,-1.8644445
0.24136415,-0.008022919,-0.11757447,-1.9372481,-4.777502,-1.8064076
0.23385094,-0.0077731805,-0.113914594,-1.8769451,-4.628787,-1.7501774
0.2265716,-0.0075312164,-0.110368654,-1.8185194,-4.484702,-1.6956978
0.21951889,-0.007296785,-0.106933095,-1.7619126,-4.3451023,-1.642914
0.21268572,-0.007069651,-0.103604496,-1.7070678,-4.2098484,-1.5917736
0.20606527,-0.006849588,-0.10037951,-1.6539305,-4.0788045,-1.5422251
0.19965091,-0.0066363756,-0.09725492,-1.6024474,-3.9518406,-1.4942191
0.19343625,-0.0064298003,-0.0942276,-1.5525669,-3.8288288,-1.4477075
0.18741503,-0.006229656,-0.09129451,-1.5042391,-3.7096465,-1.4026438
0.18158124,-0.0060357414,-0.088452734,-1.4574157,-3.5941741,-1.3589828
0.17592907,-0.005847864,-0.08569942,-1.41205,-3.4822962,-1.316681
0.17045285,-0.0056658345,-0.08303181,-1.3680964,-3.3739011,-1.275696
0.16514708,-0.0054894714,-0.08044724,-1.3255111,-3.2688801,-1.235987
