ax,ay,az,gx,gy,gz
-3.3754852,-0.4436404,-4.9464087,17.921982,-48.27408,-9.599178
-3.9398675,-0.52862287,-5.435069,14.268441,-76.543304,-15.785541
-4.210077,-0.62537134,-5.5559106,4.5881867,-103.72211,-22.38086
-3.958396,-1.1423142,-5.455072,-3.6922321,-121.497314,-27.63006
-3.6248674,-2.0999844,-5.4757752,-4.6858287,-132.79807,-31.595737
-3.3298209,-3.2332618,-5.7367897,1.9176866,-140.40628,-33.99307
-3.0471036,-4.1882124,-6.143307,11.304904,-149.01826,-34.368145
-2.5847666,-4.891662,-6.389322,23.705605,-158.49443,-30.409784
-1.8116444,-5.218633,-6.339706,34.908375,-167.60858,-22.908121
-0.95882034,-5.271949,-6.0551095,42.481903,-175.30545,-11.490457
-0.14099947,-5.1256976,-5.601502,47.349392,-180.96321,2.5671961
0.5826871,-4.84116,-5.0533524,50.27951,-184.99162,17.300835
1.2732656,-4.4844866,-4.4234567,51.983326,-185.96584,31.52245
2.026228,-4.0465493,-3.6660106,53.423504,-183.48755,44.139412
2.8064728,-3.558503,-2.852381,54.35855,-177.10042,54.977634
3.5896244,-3.0233464,-2.009766,54.85015,-167.00023,63.85137
4.284468,-2.4535697,-1.2184443,54.331444,-153.84023,70.514
4.838543,-1.9108363,-0.52593964,52.74239,-136.8803,74.71164
5.228418,-1.4368945,0.021017505,50.224907,-118.0431,77.98343
5.4789305,-0.9960772,0.3935573,47.583096,-98.85629,80.42244
5.56534,-0.56254005,0.5868655,44.07512,-80.959984,81.958534
5.519863,-0.18347499,0.6599398,40.05215,-64.52299,82.95369
5.371871,0.14786306,0.6227171,35.445995,-49.71568,83.43472
5.124522,0.43987036,0.47880203,31.168926,-36.72886,83.38415
4.8440847,0.69361275,0.2894687,28.011797,-25.46506,82.70983
4.5522733,0.9325501,0.061465256,25.107853,-16.18315,81.216606
4.2753444,1.1499614,-0.16171016,22.037054,-8.910902,79.01349
4.032263,1.3600278,-0.34389058,18.669106,-3.3274229,76.49823
3.8006968,1.6324058,-0.48527408,14.8293085,0.887259,73.35111
3.5599346,1.9379472,-0.6067684,10.669269,3.5262353,68.71755
3.3015082,2.242142,-0.71362853,5.6824875,4.5682664,62.016758
3.039043,2.487939,-0.7821234,0.40737122,4.6679845,53.463516
2.811884,2.6775594,-0.80733144,-4.8069363,4.586223,42.66216
2.616798,2.785702,-0.8045601,-10.541167,4.641183,31.276718
2.4257755,2.789403,-0.7996839,-15.472101,5.2289076,20.350922
2.2602506,2.6959133,-0.8278916,-19.452913,5.851626,10.080517
2.1666307,2.487364,-0.8666258,-22.41766,6.5075173,0.3775499
2.218703,2.140655,-0.89216447,-23.299751,8.011552,-8.381828
2.4841883,1.6382104,-0.8790029,-22.806395,10.268691,-14.68962
2.8726192,1.1006497,-0.8314674,-22.195658,13.439537,-18.08937
3.292184,0.56876516,-0.77902466,-21.739008,17.967033,-18.075274
3.6059415,0.09333873,-0.80617815,-20.184177,23.174791,-15.927161
3.7663188,-0.28655988,-0.911927,-16.52335,27.781054,-12.8995495
3.841081,-0.56725746,-1.0053257,-12.317514,32.116314,-9.620191
3.91297,-0.82191527,-1.0761561,-7.626637,36.617073,-5.587692
3.9604046,-1.0306262,-1.166292,-2.8715425,41.334232,-0.8249502
3.9591482,-1.1892744,-1.2898836,1.3250649,46.166492,4.537655
3.9023116,-1.3121198,-1.454723,6.0525055,50.603622,10.404655
3.764696,-1.383714,-1.6741638,11.393987,54.103596,16.505037
3.6002355,-1.3994215,-1.8917576,17.457912,56.635597,22.668812
3.4292638,-1.3181581,-2.086507,23.33294,58.32791,28.699528
3.2683933,-1.117487,-2.2337592,27.949566,59.443005,33.66454
3.098605,-0.86962295,-2.3663268,30.414896,59.486,35.7228
2.9266167,-0.69713515,-2.5021608,31.979544,58.80664,36.637833
2.7551608,-0.57495594,-2.6386745,33.166523,57.49947,37.39348
2.5829213,-0.4590235,-2.7785122,34.233276,55.555573,38.246185
2.4169617,-0.32670027,-2.919236,35.028316,52.773365,38.99556
2.2670271,-0.17736417,-3.0380952,35.344566,49.27757,39.531834
2.1446462,-0.0033544279,-3.1283255,35.43014,45.595924,39.697964
2.0309787,0.17522123,-3.2195513,34.90233,41.564,39.353214
1.9155698,0.33505937,-3.323704,33.57236,36.910946,38.59634
1.788229,0.46791977,-3.4491892,31.555311,31.386616,37.70776
1.6430483,0.5898266,-3.6000123,27.83509,23.996977,36.77316
1.4904041,0.7058134,-3.7521062,23.133413,15.244891,35.798035
1.3689976,0.81489027,-3.8627822,18.496923,5.9469113,34.4656
1.2795739,0.9360735,-3.9343605,15.574775,-2.8905985,32.106655
1.1723229,1.0947088,-4.045812,12.755742,-12.415889,28.304008
1.0622642,1.240628,-4.171734,8.424967,-23.46266,22.50152
1.0213124,1.3238682,-4.21853,4.107226,-34.459747,16.432072
1.0433681,1.4122628,-4.2410254,-0.5467676,-45.67858,10.384723
1.1297377,1.487046,-4.238382,-6.056234,-57.402,3.9908278
1.2830963,1.4732453,-4.1620603,-10.91714,-68.50547,-2.3325508
1.5348407,1.3728306,-4.012115,-13.08617,-77.40651,-8.305437
1.9862193,1.2034758,-3.7255309,-15.303769,-83.68954,-13.707983
2.5190532,0.96963793,-3.3453977,-17.496914,-86.67457,-17.030573
2.9953704,0.72800905,-2.9901395,-19.4039,-86.77487,-18.258915
3.33741,0.506687,-2.7175689,-21.731054,-84.38475,-18.084951
3.538043,0.31839976,-2.5570784,-23.163242,-80.97362,-17.157143
3.6291718,0.17818946,-2.4542074,-24.456505,-77.66739,-16.064934
3.6876514,0.048097566,-2.349369,-25.534727,-74.33924,-14.886848
3.7252462,-0.09105681,-2.240544,-26.46469,-70.89744,-13.616031
3.7400973,-0.24288477,-2.1343124,-26.840134,-67.320564,-12.003795
3.7271962,-0.38020504,-2.0375044,-26.702374,-63.664776,-9.813624
3.6781778,-0.47234377,-1.954492,-26.375216,-59.98621,-7.325308
3.6047149,-0.52681345,-1.8840666,-25.761314,-56.364098,-4.9166894
3.4915233,-0.510271,-1.824905,-24.952383,-54.59421,-4.7623005
3.381945,-0.4942566,-1.767632,-24.169275,-52.88082,-4.61284
3.275859,-0.4787526,-1.7121845,-23.411127,-51.222042,-4.4681435
3.1731498,-0.46374208,-1.6585016,-22.677109,-49.616055,-4.3280516
3.073705,-0.44920865,-1.6065251,-21.966421,-48.061115,-4.192413
2.977417,-0.4351366,-1.5561985,-21.278292,-46.555534,-4.06108
2.8841817,-0.42151067,-1.5074675,-20.61198,-45.097687,-3.9339106
2.7938993,-0.40831628,-1.4602798,-19.966772,-43.686012,-3.810769
2.7064734,-0.3955393,-1.4145851,-19.341976,-42.319,-3.691523
2.6218102,-0.3831662,-1.3703345,-18.736927,-40.99519,-3.5760462
2.5398207,-0.37118378,-1.3274812,-18.150984,-39.713184,-3.4642155
2.4604177,-0.35957938,-1.2859799,-17.583525,-38.471622,-3.3559132
2.3835177,-0.34834078,-1.2457868,-17.033955,-37.2692,-3.2510247
2.30904,-0.3374562,-1.2068597,-16.501696,-36.10465,-3.14944
2.2369065,-0.3269142,-1.169158,-15.98619,-34.976753,-3.0510528
2.167042,-0.3167038,-1.132642,-15.486898,-33.88434,-2.9557602
2.0993738,-0.30681437,-1.0972741,-15.003303,-32.82626,-2.8634634
2.0338311,-0.2972356,-1.063017,-14.534899,-31.801422,-2.7740657
1.9703466,-0.2879576,-1.0298357,-14.081202,-30.808764,-2.6874752
1.9088541,-0.27897075,-0.9976956,-13.641742,-29.847254,-2.603602
1.8492904,-0.27026576,-0.96656364,-13.216066,-28.915903,-2.5223594
1.791594,-0.2618337,-0.9364076,-12.803736,-28.013752,-2.4436638
1.7357057,-0.25366586,-0.90719664,-12.404327,-27.13987,-2.3674345
1.6815681,-0.2457539,-0.8789007,-12.017429,-26.293362,-2.293593
1.6291257,-0.23808965,-0.85149074,-11.642646,-25.47336,-2.2220635
1.5783248,-0.23066531,-0.8249387,-11.279594,-24.679026,-2.152773
1.5291133,-0.22347328,-0.7992175,-10.927901,-23.909546,-2.0856504
1.4814413,-0.21650621,-0.77430093,-10.587211,-23.164135,-2.0206277
1.4352599,-0.20975702,-0.75016344,-10.257173,-22.442034,-1.9576383
1.3905224,-0.20321882,-0.7267806,-9.937452,-21.742508,-1.8966179
1.347183,-0.19688495,-0.7041285,-9.627726,-21.064844,-1.8375046
1.3051977,-0.19074899,-0.68218416,-9.327675,-20.408354,-1.7802385
1.2645241,-0.18480471,-0.6609254,-9.036999,-19.772371,-1.7247611
1.2251208,-0.17904608,-0.64033055,-8.7554,-19.156252,-1.6710166
1.1869477,-0.17346726,-0.6203788,-8.4825945,-18.55937,-1.6189501
1.1499665,-0.16806261,-0.6010499,-8.218306,-17.981125,-1.5685091
1.1141396,-0.16282667,-0.5823243,-7.9622664,-17.420927,-1.5196426
1.0794307,-0.15775412,-0.5641831,-7.7142177,-16.878212,-1.4723011
1.0458049,-0.15283985,-0.54660803,-7.4739084,-16.35243,-1.4264368
1.0132282,-0.1480789,-0.52958125,-7.241097,-15.843055,-1.3820034
0.98166764,-0.14346647,-0.5130856,-7.0155478,-15.349567,-1.3389561
0.95109147,-0.1389979,-0.49710444,-6.7970333,-14.871471,-1.2972515
0.92146885,-0.13466868,-0.48162165,-6.5853333,-14.408286,-1.2568474
0.89277,-0.13047446,-0.46662167,-6.380235,-13.959544,-1.2177032
0.86496586,-0.126411,-0.4520894,-6.1815314,-13.524793,-1.1797795
0.8380286,-0.122474246,-0.43801016,-5.9890223,-13.103596,-1.143038
0.811931,-0.1186602,-0.4243698,-5.8025146,-12.695529,-1.107442
0.7866469,-0.11496504,-0.41115463,-5.62182,-12.300181,-1.0729555
0.7621509,-0.11138504,-0.39835134,-5.446758,-11.917155,-1.0395439
0.7384182,-0.107916616,-0.38594705,-5.2771506,-11.546066,-1.0071734
0.71542513,-0.10455628,-0.37392932,-5.112829,-11.186542,-0.9758118
0.6931485,-0.10130065,-0.36228606,-4.953628,-10.83822,-0.94542736
0.671566,-0.09814646,-0.35100558,-4.7993875,-10.500751,-0.91598964
0.6506559,-0.095090546,-0.3400766,-4.6499524,-10.173797,-0.8874691
0.6303973,-0.092129834,-0.32948807,-4.5051727,-9.857028,-0.8598372
0.6107698,-0.08926135,-0.3192294,-4.3649035,-9.550128,-0.833066
0.59175366,-0.086482234,-0.3092903,-4.229004,-9.252789,-0.8071288
0.5733299,-0.083789684,-0.2996608,-4.0973372,-8.96471,-0.7819995
0.55548006,-0.081181,-0.29033127,-3.969772,-8.685606,-0.757653
0.53818613,-0.078653574,-0.2812923,-3.84618,-8.4151945,-0.73406476
0.52143085,-0.07620486,-0.27253485,-3.7264373,-8.153205,-0.7112112
0.5051974,-0.073832415,-0.2640502,-3.610424,-7.899376,-0.68906945
0.48946953,-0.07153385,-0.25582972,-3.498024,-7.6534514,-0.6676172
0.47423148,-0.06930687,-0.24786527,-3.3891242,-7.4151855,-0.6468331
0.45946792,-0.067149244,-0.24014886,-3.2836156,-7.1843395,-0.6266962
0.44516414,-0.065058805,-0.23267274,-3.1813927,-6.9606824,-0.6071864
0.43130577,-0.06303347,-0.22542942,-3.0823529,-6.74399,-0.58828413
0.41787893,-0.06107119,-0.21841165,-2.9863973,-6.534045,-0.5699704
0.40487018,-0.05917002,-0.2116124,-2.8934293,-6.3306375,-0.552227
0.39226648,-0.057328045,-0.20502487,-2.8033564,-6.1335635,-0.5350361
0.38005522,-0.055543423,-0.19864245,-2.7160878,-5.9426255,-0.5183804
0.3682242,-0.05381437,-0.19245875,-2.6315367,-5.7576327,-0.50224334
0.35676152,-0.052139148,-0.18646757,-2.549618,-5.5784,-0.48660868
0.34565574,-0.050516088,-0.18066294,-2.4702497,-5.4047475,-0.47146085
0.33489573,-0.048943557,-0.17503905,-2.3933527,-5.2365017,-0.4567846
0.32447073,-0.047419988,-0.16959023,-2.3188498,-5.073494,-0.44256532
0.31437027,-0.045943853,-0.16431107,-2.2466664,-4.9155617,-0.42878872
0.3045843,-0.044513676,-0.15919626,-2.1767304,-4.762546,-0.41544104
0.29510298,-0.04312802,-0.15424068,-2.1089716,-4.614294,-0.40250888
0.28591686,-0.04178551,-0.1494394,-2.0433223,-4.470658,-0.38997936
0.2770167,-0.04048479,-0.14478758,-1.9797168,-4.331493,-0.3778399
0.26839364,-0.039224565,-0.14028057,-1.9180914,-4.1966605,-0.36607838
0.260039,-0.03800357,-0.13591388,-1.8583846,-4.0660257,-0.35468298
0.25194448,-0.03682059,-0.13168314,-1.8005365,-3.9394581,-0.34364235
0.24410193,-0.035674438,-0.1275841,-1.7444893,-3.8168304,-0.33294544
0.23650351,-0.034563962,-0.12361266,-1.6901869,-3.69802,-0.3225815
0.22914165,-0.03348806,-0.11976485,-1.6375748,-3.5829084,-0.31254023
0.22200897,-0.032445647,-0.11603683,-1.5866007,-3.4713802,-0.3028115
0.21509832,-0.031435687,-0.112424865,-1.5372133,-3.363324,-0.29338565
0.20840281,-0.030457167,-0.108925335,-1.4893633,-3.2586312,-0.28425324
0.20191571,-0.029509107,-0.10553475,-1.4430029,-3.1571977,-0.2754051
0.19563057,-0.02859056,-0.102249704,-1.3980858,-3.0589218,-0.2668324
0.18954107,-0.027700605,-0.09906692,-1.3545668,-2.963705,-0.25852656
0.18364114,-0.026838355,-0.095983215,-1.3124025,-2.8714523,-0.25047928
0.17792486,-0.026002945,-0.0929955,-1.2715508,-2.7820714,-0.24268252
