ax,ay,az,gx,gy,gz
-3.1973019,2.6191146,-6.6300607,-78.347984,-25.745687,-12.207384
-3.3677332,3.0469275,-6.9845233,-110.08546,-39.593872,-20.495344
-3.4902992,2.2910657,-6.64503,-87.172844,-45.08321,-20.992584
-3.321064,1.8555369,-6.6888433,-64.2633,-51.603123,-24.81854
-3.0321927,1.6660154,-6.914594,-51.5355,-60.521217,-26.798023
-2.766384,1.3300683,-7.1481676,-41.734276,-69.48477,-26.272259
-2.5770729,1.0009296,-7.3660884,-31.892336,-78.44494,-25.806644
-2.3722286,0.7121587,-7.517379,-21.518467,-86.6577,-25.516653
-2.1518495,0.37924966,-7.6901336,-14.892857,-93.459236,-23.704622
-1.939974,-0.033249687,-7.779766,-8.438862,-99.19666,-19.772661
-1.7702154,-0.40772665,-7.847226,-1.8504685,-104.85991,-14.785823
-1.6659515,-0.6603513,-7.843588,6.433113,-110.29695,-9.762764
-1.583384,-0.741692,-7.7372403,13.94678,-116.59371,-4.3318286
-1.4120386,-0.72767645,-7.376947,20.877161,-122.19635,1.0749162
-1.1477779,-0.6298574,-6.9051323,25.623331,-127.66734,6.258776
-0.77710694,-0.45807108,-6.273198,27.200178,-132.2499,11.221672
-0.39243144,-0.2062198,-5.535702,27.143326,-134.7732,15.588033
-0.055417635,0.089893736,-4.782154,26.140957,-135.14668,18.41539
0.27352646,0.40482193,-3.9857793,24.392218,-133.4442,20.181824
0.5647015,0.67483747,-3.242328,21.649084,-129.64653,21.660728
0.77761513,0.903918,-2.6541283,18.504835,-124.47399,22.950003
0.8998984,1.1103065,-2.2285872,15.545927,-118.958336,23.548605
0.9525521,1.3372124,-1.9401963,12.7964,-113.91129,22.745785
0.9753842,1.5430305,-1.7259749,9.754134,-109.76639,21.101702
1.0250708,1.730666,-1.5156428,7.643497,-105.67878,19.008665
1.0782325,1.926635,-1.3500724,5.088047,-101.9481,16.539923
1.1259959,2.1057694,-1.2171041,2.6493754,-98.34705,14.187439
1.1326844,2.302204,-1.1875743,0.66359943,-96.21916,11.242771
1.0560873,2.5113564,-1.2448245,-2.7898064,-96.00246,7.5808425
0.9624324,2.6622636,-1.2522599,-6.8785586,-96.20363,3.5798895
0.8946183,2.7771378,-1.2178333,-10.9642,-95.748116,-0.9237296
0.87689334,2.8559062,-1.1596954,-16.006546,-94.61134,-5.189992
0.8764574,2.8337386,-1.0933533,-21.301619,-92.219696,-7.8670945
0.83230656,2.7609296,-1.0785627,-26.758654,-89.38193,-9.810628
0.7581583,2.6394172,-1.1074731,-31.524364,-86.536514,-11.456244
0.6677044,2.4422624,-1.1689794,-34.85747,-84.07483,-12.906618
0.5906715,2.1618376,-1.2319165,-36.98103,-82.44855,-13.932829
0.5589553,1.8260232,-1.25509,-38.030495,-81.19894,-13.92764
0.5966496,1.4713793,-1.2041278,-37.940052,-79.461426,-13.390423
0.6568862,1.1167874,-1.1313938,-35.990326,-77.08924,-12.751275
0.71347976,0.8010456,-1.0550942,-33.785683,-74.508095,-11.4631405
0.7738694,0.5388625,-0.93693167,-31.546946,-71.27055,-9.7251835
0.8412956,0.3677531,-0.81154984,-30.872232,-67.75081,-8.146565
0.8116228,0.35478228,-0.78292614,-29.783356,-65.36121,-7.8592324
0.7832152,0.34236458,-0.75552297,-28.740911,-63.073505,-7.584152
0.75599855,0.33046743,-0.7292686,-27.742167,-60.88171,-7.3206034
0.72990453,0.31906104,-0.7040972,-26.784618,-58.78032,-7.067926
0.7048704,0.30811793,-0.6799482,-25.865965,-56.76428,-6.8255115
0.6808383,0.29761285,-0.6567658,-24.984081,-54.828938,-6.5927997
0.6577548,0.2875224,-0.6344985,-24.137007,-52.96999,-6.369274
0.63557047,0.27782506,-0.61309856,-23.322931,-51.183453,-6.1544557
0.61423963,0.26850078,-0.59252185,-22.540173,-49.465645,-5.9479012
0.5937196,0.2595309,-0.5727274,-21.787169,-47.81314,-5.7491984
0.5739709,0.2508982,-0.55367696,-21.06247,-46.222744,-5.557965
0.5549566,0.24258655,-0.53533494,-20.36472,-44.691494,-5.3738427
0.53664225,0.23458086,-0.5176681,-19.692656,-43.216614,-5.1964984
0.5189957,0.22686706,-0.50064546,-19.045095,-41.79551,-5.02562
0.5019867,0.21943198,-0.4842379,-18.420933,-40.42575,-4.860916
0.48558703,0.21226324,-0.4684181,-17.81913,-39.10506,-4.702112
0.4697701,0.20534924,-0.4531604,-17.23871,-37.8313,-4.5489516
0.4545109,0.19867902,-0.4384407,-16.678759,-36.60245,-4.401191
0.43978587,0.19224231,-0.4242363,-16.138407,-35.416622,-4.258603
0.42557278,0.18602939,-0.41052577,-15.616843,-34.272022,-4.120973
0.41185066,0.18003108,-0.3972888,-15.113296,-33.166958,-3.9880967
0.39859965,0.1742387,-0.38450631,-14.627036,-32.099834,-3.8597827
0.385801,0.16864406,-0.37216017,-14.157375,-31.069138,-3.7358484
0.37343684,0.16323934,-0.3602332,-13.70366,-30.073433,-3.616122
0.3614903,0.15801719,-0.34870905,-13.265269,-29.11136,-3.5004394
0.34994534,0.15297058,-0.33757228,-12.841614,-28.181627,-3.3886454
0.33878666,0.14809282,-0.32680815,-12.432135,-27.283003,-3.280592
0.32799977,0.14337759,-0.31640264,-12.036299,-26.414318,-3.1761389
0.31757084,0.1388188,-0.30634242,-11.653597,-25.57446,-3.0751514
0.30748662,0.13441072,-0.29661477,-11.283546,-24.762362,-2.9775026
0.29773456,0.13014783,-0.2872075,-10.925684,-23.977015,-2.8830698
0.28830263,0.12602487,-0.27810907,-10.57957,-23.217445,-2.791737
0.2791793,0.12203684,-0.26930833,-10.244781,-22.482733,-2.7033927
0.27035365,0.1181789,-0.26079473,-9.920913,-21.771988,-2.6179307
0.2618151,0.11444647,-0.25255808,-9.607582,-21.084366,-2.535249
0.2535536,0.11083514,-0.24458867,-9.304418,-20.419054,-2.4552498
0.24555947,0.10734069,-0.2368772,-9.011065,-19.775276,-2.3778398
0.23782347,0.103959076,-0.22941472,-8.727183,-19.152285,-2.3029294
0.23033671,0.10068641,-0.22219266,-8.452449,-18.549364,-2.2304325
0.22309065,0.09751896,-0.2152028,-8.186547,-17.965828,-2.1602662
0.21607709,0.09445314,-0.20843722,-7.9291773,-17.401014,-2.0923514
0.20928816,0.09148552,-0.20188834,-7.680051,-16.854294,-2.026612
0.20271632,0.08861279,-0.19554885,-7.4388895,-16.325052,-1.9629744
0.19635426,0.085831754,-0.18941173,-7.2054267,-15.812705,-1.9013681
0.19019496,0.08313937,-0.18347022,-6.979405,-15.316688,-1.8417256
0.1842317,0.08053266,-0.17771779,-6.760577,-14.836457,-1.7839812
0.17845798,0.07800881,-0.17214821,-6.548704,-14.3714905,-1.7280722
0.17286754,0.07556508,-0.16675544,-6.343557,-13.921284,-1.6739379
0.16745433,0.073198825,-0.16153364,-6.144914,-13.485352,-1.62152
0.16221258,0.07090751,-0.15647721,-5.9525623,-13.063225,-1.5707623
0.15713666,0.06868868,-0.15158075,-5.766296,-12.654452,-1.5216103
0.15222116,0.06653999,-0.14683905,-5.5859165,-12.2586,-1.4740118
0.14746088,0.064459145,-0.14224708,-5.411233,-11.875248,-1.4279163
0.14285079,0.06244394,-0.1378,-5.2420607,-11.503989,-1.383275
0.138386,0.060492266,-0.13349307,-5.078221,-11.144434,-1.340041
0.13406186,0.05860207,-0.12932181,-4.919542,-10.796205,-1.2981688
0.12987383,0.056771364,-0.12528186,-4.765857,-10.458936,-1.2576145
0.12581752,0.054998245,-0.121368974,-4.617007,-10.132276,-1.2183359
0.12188873,0.05328086,-0.11757909,-4.4728355,-9.815884,-1.180292
0.11808335,0.05161743,-0.11390826,-4.3331933,-9.509431,-1.1434432
0.11439746,0.050006226,-0.110352695,-4.1979356,-9.212601,-1.1077514
0.11082724,0.048445586,-0.1069087,-4.0669227,-8.925085,-1.0731796
0.10736899,0.046933893,-0.10357273,-3.940019,-8.646587,-1.0396923
0.10401917,0.045469593,-0.10034135,-3.8170934,-8.3768215,-1.0072547
0.10077432,0.04405118,-0.097211234,-3.6980202,-8.115509,-0.97583365
0.09763111,0.0426772,-0.09417916,-3.582677,-7.8623815,-0.9453969
0.09458633,0.041346245,-0.09124203,-3.4709454,-7.6171803,-0.9159131
0.091636844,0.040056944,-0.08839683,-3.362711,-7.379654,-0.8873522
0.08877966,0.03880799,-0.08564066,-3.2578633,-7.14956,-0.85968506
0.086011834,0.0375981,-0.0829707,-3.1562953,-6.9266634,-0.83288324
0.08333057,0.036426045,-0.08038424,-3.0579033,-6.7107368,-0.8069196
0.08073312,0.035290632,-0.07787863,-2.9625874,-6.5015607,-0.7817676
0.07821686,0.034190703,-0.07545133,-2.8702502,-6.2989216,-0.7574017
0.075779215,0.033125143,-0.073099874,-2.7807984,-6.102615,-0.73379713
0.073417716,0.03209287,-0.07082188,-2.6941407,-5.91244,-0.71092993
0.07112998,0.031092837,-0.06861503,-2.6101897,-5.7282047,-0.6887769
0.06891367,0.03012403,-0.06647708,-2.5288599,-5.549722,-0.6673156
0.06676655,0.029185468,-0.06440588,-2.4500692,-5.3768115,-0.6465243
0.064686455,0.028276201,-0.06239933,-2.373738,-5.209298,-0.62638205
0.062671274,0.027395312,-0.0604554,-2.2997887,-5.047013,-0.6068683
0.060718976,0.02654191,-0.05857213,-2.228147,-4.889791,-0.5879635
0.058827586,0.02571513,-0.05674761,-2.1587405,-4.7374744,-0.5696485
0.056995194,0.024914142,-0.05498001,-2.091499,-4.5899096,-0.5519048
0.055219956,0.024138138,-0.05326754,-2.0263548,-4.4469466,-0.5347145
0.053500082,0.023386333,-0.051608473,-1.963242,-4.3084426,-0.5180604
0.051833834,0.022657972,-0.05000114,-1.9020975,-4.1742573,-0.5019255
0.050219543,0.021952322,-0.048443925,-1.8428593,-4.0442557,-0.48629373
0.048655577,0.02126867,-0.046935253,-1.7854677,-3.918307,-0.47114927
0.047140364,0.020606328,-0.045473613,-1.7298654,-3.7962847,-0.45647693
0.04567238,0.019964632,-0.044057533,-1.6759962,-3.6780658,-0.4422619
0.044250146,0.019342937,-0.04268559,-1.6238059,-3.5635314,-0.42848995
0.04287224,0.018740617,-0.0413564,-1.5732422,-3.4525664,-0.4151472
0.04153727,0.018157065,-0.040068634,-1.5242541,-3.3450594,-0.4022202
0.0402439,0.017591698,-0.038820993,-1.4767925,-3.2409022,-0.38969603
0.03899083,0.017043946,-0.037612226,-1.4308097,-3.1399906,-0.3775621
0.0377768,0.016513262,-0.03644112,-1.3862597,-3.042223,-0.36580622
0.036600593,0.01599911,-0.035306502,-1.3430974,-2.9475012,-0.35441658
0.035461027,0.015500975,-0.03420723,-1.3012799,-2.8557303,-0.34338176
0.034356963,0.015018358,-0.033142198,-1.2607651,-2.766818,-0.33269072
0.033287287,0.014550773,-0.032110345,-1.2215122,-2.6806755,-0.32233265
0.03225093,0.014097754,-0.03111063,-1.1834819,-2.5972161,-0.31229725
0.031246852,0.013658845,-0.030142054,-1.1466364,-2.5163565,-0.30257443
0.030274048,0.013233606,-0.029203646,-1.1109382,-2.438015,-0.2931544
0.029331543,0.012821611,-0.028294463,-1.076352,-2.3621135,-0.28402779
0.028418388,0.012422446,-0.027413595,-1.0428429,-2.288576,-0.27518538
0.027533673,0.0120357135,-0.026560161,-1.0103772,-2.2173283,-0.26661837
0.026676508,0.011661024,-0.025733303,-0.97892267,-2.1482995,-0.25831813
0.025846036,0.011298002,-0.024932195,-0.94844764,-2.0814204,-0.2502764
0.025041426,0.010946284,-0.024156032,-0.9189216,-2.0166237,-0.24248505
0.024261868,0.01060552,-0.023404038,-0.89031494,-1.953845,-0.23493631
0.023506586,0.010275365,-0.02267546,-0.862599,-1.893021,-0.22762264
0.022774821,0.009955491,-0.021969568,-0.83574617,-1.8340908,-0.22053671
0.02206584,0.009645577,-0.021285657,-0.8097294,-1.7769955,-0.2136714
0.021378936,0.009345312,-0.020623038,-0.78452265,-1.721678,-0.20701985
0.020713419,0.009054395,-0.01998105,-0.7601008,-1.668083,-0.20057541
0.020068621,0.008772537,-0.019359052,-0.7364393,-1.6161565,-0.19433162
0.0194439,0.008499455,-0.01875642,-0.71351445,-1.5658467,-0.1882822
0.01883863,0.008234874,-0.01817255,-0.6913034,-1.5171033,-0.18242116
0.018252201,0.0079785315,-0.017606856,-0.66978383,-1.4698775,-0.17674257
0.017684031,0.007730169,-0.017058775,-0.64893425,-1.4241219,-0.17124079
0.01713355,0.0074895388,-0.016527759,-0.62873375,-1.3797908,-0.16591029
0.016600208,0.0072564003,-0.016013272,-0.6091622,-1.3368399,-0.16074574
0.01608347,0.0070305197,-0.015514804,-0.5901999,-1.2952261,-0.15574196
0.015582818,0.006811671,-0.015031854,-0.57182795,-1.2549078,-0.15089397
0.015097751,0.006599636,-0.014563939,-0.554028,-1.2158448,-0.1461969
0.014627786,0.006394201,-0.014110589,-0.5367821,-1.1779977,-0.14164607
0.014172452,0.006195162,-0.013671354,-0.52007306,-1.1413289,-0.1372369
0.0137312915,0.006002319,-0.013245792,-0.50388426,-1.1058017,-0.13296498
0.013303865,0.0058154794,-0.012833478,-0.48819938,-1.0713804,-0.12882607
0.012889744,0.005634456,-0.012434,-0.4730028,-1.0380306,-0.124815986
0.012488515,0.005459068,-0.012046957,-0.45827928,-1.0057191,-0.120930746
0.012099776,0.0052891397,-0.011671963,-0.44401407,-0.9744133,-0.117166445
0.011723138,0.005124501,-0.011308642,-0.43019298,-0.9440821,-0.11351933
0.011358226,0.0049649877,-0.010956631,-0.4168021,-0.9146951,-0.10998575
0.011004671,0.00481044,-0.010615578,-0.40382808,-0.8862229,-0.10656216
0.0106621245,0.004660703,-0.010285142,-0.3912579,-0.858637,-0.10324515
0.010330239,0.0045156274,-0.009964992,-0.37907907,-0.83190984,-0.10003139
