ax,ay,az,gx,gy,gz
-3.106392,-0.20909281,-10.461914,-18.810171,-14.26013,-9.543723
-3.6760597,-0.04562042,-11.200002,-32.03681,-55.79846,-6.6250186
-3.3121555,0.416061,-10.795398,-48.982403,-89.48383,-9.868952
-2.3338661,0.30025208,-9.686077,-55.668488,-105.35059,-10.575724
-1.6685705,-0.042324096,-9.119393,-52.656883,-113.346176,-7.742437
-1.4439063,-0.24118932,-8.893104,-49.982918,-123.39569,-7.3398933
-1.2657961,-0.14396504,-8.48232,-44.87001,-132.39697,-9.045072
-1.0881305,0.08273144,-8.105534,-43.051125,-141.65326,-10.56989
-0.8636025,0.14875527,-7.663418,-41.079395,-149.3122,-11.049059
-0.5279795,0.024396237,-7.1538186,-34.923622,-153.10287,-10.091368
-0.22250488,-0.120217405,-6.923073,-33.829445,-157.63206,-6.8728695
-0.06609339,-0.59921026,-6.74964,-31.908794,-161.23067,-2.915435
-0.045803804,-1.0698503,-6.6243687,-25.622322,-164.20752,0.98798245
-0.034107145,-1.2661775,-6.44822,-18.424824,-166.49683,3.850968
0.02514286,-1.3004521,-6.187198,-10.964956,-168.02908,5.9044485
0.11691834,-1.2816232,-5.8962426,-4.906946,-168.7641,7.9511847
0.19678204,-1.2759249,-5.5876656,0.4150216,-169.60222,9.8594475
0.2800867,-1.1479894,-5.192946,6.217759,-170.04002,11.742123
0.43365118,-0.8798242,-4.7195787,11.323088,-169.95871,13.222574
0.66010714,-0.5451163,-4.1775827,15.093957,-168.71385,14.112501
0.8873999,-0.23683308,-3.5617497,16.696762,-165.03662,15.0169935
1.052663,0.048837177,-2.949564,17.030716,-159.36395,16.359865
1.1194954,0.32354224,-2.5042837,17.05821,-153.7404,17.003662
1.1696733,0.6175148,-2.1261458,17.22338,-148.93639,16.832357
1.2716097,0.930645,-1.7354182,16.985687,-144.326,15.676194
1.4366146,1.2449902,-1.3167708,15.998965,-138.4822,13.299268
1.5930111,1.5461771,-0.9603463,14.41838,-131.61464,10.488121
1.6654817,1.825757,-0.75889057,12.873502,-124.86724,6.994501
1.6551687,2.0564609,-0.6827153,11.057476,-119.15088,3.1212697
1.6045165,2.2851038,-0.6809547,8.924159,-114.58329,-1.2659122
1.5380656,2.4824002,-0.7005044,4.6441283,-111.06633,-5.988417
1.4598992,2.5836997,-0.73917925,-0.5589541,-107.999985,-9.951762
1.3690963,2.671037,-0.8051661,-6.2890754,-105.333885,-13.51305
1.2506433,2.7091,-0.90504944,-11.635406,-103.076065,-17.333727
1.1219962,2.6873484,-1.0157666,-16.319998,-101.37702,-21.50549
1.0240016,2.5992622,-1.1020477,-20.228563,-99.93913,-25.460924
0.983456,2.4120696,-1.132039,-23.66493,-98.283,-28.396963
0.9733487,2.201217,-1.1326355,-27.014017,-96.4599,-29.840252
0.9716729,2.0043943,-1.1155394,-30.228975,-94.47646,-30.131437
0.9690521,1.8074002,-1.0833054,-33.692116,-92.372086,-29.813007
0.9855962,1.5720129,-1.0167121,-36.90294,-89.49395,-28.7579
1.0077431,1.2790895,-0.957571,-39.331806,-86.34939,-27.008186
1.0190247,0.9710663,-0.9104338,-41.108456,-83.33308,-24.56973
0.9830833,0.93681633,-0.8783224,-39.658543,-80.39388,-23.703146
0.9486745,0.9040269,-0.8475803,-38.27046,-77.580025,-22.873512
0.9157081,0.87261206,-0.818127,-36.940563,-74.884125,-22.078661
0.88410157,0.842493,-0.78988856,-35.665524,-72.29943,-21.316595
0.8537788,0.8135973,-0.7627971,-34.442272,-69.81971,-20.585482
0.8246697,0.7858582,-0.73679,-33.267986,-67.439255,-19.883633
0.7967097,0.7592141,-0.71180946,-32.14005,-65.152756,-19.209488
0.76983887,0.7336078,-0.6878021,-31.056053,-62.95533,-18.561604
0.7440017,0.70898664,-0.6647182,-30.013758,-60.842438,-17.938643
0.7191467,0.6853014,-0.64251184,-29.011082,-58.809864,-17.339363
0.69522595,0.66250646,-0.6211402,-28.046097,-56.85369,-16.76261
0.6721947,0.6405592,-0.6005633,-27.116995,-54.97026,-16.207304
0.65001136,0.6194198,-0.58074385,-26.222095,-53.156166,-15.672441
0.62863684,0.59905124,-0.56164706,-25.359827,-51.408215,-15.157079
0.6080346,0.57941866,-0.5432403,-24.528713,-49.723423,-14.660337
0.5881704,0.5604893,-0.5254929,-23.727371,-48.09898,-14.181392
0.56901205,0.5422326,-0.5083761,-22.954504,-46.53226,-13.719463
0.55052924,0.52461964,-0.4918629,-22.208889,-45.02079,-13.273825
0.53269345,0.50762326,-0.47592774,-21.489376,-43.562225,-12.843785
0.5154778,0.4912178,-0.4605466,-20.794878,-42.154373,-12.428697
0.49885678,0.47537902,-0.4456968,-20.12437,-40.79515,-12.027947
0.4828064,0.46008405,-0.43135685,-19.476883,-39.482597,-11.640957
0.46730393,0.44531116,-0.41750637,-18.851498,-38.214848,-11.267177
0.45232776,0.43103984,-0.4041261,-18.247345,-36.99014,-10.906086
0.43785745,0.4172505,-0.3911978,-17.663599,-35.806793,-10.557192
0.42387354,0.40392473,-0.37870407,-17.099474,-34.663227,-10.220025
0.41035753,0.39104483,-0.36662838,-16.554224,-33.557926,-9.89414
0.39729184,0.37859407,-0.35495502,-16.027142,-32.48945,-9.579113
0.3846597,0.36655644,-0.343669,-15.5175495,-31.456427,-9.274539
0.37244514,0.35491672,-0.33275604,-15.024802,-30.457552,-8.980034
0.3606329,0.34366038,-0.32220256,-14.548285,-29.49158,-8.695229
0.34920838,0.33277357,-0.3119955,-14.087409,-28.557316,-8.419772
0.33815774,0.32224298,-0.30212244,-13.641615,-27.653622,-8.15333
0.3274676,0.31205595,-0.29257149,-13.210363,-26.779411,-7.8955793
0.31712523,0.30220035,-0.28333125,-12.793142,-25.93364,-7.646214
0.30711842,0.29266447,-0.2743908,-12.389459,-25.11531,-7.4049397
0.2974355,0.28343725,-0.2657397,-11.998839,-24.323467,-7.1714745
0.28806522,0.27450797,-0.25736797,-11.620832,-23.557192,-6.945547
0.27899683,0.26586637,-0.24926592,-11.255005,-22.815601,-6.726899
0.27021998,0.2575026,-0.24142437,-10.900939,-22.097857,-6.5152802
0.26172477,0.24940719,-0.23383445,-10.558233,-21.403141,-6.310452
0.25350165,0.24157107,-0.2264876,-10.226504,-20.730677,-6.112184
0.24554145,0.2339855,-0.21937567,-9.905382,-20.079714,-5.9202557
0.23783535,0.22664209,-0.21249077,-9.594511,-19.44953,-5.7344537
0.23037487,0.21953271,-0.2058253,-9.293548,-18.839432,-5.554574
0.22315183,0.21264961,-0.19937198,-9.002164,-18.24875,-5.3804193
0.21615838,0.2059853,-0.19312376,-8.72004,-17.676846,-5.2117996
0.20938691,0.19953251,-0.18707389,-8.446873,-17.123093,-5.048533
0.20283014,0.19328433,-0.18121584,-8.182366,-16.586899,-4.8904424
0.19648103,0.18723403,-0.17554331,-7.926237,-16.067686,-4.737359
0.19033279,0.18137513,-0.17005025,-7.678211,-15.5648985,-4.5891185
0.18437886,0.17570142,-0.16473079,-7.438024,-15.078003,-4.4455633
0.17861293,0.17020686,-0.1595793,-7.205421,-14.606482,-4.306541
0.17302893,0.16488566,-0.15459035,-6.9801564,-14.149836,-4.1719046
0.16762094,0.15973218,-0.14975865,-6.761993,-13.707585,-4.0415125
0.16238329,0.15474103,-0.14507915,-6.550701,-13.279264,-3.9152274
0.1573105,0.149907,-0.14054693,-6.34606,-12.864427,-3.7929175
0.15239727,0.14522499,-0.13615729,-6.1478558,-12.462636,-3.6744545
0.1476385,0.14069018,-0.13190562,-5.9558816,-12.073476,-3.5597155
0.14302921,0.13629782,-0.12778752,-5.769939,-11.696542,-3.448581
0.13856466,0.13204338,-0.12379871,-5.589834,-11.331442,-3.340936
0.13424021,0.12792245,-0.11993509,-5.4153814,-10.977799,-3.2366688
0.13005139,0.12393077,-0.11619265,-5.2464004,-10.635249,-3.135672
0.1259939,0.12006423,-0.11256753,-5.082717,-10.303438,-3.0378418
0.12206355,0.11631886,-0.10905602,-4.924163,-9.982025,-2.943077
0.118256316,0.11269081,-0.1056545,-4.7705755,-9.67068,-2.851281
0.1145683,0.10917636,-0.102359496,-4.6217976,-9.369084,-2.7623591
0.11099572,0.105771914,-0.09916762,-4.477676,-9.076929,-2.6762204
0.10753493,0.102474004,-0.096075624,-4.338064,-8.793915,-2.5927773
0.10418239,0.09927924,-0.09308034,-4.20282,-8.5197525,-2.511944
0.100934684,0.09618439,-0.09017873,-4.071804,-8.254165,-2.4336386
0.09778851,0.09318628,-0.08736782,-3.9448845,-7.996879,-2.3577812
0.09474067,0.09028188,-0.084644765,-3.8219314,-7.747635,-2.2842946
0.09178806,0.08746823,-0.0820068,-3.7028203,-7.5061784,-2.213104
0.08892768,0.08474247,-0.07945123,-3.5874298,-7.2722645,-2.1441374
0.08615664,0.082101844,-0.07697548,-3.4756434,-7.045656,-2.0773249
0.083472125,0.079543665,-0.07457704,-3.3673472,-6.8261237,-2.0125985
0.08087142,0.077065356,-0.07225347,-3.2624323,-6.613445,-1.9498928
0.078351885,0.07466441,-0.07000243,-3.1607919,-6.407405,-1.8891443
0.075910985,0.07233838,-0.067821644,-3.0623236,-6.2077947,-1.8302916
0.07354625,0.07008494,-0.0657089,-2.9669278,-6.014413,-1.7732755
0.07125529,0.0679018,-0.063662075,-2.8745084,-5.8270645,-1.7180381
0.0690358,0.06578676,-0.0616791,-2.7849717,-5.6455603,-1.6645238
0.06688553,0.06373769,-0.059757967,-2.6982276,-5.469717,-1.6126786
0.06480232,0.06175252,-0.057896752,-2.614189,-5.299358,-1.5624503
0.06278407,0.059829254,-0.056093574,-2.5327709,-5.1343107,-1.5137881
0.060828745,0.057965953,-0.054346617,-2.453891,-4.9744096,-1.4666433
0.05893438,0.056160744,-0.05265412,-2.3774705,-4.8194933,-1.4209682
0.057099067,0.054411806,-0.051014386,-2.3034322,-4.669407,-1.376717
0.055320963,0.052717384,-0.049425762,-2.2317019,-4.5239983,-1.333845
0.053598274,0.051075775,-0.04788665,-2.162207,-4.3831215,-1.2923093
0.051929276,0.049485322,-0.046395507,-2.094878,-4.2466354,-1.252068
0.050312288,0.047944434,-0.04495083,-2.0296469,-4.1144023,-1.2130808
0.048745684,0.04645156,-0.04355117,-1.9664487,-3.9862897,-1.1753083
0.047227893,0.045005202,-0.042195123,-1.9052196,-3.862169,-1.1387129
0.04575739,0.04360391,-0.04088132,-1.845898,-3.7419152,-1.1032575
0.0443327,0.04224627,-0.039608452,-1.7884247,-3.6254082,-1.0689069
0.042952396,0.040930923,-0.038375236,-1.7327418,-3.5125306,-1.0356263
0.04161509,0.039656553,-0.03718044,-1.6787935,-3.4031692,-1.0033824
0.04031944,0.03842188,-0.036022857,-1.6265256,-3.2972143,-0.972143
0.039064147,0.037225667,-0.034901332,-1.5758859,-3.1945598,-0.9418766
0.03784795,0.03606671,-0.03381474,-1.5268234,-3.0951028,-0.9125529
0.036669634,0.03494385,-0.032761987,-1.479289,-2.9987433,-0.88414246
0.03552802,0.03385596,-0.031742025,-1.433235,-2.905385,-0.8566169
0.034421954,0.032801952,-0.030753829,-1.3886154,-2.814934,-0.8299486
0.033350337,0.03178077,-0.029796407,-1.3453853,-2.7273002,-0.8041108
0.03231209,0.030791385,-0.0288688,-1.3035015,-2.6423953,-0.77907765
0.031306177,0.029832812,-0.02797008,-1.2629219,-2.5601342,-0.754824
0.030331587,0.028904088,-0.027099345,-1.223606,-2.480435,-0.7313256
0.029387344,0.028004285,-0.026255723,-1.1855142,-2.4032173,-0.708559
0.028472504,0.0271325,-0.025438372,-1.1486087,-2.328404,-0.6865012
0.027586149,0.02628786,-0.02464647,-1.1128522,-2.2559204,-0.6651303
0.026727391,0.025469517,-0.023879226,-1.0782092,-2.1856935,-0.6444248
0.025895374,0.024676658,-0.02313587,-1.0446447,-2.1176534,-0.62436396
0.02508926,0.023908483,-0.02241566,-1.0121254,-2.0517316,-0.6049278
0.024308247,0.023164226,-0.021717872,-0.9806185,-1.9878625,-0.5860967
0.02355155,0.02244314,-0.021041812,-0.95009255,-1.9259818,-0.56785196
0.02281841,0.021744505,-0.020386798,-0.920517,-1.8660276,-0.55017525
0.022108097,0.021067621,-0.019752178,-0.8918623,-1.8079401,-0.53304887
0.021419898,0.020411812,-0.019137317,-0.8640997,-1.7516611,-0.51645565
0.020753125,0.019776419,-0.018541597,-0.83720136,-1.6971341,-0.5003791
0.02010711,0.019160805,-0.017964425,-0.8111405,-1.6443048,-0.484803
0.019481206,0.01856436,-0.01740522,-0.78589094,-1.5931201,-0.4697118
0.018874787,0.017986482,-0.016863422,-0.7614274,-1.5435289,-0.45509046
0.018287249,0.017426593,-0.016338494,-0.7377255,-1.4954815,-0.4409243
0.017718,0.016884135,-0.015829906,-0.7147615,-1.4489299,-0.42719913
0.017166473,0.016358566,-0.015337152,-0.69251233,-1.4038275,-0.41390124
0.016632115,0.015849356,-0.014859738,-0.67095584,-1.3601292,-0.4010173
0.016114391,0.015355999,-0.014397184,-0.65007037,-1.3177912,-0.3885345
0.015612786,0.014877999,-0.013949031,-0.62983507,-1.2767712,-0.37644026
0.015126795,0.01441488,-0.013514829,-0.61022973,-1.2370281,-0.3647225
0.014655932,0.0139661785,-0.013094143,-0.5912346,-1.1985223,-0.35336953
0.014199727,0.013531444,-0.012686553,-0.5728309,-1.1612152,-0.34236997
0.013757723,0.013110243,-0.012291651,-0.55500007,-1.1250693,-0.3317128
0.01332948,0.012702153,-0.0119090425,-0.53772426,-1.0900487,-0.3213874
0.012914566,0.012306767,-0.011538344,-0.52098626,-1.0561181,-0.31138343
0.012512569,0.011923688,-0.011179185,-0.50476927,-1.0232439,-0.30169085
