ax,ay,az,gx,gy,gz
-1.2572842,-0.99637264,-8.156438,-48.828625,-1.4981954,-30.795734
-1.1142087,-1.4883856,-8.779924,-61.9731,-1.8311528,-21.590042
-1.0850563,-2.2922978,-9.34452,-63.307095,-2.245402,-14.376319
-1.3455179,-3.605373,-10.047725,-46.22513,-7.4932446,-8.271963
-1.4878719,-4.5642157,-10.732437,-29.56581,-19.574947,-1.5096382
-1.3058542,-5.06247,-11.220395,-19.097446,-36.50656,5.7096334
-0.95833415,-5.5576663,-11.554462,-11.972438,-56.53297,13.780341
-0.430245,-6.123832,-11.679191,-5.520707,-77.80013,22.78663
0.34113222,-6.6791196,-11.489958,3.601895,-97.38617,33.193768
1.346683,-6.937553,-10.881998,11.914849,-112.56619,45.81657
2.2664068,-6.872955,-10.172267,20.282495,-124.13856,58.075687
3.0366673,-6.4993124,-9.424089,28.115843,-132.74185,69.488945
3.6478827,-5.766887,-8.611436,33.77384,-139.309,79.83506
4.1147704,-4.6995077,-7.730346,34.491627,-144.35188,87.19379
4.4094434,-3.4637227,-6.7671022,33.045654,-147.6137,90.89773
4.5767274,-2.3590426,-5.863026,32.202824,-148.90192,91.87661
4.6465573,-1.2522113,-5.0496883,31.870619,-148.92284,90.71894
4.6784935,-0.09085003,-4.3093657,30.707354,-148.13065,87.42235
4.6824727,1.0864688,-3.639656,28.133244,-146.25542,81.41587
4.656171,2.225487,-3.0976,24.136086,-144.00732,73.91508
4.6150007,3.2390618,-2.688699,18.89693,-141.67735,65.09255
4.563262,4.079904,-2.4168396,12.965659,-139.45943,55.06626
4.51477,4.749018,-2.2586508,7.212113,-137.28574,43.926003
4.4852448,5.2934904,-2.1931129,0.9793002,-135.67549,31.486122
4.539345,5.694991,-2.1814985,-6.41574,-134.41772,18.926386
4.6542425,5.9162354,-2.1998434,-14.941811,-133.1972,6.4618535
4.8053427,5.9185214,-2.247084,-23.6955,-131.99538,-5.9625664
4.9966917,5.6918006,-2.29139,-32.219162,-130.898,-18.212702
5.2072444,5.2175465,-2.2977898,-40.851185,-130.05524,-28.99867
5.438851,4.3728905,-2.1909375,-48.96975,-128.92744,-37.292908
5.680306,3.2997932,-1.9926041,-55.161953,-126.826,-42.790787
5.9402156,2.112372,-1.7031987,-57.698147,-123.48843,-46.466118
6.242323,0.99273884,-1.3043047,-57.106236,-118.76129,-48.44882
6.5782313,0.056109466,-0.796214,-54.92575,-111.55389,-47.530586
6.844399,-0.6323647,-0.29270774,-52.408695,-102.82238,-44.741344
7.056999,-1.1474552,0.13519393,-50.022163,-93.2506,-40.836445
7.278222,-1.54132,0.49873507,-48.014774,-82.77508,-36.071568
7.5252023,-1.8510431,0.78071296,-46.083538,-71.22608,-30.697598
7.767351,-2.060605,0.9095806,-44.306164,-58.270756,-24.576368
7.9608445,-2.181396,0.9151539,-42.478527,-44.737785,-18.171865
8.089453,-2.2054946,0.8045763,-40.328434,-30.891085,-11.925309
8.149448,-2.1383982,0.59341866,-38.218414,-17.115166,-6.048114
8.137199,-2.0038252,0.30209693,-36.308083,-3.8096712,-0.45261496
8.05526,-1.8038833,-0.0511751,-34.773464,8.621134,4.764362
7.876991,-1.5427805,-0.47965038,-33.60977,20.26125,9.526016
7.5932927,-1.2844573,-0.9861076,-32.596684,30.683744,13.6765785
7.1809206,-1.0759652,-1.5699413,-30.704735,38.83932,17.186142
6.7165303,-0.88118887,-2.1637075,-28.339085,44.197628,20.186821
6.300561,-0.67804813,-2.711512,-26.018175,47.091946,22.47848
5.9875016,-0.49848813,-3.2576625,-24.107582,48.469013,24.08164
5.6912913,-0.3651477,-3.8421004,-22.226118,48.262905,25.122139
5.396542,-0.23982306,-4.4650707,-20.19989,46.069546,25.647343
5.120347,-0.11064345,-5.08721,-18.593243,41.608604,26.01394
4.8866982,0.019102456,-5.6703644,-17.520014,34.840523,26.198252
4.719745,0.13895491,-6.1956906,-16.4321,27.108942,26.036016
4.571874,0.2528112,-6.689996,-15.136497,18.320477,25.456776
4.458661,0.38550156,-7.129942,-13.811874,8.481642,24.533354
4.3966002,0.5389277,-7.4953284,-13.03916,-2.189878,23.291252
4.371948,0.6681053,-7.806527,-12.790638,-14.044375,21.445612
4.392731,0.67862284,-8.041523,-12.487331,-26.907103,19.26595
4.5111704,0.6076288,-8.111376,-11.627709,-40.5851,17.07986
4.786544,0.5285585,-7.9519997,-10.970211,-53.724953,15.680195
5.267453,0.46894568,-7.4924026,-10.197509,-64.62872,14.806531
5.855019,0.42125872,-6.791795,-9.244846,-71.05452,14.380281
6.324055,0.46021345,-6.0188785,-7.3253336,-74.746086,13.656416
6.648933,0.6102845,-5.26464,-6.5080824,-76.802605,12.882798
6.8227634,0.7402621,-4.577125,-6.7318068,-77.47287,12.123715
6.8589206,0.78961545,-4.0071096,-7.348243,-77.118835,11.478118
6.799265,0.7666969,-3.5517783,-7.349417,-75.8235,10.6495695
6.73612,0.6361935,-3.0921676,-3.1233714,-73.86697,9.251247
6.813551,0.6261579,-2.575339,1.5740258,-69.15777,7.1629963
6.7346163,0.64764667,-2.2238598,3.0376723,-64.51559,6.3220024
6.485517,0.74438125,-2.045215,1.5728925,-60.759457,6.328639
6.212907,0.8136673,-1.9422599,-1.9052051,-58.704697,7.0977488
6.0120015,0.7727169,-1.8472147,-4.714208,-56.303596,7.804864
5.825233,0.7193409,-1.7907218,-6.888553,-53.413227,8.401913
5.6226187,0.6678643,-1.7808673,-7.9982743,-50.27757,8.740236
5.4199634,0.61518836,-1.8047166,-8.25456,-47.465603,8.928747
5.248938,0.59577626,-1.7477692,-7.9940906,-45.96784,8.647003
5.083448,0.57699245,-1.692665,-7.74205,-44.518547,8.374377
4.9233007,0.5588151,-1.63934,-7.498148,-43.116055,8.110555
4.768314,0.5412234,-1.587733,-7.2621036,-41.758747,7.8552313
4.6183095,0.5241973,-1.5377852,-7.033648,-40.445076,7.608117
4.4731183,0.50771755,-1.4894401,-6.8125234,-39.173557,7.368932
4.3325777,0.49176556,-1.4426434,-6.5984807,-37.942764,7.137408
4.1965303,0.47632366,-1.397343,-6.391282,-36.751328,6.913286
4.064826,0.46137467,-1.3534887,-6.1906977,-35.59792,6.696319
3.9373195,0.44690213,-1.311032,-5.996506,-34.481274,6.486267
3.8138711,0.43289024,-1.2699268,-5.808495,-33.40017,6.2829003
3.6943464,0.41932368,-1.2301279,-5.62646,-32.353424,6.0859976
3.578616,0.40618777,-1.1915925,-5.4502034,-31.339909,5.895345
3.4665546,0.39346838,-1.1542788,-5.279535,-30.358528,5.7107377
3.3580425,0.3811518,-1.1181469,-5.1142716,-29.408226,5.5319767
3.2529633,0.36922488,-1.083158,-4.954237,-28.48799,5.3588715
3.1512053,0.3576749,-1.049275,-4.79926,-27.596838,5.191237
3.0526605,0.34648964,-1.016462,-4.649177,-26.733826,5.028896
2.9572244,0.33565727,-0.9846841,-4.503829,-25.89804,4.8716764
2.8647969,0.32516634,-0.95390797,-4.363063,-25.088602,4.7194133
2.7752807,0.3150059,-0.92410123,-4.2267303,-24.30466,4.5719457
2.6885822,0.30516523,-0.89523274,-4.094689,-23.545393,4.42912
2.6046104,0.29563412,-0.86727226,-3.966801,-22.810007,4.2907867
2.5232785,0.2864026,-0.84019065,-3.842933,-22.097738,4.156802
2.4445016,0.2774611,-0.81395984,-3.7229564,-21.407846,4.0270267
2.3681982,0.26880035,-0.78855264,-3.606747,-20.739614,3.9013257
2.2942894,0.26041135,-0.7639428,-3.494184,-20.092354,3.7795694
2.2226985,0.2522855,-0.7401048,-3.3851519,-19.465393,3.661632
2.153352,0.24441442,-0.71701413,-3.279538,-18.85809,3.5473921
2.086179,0.23678997,-0.6946471,-3.1772337,-18.269817,3.4367323
2.0211098,0.22940436,-0.6729806,-3.078134,-17.69997,3.3295388
1.9580783,0.22225001,-0.6519926,-2.9821374,-17.147968,3.2257016
1.8970195,0.2153196,-0.6316616,-2.8891456,-16.613243,3.1251147
1.8378714,0.20860605,-0.61196667,-2.7990634,-16.095251,3.0276752
1.7805734,0.20210248,-0.5928878,-2.711799,-15.593461,2.9332836
1.7250671,0.1958023,-0.5744056,-2.6272635,-15.107363,2.8418436
1.6712961,0.18969905,-0.55650115,-2.5453706,-14.63646,2.7532623
1.6192057,0.18378657,-0.53915626,-2.4660373,-14.180275,2.6674492
1.5687429,0.17805883,-0.52235335,-2.3891828,-13.738344,2.5843177
1.5198563,0.17251001,-0.5060754,-2.314729,-13.310219,2.503783
1.4724966,0.1671345,-0.49030575,-2.2426007,-12.895464,2.4257636
1.4266158,0.16192682,-0.4750285,-2.1727245,-12.49366,2.3501804
1.3821673,0.15688173,-0.46022826,-2.1050298,-12.1044,2.2769568
1.3391062,0.15199412,-0.44588995,-2.039448,-11.72729,2.2060187
1.297389,0.14725904,-0.43199912,-1.975913,-11.361949,2.1372945
1.2569735,0.14267172,-0.41854173,-1.9143605,-11.008008,2.0707147
1.2178189,0.13822751,-0.4055042,-1.8547283,-10.66511,2.0062122
1.1798856,0.13392192,-0.39287335,-1.7969563,-10.332908,1.9437217
1.1431355,0.12975064,-0.38063645,-1.7409862,-10.011067,1.8831803
1.1075315,0.12570943,-0.36878118,-1.6867616,-9.699264,1.8245269
1.0730377,0.121794246,-0.3572956,-1.634228,-9.397182,1.7677025
1.0396194,0.11800113,-0.34616813,-1.5833322,-9.10452,1.7126498
1.007243,0.114326276,-0.33538756,-1.534023,-8.820982,1.6593134
0.97587585,0.11076597,-0.32494304,-1.4862511,-8.546282,1.6076398
0.9454864,0.107316636,-0.31482407,-1.4399682,-8.280145,1.5575767
0.9160441,0.10397481,-0.3050205,-1.3951278,-8.022303,1.509074
0.88751936,0.10073714,-0.29552245,-1.3516848,-7.7724953,1.4620829
0.85988355,0.097600356,-0.2863204,-1.3095957,-7.530473,1.4165561
0.83310884,0.094561316,-0.27740505,-1.268818,-7.2959924,1.372448
0.80716836,0.091616966,-0.26876754,-1.229311,-7.0688176,1.3297142
0.7820362,0.088764355,-0.2603991,-1.1910348,-6.848721,1.2883118
0.7576869,0.086000614,-0.25229138,-1.153951,-6.6354814,1.2481993
0.7340962,0.08332297,-0.24443626,-1.1180227,-6.4288845,1.2093364
0.7112404,0.08072874,-0.23682582,-1.0832134,-6.2287235,1.1716841
0.6890965,0.078215316,-0.22945246,-1.0494884,-6.034797,1.1352048
0.6676424,0.07578019,-0.22230875,-1.016814,-5.846912,1.0998616
0.6468565,0.073420905,-0.21538755,-0.98515725,-5.6648784,1.0656193
0.626718,0.071135096,-0.20868193,-0.9544865,-5.4885144,1.0324435
0.6072067,0.068920486,-0.20218512,-0.92477095,-5.317643,1.000301
0.5883031,0.066774845,-0.19589068,-0.89598083,-5.1520934,0.96915954
0.56998813,0.06469602,-0.18979225,-0.86808735,-4.9916997,0.93898785
0.55224353,0.062681936,-0.18388373,-0.8410625,-4.8363004,0.9097557
0.5350515,0.060730573,-0.1781592,-0.8148792,-4.6857405,0.88143396
0.5183949,0.058839973,-0.17261294,-0.78951126,-4.5398693,0.8539941
0.5022569,0.057008244,-0.16723938,-0.7649332,-4.39854,0.8274087
0.4866214,0.055233553,-0.16203316,-0.7411205,-4.2616115,0.80165106
0.4714728,0.053514123,-0.15698902,-0.7180493,-4.128947,0.7766955
0.45679584,0.05184823,-0.15210196,-0.6956964,-4.0004125,0.752517
0.4425759,0.050234202,-0.14736706,-0.67403954,-3.8758807,0.7290913
0.42879868,0.048670433,-0.14277957,-0.6530569,-3.755226,0.706395
0.41545042,0.04715535,-0.13833493,-0.6327277,-3.6383278,0.68440527
0.40251777,0.045687437,-0.13402867,-0.6130313,-3.5250695,0.66310024
0.38998774,0.04426523,-0.12985647,-0.5939482,-3.415337,0.64245856
0.37784782,0.0428873,-0.12581417,-0.5754592,-3.3090212,0.6224595
0.36608586,0.041552268,-0.12189773,-0.55754584,-3.2060153,0.603083
0.35469007,0.0402588,-0.11810321,-0.54019016,-3.1062162,0.5843099
0.3436491,0.0390056,-0.11442683,-0.5233748,-3.009524,0.5661211
0.3329518,0.037791416,-0.11086489,-0.50708294,-2.9158423,0.54849863
0.32258758,0.036615033,-0.10741385,-0.4912983,-2.825077,0.53142476
0.31254598,0.03547527,-0.104070246,-0.47600505,-2.7371373,0.51488245
0.30281702,0.03437099,-0.100830734,-0.46118787,-2.651935,0.4988551
0.2933909,0.033301085,-0.097692065,-0.44683197,-2.5693855,0.4833267
0.28425822,0.03226449,-0.09465111,-0.432923,-2.4894056,0.46828172
0.27540988,0.031260163,-0.091704816,-0.419447,-2.4119158,0.45370507
0.26683694,0.030287102,-0.088850245,-0.40639052,-2.336838,0.43958223
0.2585309,0.029344333,-0.08608453,-0.3937405,-2.2640975,0.425899
0.25048342,0.02843091,-0.08340492,-0.38148424,-2.1936212,0.41264173
0.24268647,0.027545923,-0.08080872,-0.36960953,-2.125339,0.39979717
0.23513223,0.026688484,-0.07829334,-0.3581045,-2.0591822,0.38735247
0.22781314,0.025857737,-0.07585626,-0.34695756,-1.995085,0.37529513
0.22072189,0.025052851,-0.073495045,-0.33615765,-1.932983,0.36361313
0.21385138,0.024273021,-0.07120733,-0.32569394,-1.8728142,0.35229477
