ax,ay,az,gx,gy,gz
2.392749,0.017272884,2.58366,36.288513,118.07652,10.542823
2.5067441,0.18438277,2.6591039,40.25676,125.272354,10.288951
2.709452,0.429542,2.692033,37.839233,132.26555,8.561645
2.910573,0.81865346,2.6198068,34.193993,138.19687,7.3920407
3.0037866,1.1282979,2.4598281,30.602398,141.89128,6.005748
3.099806,1.392205,2.3046272,26.164225,145.35841,3.6381254
3.1716256,1.5875694,2.1368332,22.638971,148.61168,0.8365142
3.256497,1.8240006,1.9663258,16.879465,151.97227,-1.7229832
3.3643694,2.084265,1.7672964,10.439245,155.50677,-4.3288903
3.4471524,2.3452303,1.5034214,3.158124,159.51826,-7.363625
3.461223,2.538009,1.1391422,-4.417893,163.358,-10.821375
3.4343238,2.659915,0.70129955,-11.6829405,167.01547,-14.642666
3.355815,2.7032917,0.17899136,-18.628963,169.92491,-18.645561
3.2292557,2.6720395,-0.4789478,-25.001688,172.27988,-22.253979
3.0794349,2.5687513,-1.2580106,-31.307352,173.76144,-25.612629
2.8967724,2.377036,-2.1355205,-36.742313,173.5658,-28.427418
2.702227,2.0850036,-3.0597095,-41.760155,171.39374,-30.58993
2.5025687,1.6420966,-4.011421,-45.665684,165.94675,-31.429764
2.2607973,0.95637184,-5.0241194,-47.476532,158.30762,-31.061245
1.9865074,0.16652891,-6.0395904,-46.89136,148.19258,-29.27395
1.7308633,-0.64849645,-7.001198,-43.994495,135.31316,-25.959372
1.5829194,-1.3782103,-7.8405285,-39.814163,119.755035,-21.039394
1.6060325,-2.0094802,-8.524079,-34.401302,101.59048,-13.98487
1.8402748,-2.5573418,-9.054609,-27.80717,82.6691,-5.714401
2.1972456,-2.995998,-9.487614,-20.520407,63.291176,3.5650682
2.6488137,-3.349739,-9.803899,-12.435663,43.965324,13.935285
3.1821685,-3.567547,-10.00603,-3.1693199,25.048285,25.320383
3.7868786,-3.5790074,-10.100985,6.0476737,5.823291,37.629177
4.4837008,-3.196126,-9.931399,13.895868,-12.292798,48.677643
5.2377763,-2.6240003,-9.490644,19.95277,-28.095161,57.944523
5.957825,-2.0248508,-8.83125,25.67839,-40.121468,65.08961
6.561577,-1.3556433,-8.0895195,32.235462,-48.164543,69.46687
7.03836,-0.5828585,-7.3389106,36.868835,-53.017826,71.686905
7.387586,0.33572844,-6.5994534,38.81439,-55.933594,73.188805
7.6546717,1.3462689,-5.9330244,37.64835,-57.198353,73.34256
7.826692,2.347659,-5.377426,33.715904,-57.174664,71.88434
7.918536,3.284683,-4.9378386,28.013016,-56.02329,68.51451
7.951478,4.0982723,-4.620598,21.3823,-53.772243,62.70591
7.931912,4.760433,-4.4477444,14.243012,-51.394974,55.46727
7.901346,5.291498,-4.3561563,7.2678404,-49.09832,46.98247
7.8964458,5.7158103,-4.3221536,0.5542322,-47.051094,37.39462
7.9260955,6.0317335,-4.3322277,-6.235268,-45.2867,27.006664
7.994616,6.2183256,-4.375034,-13.460216,-43.78267,15.9213705
8.111304,6.2501283,-4.4387665,-20.946285,-42.44939,4.4928207
8.234217,6.0987096,-4.5103517,-28.46136,-41.30971,-7.1939845
8.303431,5.771063,-4.581264,-36.13861,-40.491394,-18.651724
8.276149,5.2347517,-4.6366873,-43.21267,-39.909096,-29.37774
8.154626,4.4879932,-4.667875,-48.450302,-40.04752,-38.54186
7.9529366,3.5109167,-4.622772,-51.91967,-41.179264,-46.2758
7.7996225,2.401089,-4.4454255,-53.751778,-43.20997,-51.573013
7.805436,1.1950656,-4.0726233,-53.659813,-45.12042,-54.16067
8.005349,-0.0459841,-3.510342,-50.44752,-44.833115,-54.27258
8.307338,-1.1655256,-2.883111,-43.717697,-41.208668,-51.21978
8.69171,-1.8783609,-2.2344182,-37.750412,-35.86283,-46.180454
9.106346,-2.3199074,-1.6244249,-33.157547,-28.558388,-40.14369
9.482187,-2.621411,-1.1670116,-28.973448,-19.194363,-33.972603
9.792238,-2.8351393,-0.9059835,-24.500349,-8.190805,-27.888052
10.040583,-2.8996644,-0.8199881,-20.206898,4.357457,-21.563282
10.200317,-2.7519438,-0.9439039,-16.737202,17.2538,-15.682433
10.277537,-2.5344896,-1.2018186,-14.2814665,29.912575,-10.422073
10.274921,-2.2891026,-1.5474684,-12.574507,42.297466,-5.77743
10.167753,-2.0175755,-1.9664506,-11.623331,54.017456,-1.6374637
9.948805,-1.7095644,-2.4418366,-11.50216,64.24505,2.0745218
9.581715,-1.3722429,-2.9799602,-12.154642,72.26156,5.1603737
9.179964,-1.0791274,-3.5096145,-12.26041,77.90555,7.456898
8.798252,-0.84212613,-4.0061297,-11.378746,81.65774,8.875449
8.446036,-0.6527504,-4.4735136,-10.583738,83.752914,9.973944
8.106037,-0.4919407,-4.929398,-10.19829,83.78961,10.869368
7.748595,-0.37125215,-5.393815,-10.051913,81.97911,11.645014
7.4212575,-0.27443552,-5.8306394,-9.606838,78.58462,12.233167
7.1243434,-0.1719931,-6.2460327,-9.120236,74.06141,12.564645
6.8505087,-0.06884836,-6.645989,-8.622596,68.19787,12.405774
6.599698,0.016152862,-7.0363755,-7.8720026,60.76447,12.128122
6.3762727,0.095151074,-7.4220862,-7.2022686,52.323494,11.776395
6.1661053,0.14732161,-7.8124323,-6.53133,42.84094,11.289254
5.982498,0.16234276,-8.200448,-5.698869,32.30506,10.881786
5.835135,0.17703192,-8.586395,-4.9070654,20.692791,10.580237
5.7194424,0.19076946,-8.96342,-4.6499157,7.335926,10.340548
5.6549306,0.20876293,-9.293311,-4.5628905,-7.087867,9.790847
5.660261,0.17487743,-9.558833,-3.78014,-22.391884,8.727811
5.7537556,0.02026175,-9.719129,-1.4882501,-37.561302,7.1607027
5.984766,-0.16459914,-9.697718,2.6934822,-51.857716,6.4126444
6.499341,-0.14617702,-9.370212,5.5119033,-63.89346,7.3648753
7.301883,0.09175232,-8.595601,5.672492,-72.801,7.989146
8.038442,0.20056395,-7.6422048,4.995681,-77.701065,8.035358
8.604493,0.28338203,-6.653947,5.1991377,-78.88925,7.9996133
9.035476,0.44418213,-5.692277,5.0857744,-77.330925,7.949693
9.480042,0.6821047,-4.686947,7.307972,-70.79463,6.159108
9.558174,0.90543175,-4.0336375,5.2551084,-63.586052,4.8197184
9.25637,1.018021,-3.719032,-0.31517246,-57.719868,5.359205
8.791913,1.0276375,-3.5908434,-6.886441,-54.078083,6.5985646
8.3624115,0.9239678,-3.488138,-11.878994,-51.50168,7.2462797
7.9975977,0.80620843,-3.3889983,-14.443679,-48.86548,7.5735083
7.6531506,0.7630192,-3.3214395,-15.6666975,-46.56289,7.653568
7.3284106,0.77102673,-3.2615526,-15.495471,-44.592743,7.536338
7.026809,0.8175588,-3.2126882,-14.526083,-42.95584,6.9494743
6.7526684,0.8710014,-3.176589,-13.465163,-41.63388,5.718971
6.518142,0.88534737,-3.1374395,-12.758174,-40.3269,4.2125206
6.3144703,0.85768294,-3.0394042,-12.35952,-39.06681,4.080892
6.117209,0.8308893,-2.9444544,-11.973413,-37.84638,3.9534066
5.926152,0.80493844,-2.8524911,-11.599452,-36.664333,3.8299313
5.7411013,0.7798033,-2.763419,-11.237246,-35.519447,3.7103372
5.561864,0.7554578,-2.6771448,-10.886418,-34.41053,3.5945003
5.388254,0.7318767,-2.5935795,-10.546606,-33.33643,3.4823003
5.2200923,0.7090356,-2.5126367,-10.217458,-32.296036,3.3736215
5.057205,0.6869109,-2.4342327,-9.898633,-31.28827,3.2683513
4.8994246,0.66547984,-2.3582866,-9.589804,-30.312103,3.1663814
4.746588,0.6447204,-2.2847204,-9.290653,-29.366526,3.0676072
4.5985394,0.6246112,-2.2134588,-9.000873,-28.450567,2.9719267
4.455127,0.6051317,-2.1444285,-8.720165,-27.56329,2.8792424
4.3162026,0.58626187,-2.0775588,-8.448245,-26.703785,2.789459
4.1816254,0.56798255,-2.0127816,-8.184833,-25.871174,2.702485
4.051258,0.55027497,-1.9500306,-7.92966,-25.064608,2.6182315
3.924967,0.5331211,-1.8892418,-7.682467,-24.283262,2.536613
3.8026245,0.5165035,-1.8303534,-7.4430013,-23.526344,2.4575458
3.6841054,0.5004053,-1.7733054,-7.21102,-22.793081,2.3809495
3.5692894,0.48481005,-1.71804,-6.986287,-22.082731,2.306747
3.4580603,0.469702,-1.6645011,-6.7685747,-21.39457,2.234862
3.3503048,0.4550658,-1.6126342,-6.5576615,-20.727901,2.1652224
3.2459142,0.44088662,-1.5623869,-6.3533344,-20.08205,2.097757
3.1447828,0.42715007,-1.5137081,-6.155386,-19.456362,2.0323982
3.0468078,0.41384232,-1.4665489,-5.9636164,-18.850204,1.9690794
2.9518905,0.40094987,-1.4208615,-5.777832,-18.262962,1.9077365
2.8599348,0.3884597,-1.3765997,-5.597844,-17.694046,1.8483078
2.770848,0.37635922,-1.3337187,-5.423472,-17.142878,1.7907332
2.6845403,0.3646362,-1.2921753,-5.2545385,-16.608902,1.7349546
2.6009245,0.35327882,-1.2519277,-5.0908747,-16.091583,1.6809156
2.5199163,0.34227562,-1.2129353,-4.932315,-15.590396,1.628562
2.4414341,0.33161554,-1.1751587,-4.7786994,-15.104836,1.5778408
2.3653991,0.32128784,-1.13856,-4.6298733,-14.634418,1.5287012
2.2917345,0.3112821,-1.1031023,-4.485687,-14.178664,1.4810934
2.2203662,0.30158827,-1.0687499,-4.3459954,-13.737117,1.4349698
2.1512225,0.2921966,-1.0354683,-4.210658,-13.309334,1.3902838
2.0842335,0.28309762,-1.003224,-4.079539,-12.894883,1.3469906
2.0193326,0.27428225,-0.97198457,-3.9525058,-12.493349,1.3050466
1.956454,0.26574156,-0.94171864,-3.8294315,-12.104327,1.2644097
1.8955348,0.25746703,-0.9123958,-3.7101922,-11.7274275,1.225039
1.8365136,0.2494503,-0.8839866,-3.5946684,-11.362271,1.1868951
1.7793314,0.24168333,-0.85646254,-3.4827437,-11.008492,1.1499395
1.7239307,0.23415835,-0.82979596,-3.374306,-10.665735,1.1141354
1.6702558,0.2268678,-0.80396014,-3.2692463,-10.333656,1.0794466
1.618253,0.21980435,-0.7789291,-3.1674597,-10.011922,1.0458385
1.56787,0.21296093,-0.75467783,-3.0688434,-9.700209,1.0132772
1.5190564,0.20633066,-0.7311819,-2.973299,-9.398206,0.98173004
1.4717633,0.19990692,-0.70841783,-2.8807304,-9.105609,0.9511656
1.425943,0.19368324,-0.68636274,-2.7910452,-8.8221245,0.9215531
1.3815498,0.1876534,-0.66499454,-2.7041528,-8.54747,0.89286286
1.3385392,0.18181135,-0.6442919,-2.6199667,-8.281369,0.8650661
1.2968681,0.17615123,-0.6242339,-2.5384026,-8.023555,0.838135
1.2564946,0.17066738,-0.6048005,-2.4593782,-7.77377,0.81204265
1.2173785,0.1653543,-0.58597237,-2.382815,-7.5317626,0.7867628
1.1794803,0.16020666,-0.5677305,-2.3086355,-7.297292,0.7622701
1.1427623,0.15521932,-0.5500567,-2.236766,-7.0701222,0.7385401
1.1071876,0.15038727,-0.5329332,-2.1671348,-6.8500266,0.71554905
1.0727206,0.14570569,-0.5163429,-2.0996714,-6.6367836,0.69327384
1.0393269,0.14116988,-0.5002691,-2.0343087,-6.4301805,0.67169225
1.0069729,0.13677529,-0.48469582,-1.970981,-6.2300105,0.6507826
0.9756262,0.13251752,-0.46960744,-1.9096252,-6.0360727,0.630524
0.9452555,0.12839232,-0.45498884,-1.8501796,-5.848173,0.61089617
0.9158304,0.12439557,-0.44082537,-1.7925849,-5.666124,0.5918794
0.8873214,0.120523244,-0.42710286,-1.7367833,-5.4897428,0.57345474
0.8597,0.11677148,-0.4138076,-1.682719,-5.3188524,0.5556037
0.83293855,0.11313652,-0.40092626,-1.630338,-5.153283,0.5383084
0.8070103,0.10961473,-0.38844594,-1.5795877,-4.992868,0.52155155
0.7818892,0.10620258,-0.37635416,-1.5304173,-4.837447,0.5053164
0.7575502,0.10289665,-0.36463884,-1.4827778,-4.686865,0.48958665
0.7339689,0.099693656,-0.35328823,-1.4366214,-4.5409703,0.47434664
0.71112174,0.09659036,-0.342291,-1.3919019,-4.3996177,0.45958105
0.6889858,0.09358368,-0.3316361,-1.3485745,-4.2626657,0.44527513
0.667539,0.0906706,-0.3213129,-1.3065959,-4.129977,0.43141457
0.64675987,0.08784821,-0.31131107,-1.2659242,-4.0014195,0.4179855
0.62662756,0.085113674,-0.3016206,-1.2265186,-3.8768635,0.4049745
0.607122,0.08246427,-0.29223183,-1.1883398,-3.756185,0.39236853
0.58822364,0.079897344,-0.2831353,-1.1513494,-3.6392634,0.38015497
0.56991357,0.07741032,-0.27432194,-1.1155106,-3.5259814,0.3683216
0.5521735,0.07500072,-0.26578292,-1.0807873,-3.416226,0.3568566
0.53498566,0.07266613,-0.25750977,-1.047145,-3.3098872,0.3457485
0.5183329,0.07040421,-0.2494941,-1.01455,-3.2068584,0.3349862
0.5021985,0.0682127,-0.24172798,-0.9829696,-3.107037,0.32455894
0.48656633,0.066089414,-0.2342036,-0.95237225,-3.0103228,0.31445625
