ax,ay,az,gx,gy,gz
1.4227402,-2.2536569,-11.171011,-87.2808,62.81148,-38.507626
1.430964,-2.9127743,-12.109169,-77.50903,59.58033,-35.834824
1.0735542,-3.3323166,-12.804245,-56.011055,47.58463,-33.64317
0.5811103,-3.7956598,-13.45929,-43.016407,32.54374,-30.113735
0.12274241,-4.6291556,-14.023138,-34.637257,13.742719,-24.954779
-0.19925831,-5.673371,-14.407549,-27.69309,-7.712835,-17.118042
-0.25003237,-6.617459,-14.594728,-21.7021,-31.95337,-6.991394
0.110883534,-7.382454,-14.472615,-15.669131,-56.639214,5.791116
0.77622926,-7.9350853,-14.097945,-8.4454565,-78.73469,19.824474
1.5102851,-8.1698885,-13.570872,-0.21712087,-99.22201,35.506683
2.3384497,-8.022897,-12.871413,7.727892,-116.40565,51.1015
3.1812475,-7.7510066,-12.174313,15.485994,-130.53918,66.29164
3.9293406,-7.5166793,-11.573921,29.221947,-141.77956,79.43848
4.596714,-6.9014053,-11.003522,46.937378,-151.02205,89.585464
5.2230215,-5.624271,-10.293283,63.15691,-158.49394,95.696304
5.7788815,-3.9105754,-9.320423,75.35021,-163.39467,98.79998
6.2143593,-1.9295267,-8.1749735,82.77583,-164.47717,101.06342
6.434487,0.30542168,-7.121123,80.64606,-164.02989,98.8277
6.4431705,2.4369583,-6.256155,73.53713,-163.35823,92.297005
6.3621597,4.2064457,-5.590002,63.288902,-162.37265,81.93174
6.212392,5.553555,-5.1191235,51.000065,-161.48282,68.48697
6.0347886,6.4826446,-4.770542,38.753075,-160.13434,53.270584
5.863591,7.1199713,-4.5681596,26.684595,-159.8135,35.579082
5.792597,7.382583,-4.5274053,13.466749,-161.99889,16.903221
5.855304,7.192407,-4.5142136,0.90191233,-165.92572,-2.140655
6.0797644,6.516427,-4.467315,-9.615338,-171.76622,-20.198864
6.5517044,5.4107213,-4.2577443,-18.487919,-178.38889,-34.591568
7.309253,4.0531006,-3.7730753,-25.967754,-181.17197,-42.300095
8.2447195,2.6594622,-3.082241,-30.64515,-177.57544,-44.841637
9.042433,1.508998,-2.4478593,-31.39452,-168.18768,-43.799206
9.579939,0.70194566,-1.9416093,-29.922447,-155.84311,-40.493874
9.93178,0.21408564,-1.5062926,-27.45077,-141.52263,-35.503483
10.236346,-0.010313676,-1.1361697,-25.528988,-124.1291,-29.700468
10.512714,-0.11397397,-0.92810845,-24.147867,-104.58635,-23.991833
10.713426,-0.18387829,-0.9035992,-22.86876,-82.82322,-18.27208
10.860095,-0.18729246,-1.0304943,-22.2382,-59.31965,-12.664196
10.956992,-0.1306235,-1.3433422,-23.144644,-34.000355,-7.0603523
10.9550495,-0.05671674,-1.8671658,-22.77468,-10.17085,-2.1091003
10.77161,0.09762774,-2.533432,-23.257046,10.677853,1.5685569
10.498807,0.28339532,-3.2059333,-24.372847,28.90281,4.417008
10.101349,0.48656714,-3.9199111,-26.310144,43.45325,7.0679855
9.607535,0.6694174,-4.634609,-29.037989,53.81359,9.792033
9.108824,0.8152693,-5.313106,-31.69076,59.4096,11.989706
8.662166,0.9031537,-5.9491696,-33.085255,62.276253,13.370801
8.236898,0.94171935,-6.57519,-32.984688,62.288353,14.143978
7.828104,0.9573666,-7.1777816,-32.1057,59.39635,14.640833
7.4378285,0.99352664,-7.755034,-30.32762,53.722744,14.8265
7.0932784,1.0671117,-8.305239,-28.53173,44.191208,14.544075
6.8569946,1.1446044,-8.789678,-26.684948,32.693863,13.998255
6.6744866,1.1862526,-9.256283,-24.929712,19.158842,13.455367
6.5165253,1.1712692,-9.727477,-23.010235,3.275283,12.880102
6.395316,1.1305162,-10.20575,-21.375568,-15.205116,12.179463
6.323313,1.0772479,-10.693202,-19.817305,-38.11929,11.289347
6.470457,0.9732937,-11.0993,-18.84955,-63.055058,10.552467
7.0290403,0.79744244,-11.138679,-18.281723,-86.2507,10.269608
8.005121,0.6405392,-10.505954,-16.782051,-99.85666,11.245999
8.863503,0.66008705,-9.617316,-12.007392,-105.6589,10.908321
9.408565,0.87022376,-8.776289,-9.713607,-109.405235,9.132611
9.789669,1.032682,-7.8601937,-9.637532,-111.24667,8.856174
10.017722,1.1659802,-7.0198092,-10.265975,-110.499825,9.470297
10.087601,1.2611539,-6.324727,-11.209293,-108.56795,9.588944
10.046824,1.2778013,-5.7448196,-11.994989,-105.40851,9.294097
9.905697,1.2754809,-5.2795405,-13.110419,-101.21682,8.745201
9.716822,1.2474777,-4.890533,-12.97108,-96.34729,7.384761
9.478867,1.2276751,-4.595542,-13.404047,-91.210976,6.289009
9.191559,1.2074568,-4.3806825,-14.057401,-86.461624,5.4736624
8.903429,1.1869955,-4.201192,-14.966333,-81.79138,5.1573915
8.622568,1.1646341,-4.04843,-16.024227,-76.716545,5.3575454
8.332529,1.127439,-3.9460256,-17.153772,-71.55497,5.8121533
8.024708,1.0591552,-3.8824422,-18.111216,-66.5875,6.2690873
7.7056828,0.9619116,-3.8423102,-17.629791,-62.036247,6.3804283
7.460676,0.93132704,-3.7201414,-17.06924,-60.063766,6.1775584
7.223768,0.9017535,-3.6020114,-16.52722,-58.15649,5.9813952
6.9946632,0.873154,-3.4877722,-16.003054,-56.312035,5.7916927
6.7730794,0.8454934,-3.3772829,-15.496092,-54.528126,5.6082177
6.5587463,0.8187378,-3.270409,-15.00572,-52.80259,5.430746
6.351405,0.79285514,-3.1670222,-14.531345,-51.133347,5.2590647
6.15081,0.7678145,-3.0669985,-14.072404,-49.518406,5.0929685
5.9567223,0.7435863,-2.97022,-13.628353,-47.955868,4.932261
5.768917,0.72014225,-2.876574,-13.198674,-46.443897,4.776755
5.5871754,0.6974552,-2.7859516,-12.782868,-44.98075,4.6262703
5.411289,0.6754991,-2.6982489,-12.380459,-43.56474,4.4806337
5.241058,0.65424883,-2.613366,-11.990988,-42.194256,4.3396792
5.0762887,0.63368046,-2.5312066,-11.614014,-40.86775,4.203248
4.916797,0.6137709,-2.4516788,-11.249113,-39.583725,4.071186
4.762405,0.5944979,-2.3746936,-10.89588,-38.34076,3.943347
4.612941,0.5758401,-2.300166,-10.553923,-37.137466,3.8195887
4.468241,0.557777,-2.2280138,-10.222864,-35.97253,3.6997747
4.3281465,0.5402888,-2.1581578,-9.902343,-34.84467,3.583774
4.1925044,0.52335644,-2.0905223,-9.592009,-33.752655,3.4714606
4.0611687,0.5069616,-2.025034,-9.291526,-32.695305,3.3627121
3.9339967,0.4910865,-1.9616218,-9.000569,-31.67148,3.257412
3.8108523,0.47571424,-1.9002179,-8.718828,-30.68008,3.1554463
3.691604,0.46082827,-1.8407567,-8.446001,-29.720047,3.056707
3.5761244,0.4464128,-1.7831748,-8.181796,-28.790354,2.961088
3.4642913,0.43245253,-1.727411,-7.9259334,-27.890018,2.8684883
3.3559866,0.41893268,-1.6734066,-7.6781435,-27.018087,2.7788103
3.2510958,0.405839,-1.6211046,-7.438164,-26.173641,2.691959
3.149509,0.39315775,-1.57045,-7.2057443,-25.355795,2.6078434
3.0511196,0.38087568,-1.5213898,-6.98064,-24.56369,2.5263755
2.9558249,0.36897993,-1.4738728,-6.762616,-23.796501,2.4474702
2.8635259,0.3574581,-1.4278494,-6.5514455,-23.053427,2.371045
2.7741265,0.34629825,-1.3832718,-6.346909,-22.333698,2.297021
2.687534,0.33548877,-1.340094,-6.1487947,-21.636568,2.225321
2.603659,0.32501853,-1.2982711,-5.9568973,-20.961313,2.1558712
2.5224147,0.31487668,-1.2577599,-5.771019,-20.307238,2.0885994
2.4437175,0.3050528,-1.2185189,-5.5909677,-19.67367,2.0234368
2.3674862,0.29553676,-1.1805075,-5.416559,-19.059954,1.9603163
2.293643,0.2863188,-1.1436868,-5.2476134,-18.465464,1.899173
2.222112,0.27738947,-1.1080191,-5.083958,-17.889587,1.8399441
2.15282,0.26873964,-1.0734677,-4.9254255,-17.331738,1.7825693
2.0856962,0.26036048,-1.0399976,-4.771853,-16.791342,1.7269896
2.0206718,0.2522434,-1.0075743,-4.6230845,-16.26785,1.6731485
1.9576811,0.24438016,-0.97616494,-4.4789677,-15.76073,1.6209911
1.8966594,0.23676275,-0.9457375,-4.339357,-15.269462,1.5704641
1.8375448,0.2293834,-0.916261,-4.2041087,-14.793548,1.5215163
1.7802774,0.2222346,-0.88770556,-4.073087,-14.332503,1.474098
1.7247989,0.21530916,-0.86004215,-3.9461582,-13.885862,1.4281609
1.671053,0.20859998,-0.8332427,-3.8231933,-13.45317,1.3836585
1.6189855,0.2021003,-0.80728006,-3.7040682,-13.033989,1.3405458
1.5685434,0.19580355,-0.782128,-3.5886621,-12.627894,1.2987789
1.5196759,0.18970335,-0.75776094,-3.4768581,-12.234475,1.2583158
1.4723333,0.1837935,-0.7341544,-3.3685434,-11.853334,1.2191154
1.426468,0.17806807,-0.71128446,-3.2636085,-11.484086,1.1811383
1.3820337,0.17252126,-0.689128,-3.1619473,-11.126357,1.1443459
1.3389854,0.16714749,-0.6676627,-3.0634575,-10.779788,1.1087012
1.2972798,0.16194132,-0.6468669,-2.9680395,-10.444028,1.0741683
1.2568748,0.15689752,-0.62671965,-2.8755972,-10.11874,1.0407124
1.2177298,0.15201098,-0.6072006,-2.7860374,-9.803595,1.0082997
1.1798053,0.1472768,-0.5882902,-2.6992702,-9.498275,0.97689754
1.1430631,0.14269023,-0.5699693,-2.615208,-9.202474,0.94647443
1.1074662,0.13824663,-0.55221957,-2.533766,-8.915894,0.9169997
1.072979,0.13394152,-0.53502303,-2.4548628,-8.638247,0.88844365
1.0395665,0.1297706,-0.5183625,-2.3784187,-8.369253,0.8607777
1.0071955,0.12572967,-0.50222117,-2.304357,-8.108643,0.8339739
0.9758331,0.12181467,-0.48658288,-2.2326033,-7.856153,0.80800533
0.94544804,0.11802165,-0.47143188,-2.1630855,-7.6115313,0.78284603
0.91600966,0.11434682,-0.45675293,-2.0957336,-7.3745317,0.7584706
0.88748854,0.11078648,-0.44253135,-2.0304801,-7.144916,0.73485464
0.85985595,0.107337065,-0.4287528,-1.9672598,-6.9224544,0.71197444
0.8330842,0.103995115,-0.41540352,-1.9060088,-6.7069225,0.689807
0.80714643,0.10075726,-0.40247008,-1.846666,-6.498105,0.6683301
0.78201663,0.09762027,-0.38993952,-1.7891716,-6.295792,0.6475222
0.75766957,0.094580986,-0.37779927,-1.733468,-6.0997806,0.62736243
0.7340808,0.091636375,-0.36603713,-1.6794995,-5.9098744,0.6078306
0.71122676,0.08878347,-0.35464135,-1.6272119,-5.725883,0.58890706
0.68908453,0.08601942,-0.34360048,-1.5765527,-5.547622,0.5705729
0.6676318,0.08334145,-0.33290344,-1.5274713,-5.3749127,0.5528098
0.64684725,0.08074688,-0.32253957,-1.4799184,-5.207582,0.5355998
0.62670994,0.07823311,-0.31249842,-1.4338462,-5.045462,0.5189258
0.60719967,0.07579762,-0.30277,-1.3892089,-4.888391,0.502771
0.588297,0.07343797,-0.29334447,-1.3459615,-4.736211,0.48711926
0.5699829,0.07115179,-0.28421247,-1.3040608,-4.5887694,0.4719549
0.55223906,0.06893681,-0.2753648,-1.2634648,-4.445919,0.45726275
0.53504777,0.06679079,-0.26679263,-1.2241329,-4.3075166,0.44302806
0.5183917,0.06471159,-0.25848737,-1.1860256,-4.173424,0.42923662
0.5022543,0.062697135,-0.25044072,-1.149105,-4.0435057,0.41587457
0.48661932,0.0607454,-0.24264461,-1.1133337,-3.917633,0.40292856
0.47147116,0.058854427,-0.23509121,-1.0786763,-3.7956793,0.39038563
0.4567946,0.057022333,-0.227773,-1.045098,-3.6775227,0.3782332
0.442575,0.05524728,-0.22068264,-1.0125649,-3.5630445,0.36645913
0.4287981,0.05352749,-0.213813,-0.9810448,-3.4521308,0.35505164
0.41545013,0.05186124,-0.20715725,-0.9505061,-3.34467,0.3439993
0.4025177,0.05024687,-0.20070873,-0.92091805,-3.2405548,0.33329105
0.3899879,0.048682753,-0.19446094,-0.8922512,-3.1396809,0.32291618
0.37784818,0.047167335,-0.18840767,-0.8644768,-3.0419474,0.3128643
0.36608636,0.045699093,-0.18254286,-0.83756703,-2.9472566,0.30312535
0.35469073,0.04427656,-0.17686062,-0.81149507,-2.8555136,0.29368958
0.34364986,0.042898312,-0.17135526,-0.7862347,-2.7666268,0.28454757
0.3329527,0.04156297,-0.1660213,-0.7617607,-2.680507,0.27569014
0.32258856,0.0402692,-0.1608534,-0.7380486,-2.5970683,0.26710847
0.31254706,0.039015703,-0.15584637,-0.7150747,-2.5162268,0.25879395
0.30281815,0.03780123,-0.15099521,-0.69281596,-2.4379022,0.25073823
0.2933921,0.03662456,-0.14629506,-0.67125016,-2.3620157,0.24293332
0.28425947,0.035484523,-0.14174123,-0.6503557,-2.2884915,0.23537137
0.27541113,0.03437997,-0.13732916,-0.63011163,-2.2172563,0.22804481
0.26683825,0.033309806,-0.13305444,-0.6104978,-2.1482384,0.22094631
0.25853223,0.032272954,-0.12891278,-0.5914945,-2.081369,0.2140688
0.25048476,0.031268377,-0.12490004,-0.57308275,-2.016581,0.20740537
0.24268782,0.030295072,-0.121012226,-0.55524415,-1.9538101,0.20094937
