ax,ay,az,gx,gy,gz
-0.35273048,1.0527369,0.94819045,-3.6063964,3.1627562,-2.108201
-0.32379442,1.364948,1.0529224,-9.972759,3.895202,-4.767744
-0.2514717,1.3491297,1.0852641,-13.6928,6.3447347,-7.5664434
-0.25674197,1.3620727,0.9848283,-14.31515,8.721148,-10.346126
-0.33926758,1.4295377,0.7857786,-16.127195,10.264066,-13.916584
-0.47161523,1.4781027,0.4910777,-19.609568,11.545112,-16.572931
-0.5996965,1.453539,0.13624664,-23.562033,12.963662,-17.639828
-0.7432448,1.3863658,-0.3282447,-29.02283,13.95772,-17.693382
-0.88622224,1.2025094,-0.9185622,-35.126415,13.301188,-16.527601
-1.023623,0.829,-1.6161145,-39.954426,10.758581,-14.414949
-1.1981761,0.10667625,-2.4977417,-41.784077,6.73202,-12.153774
-1.3670212,-0.7096833,-3.363517,-40.37176,1.0514233,-9.355625
-1.4875898,-1.4368982,-4.123854,-36.4894,-6.548466,-5.4937186
-1.5048873,-1.9418468,-4.6994495,-31.005362,-15.839616,-0.5221051
-1.4248686,-2.1641936,-5.035007,-24.70132,-26.473589,5.309676
-1.2095304,-2.0414884,-5.063439,-19.104485,-36.498856,10.352389
-0.92452395,-1.798512,-4.90611,-13.197977,-45.1878,13.88534
-0.6092222,-1.4061072,-4.5806417,-7.228475,-52.336258,16.17914
-0.27976668,-0.828589,-4.103052,-2.3524995,-58.063385,17.352278
0.054826435,-0.11097724,-3.4967082,-0.7435393,-62.117577,17.59298
0.37794358,0.6756464,-2.783232,-1.3923053,-64.456894,17.110065
0.6555818,1.3905108,-2.094477,-3.511866,-65.04901,15.81675
0.87122077,1.9959435,-1.4942695,-6.407795,-64.29852,13.571813
1.0281525,2.469844,-0.99554986,-9.754529,-62.57174,10.438237
1.1318194,2.8058448,-0.59646374,-13.393238,-59.951042,6.476103
1.198607,2.981315,-0.29752767,-17.169325,-57.040627,2.2562652
1.2717487,3.006516,-0.056608774,-20.963793,-53.878613,-1.8549942
1.351183,2.8622112,0.1499187,-24.303497,-50.65382,-5.7454624
1.4460881,2.5759563,0.35180575,-26.618635,-47.231842,-9.280343
1.5688142,2.2105541,0.56093585,-27.728537,-43.07465,-12.085431
1.7018052,1.7936071,0.7610554,-28.215637,-38.383804,-14.110147
1.8138301,1.3738744,0.9372369,-28.175207,-33.253242,-15.232224
1.8917572,0.9730325,1.0812618,-27.716923,-27.92132,-15.541055
1.9456325,0.6085022,1.1865003,-26.906143,-22.371767,-15.072969
1.9732196,0.290345,1.2431802,-25.465391,-16.266926,-14.108344
1.9585005,0.0672961,1.2380782,-23.89359,-9.908152,-12.903815
1.9046983,-0.082945496,1.189814,-22.311195,-3.5082245,-11.681668
1.8131119,-0.17981447,1.0915338,-20.845552,2.7815204,-10.401146
1.6767862,-0.22268744,0.9367896,-19.67828,8.488829,-8.938667
1.5003277,-0.2241615,0.73806244,-19.148432,12.880819,-7.3821125
1.3032485,-0.19906513,0.49305657,-18.981073,16.274996,-5.8662863
1.0994562,-0.16771151,0.2261381,-18.930744,18.87676,-4.4560776
0.87726164,-0.1282147,-0.066418245,-18.945581,20.79046,-3.208064
0.6264091,-0.09635793,-0.4029892,-19.00284,21.884851,-2.1390858
0.34673733,-0.0924953,-0.8039253,-19.029867,21.180813,-1.2951403
0.044179063,-0.12986898,-1.281322,-18.752462,18.644075,-0.796231
-0.23053965,-0.18137132,-1.7740607,-18.103098,14.299101,-0.6802839
-0.43188375,-0.24504967,-2.2644835,-17.12005,8.376374,-0.70719796
-0.526636,-0.32397646,-2.7295825,-15.95368,1.3089372,-0.4250602
-0.5038984,-0.39961827,-3.1412654,-14.746452,-6.2451916,1.0461948
-0.41283816,-0.45926097,-3.482543,-13.22392,-13.7870455,2.9994705
-0.30839932,-0.48415506,-3.7644436,-11.368728,-21.632849,4.883747
-0.17709582,-0.49036363,-3.977099,-9.198674,-29.655485,6.4456077
0.010575486,-0.48107123,-4.081973,-7.2523184,-37.859745,8.031985
0.28462148,-0.45039266,-4.036158,-5.404613,-45.107853,9.981978
0.6229642,-0.3812088,-3.79983,-3.5423574,-51.142426,11.948796
0.96801,-0.2616711,-3.4388425,-1.764049,-55.814964,13.462553
1.3085852,-0.10253687,-2.9786186,-0.10400385,-58.96247,14.639572
1.6347712,0.085918434,-2.4574869,0.9621987,-60.862644,15.682724
1.9420379,0.26673272,-1.9059483,1.3165517,-61.232098,16.66692
2.227426,0.42918533,-1.3474171,1.4066072,-60.42871,17.477648
2.491679,0.5734132,-0.8110947,1.4796764,-58.23764,17.9713
2.4111524,0.5548815,-0.7848816,1.4318559,-56.355507,17.390501
2.3334074,0.53699,-0.75957394,1.3856874,-54.538387,16.829763
2.2583318,0.5197127,-0.7351352,1.3411038,-52.783653,16.288279
2.1858187,0.5030252,-0.7115307,1.2980422,-51.088818,15.765276
2.1157677,0.48690423,-0.6887275,1.2564425,-49.451523,15.260031
2.0480826,0.47132778,-0.6666946,1.2162479,-47.86953,14.77185
1.9826727,0.45627493,-0.64540225,1.1774044,-46.340714,14.300079
1.9194515,0.44172573,-0.6248224,1.1398606,-44.863052,13.844094
1.8583366,0.4276613,-0.6049282,1.1035678,-43.434624,13.403301
1.7992495,0.41406354,-0.58569413,1.0684792,-42.053593,12.977136
1.7421159,0.40091527,-0.5670959,1.0345504,-40.718216,12.565057
1.6868639,0.38820007,-0.54911023,1.0017393,-39.42682,12.166551
1.6334257,0.3759023,-0.5317149,0.97000515,-38.17782,11.781127
1.5817362,0.3640069,-0.5148889,0.9393095,-36.969685,11.408314
1.5317329,0.3524996,-0.49861175,0.90961516,-35.800964,11.047665
1.4833564,0.34136665,-0.48286417,0.8808869,-34.67027,10.698748
1.4365494,0.33059493,-0.46762753,0.85309076,-33.576256,10.361152
1.3912574,0.3201718,-0.452884,0.8261942,-32.517654,10.034481
1.3474278,0.31008524,-0.43861654,0.80016613,-31.49323,9.718359
1.3050103,0.30032367,-0.42480874,0.7749767,-30.501814,9.412422
1.2639567,0.2908759,-0.41144484,0.750597,-29.54227,9.116321
1.2242202,0.2817313,-0.3985098,0.72699964,-28.613516,8.8297205
1.1857564,0.2728796,-0.38598904,0.70415807,-27.71451,8.5522995
1.1485225,0.26431093,-0.3738686,0.6820468,-26.844246,8.28375
1.1124772,0.25601575,-0.36213508,0.6606414,-26.001764,8.023771
1.0775807,0.24798499,-0.35077554,0.6399182,-25.186134,7.7720795
1.0437949,0.24020982,-0.33977753,0.61985457,-24.396463,7.5283985
1.0110829,0.23268177,-0.32912907,0.6004287,-23.631891,7.2924623
0.97940934,0.22539268,-0.31881866,0.5816194,-22.891588,7.064016
0.94874,0.21833472,-0.30883512,0.5634065,-22.174759,6.8428125
0.919042,0.21150027,-0.29916778,0.5457704,-21.48063,6.6286144
0.89028347,0.20488204,-0.28980628,0.5286923,-20.808464,6.421193
0.86243397,0.19847299,-0.28074065,0.5121539,-20.157541,6.220328
0.8354638,0.19226632,-0.2719613,0.49613777,-19.527172,6.025805
0.80934453,0.18625546,-0.2634589,0.4806269,-18.916689,5.837419
0.7840486,0.18043408,-0.25522456,0.465605,-18.32545,5.654971
0.75954944,0.17479606,-0.24724956,0.45105624,-17.752836,5.4782705
0.7358214,0.1693355,-0.23952559,0.43696544,-17.198246,5.307132
0.7128398,0.1640467,-0.23204456,0.42331785,-16.661098,5.141376
0.69058055,0.15892416,-0.22479871,0.41009927,-16.140837,4.9808307
0.6690206,0.15396254,-0.21778049,0.39729595,-15.636919,4.825329
0.64813757,0.1491567,-0.2109826,0.38489464,-15.148823,4.6747093
0.6279099,0.14450169,-0.20439807,0.37288246,-14.676044,4.5288167
0.60831666,0.13999267,-0.19802006,0.3612471,-14.218095,4.3875
0.58933765,0.135625,-0.19184199,0.34997648,-13.774502,4.2506137
0.5709534,0.13139422,-0.18585753,0.33905905,-13.34481,4.1180167
0.5531451,0.12729597,-0.18006054,0.3284836,-12.928578,3.9895737
0.53589433,0.12332603,-0.17444505,0.3182393,-12.525379,3.8651524
0.5191836,0.119480364,-0.16900533,0.30831566,-12.134801,3.7446253
0.50299567,0.11575502,-0.16373584,0.29870254,-11.756444,3.6278698
0.48731416,0.11214621,-0.15863116,0.28939012,-11.389921,3.5147662
0.472123,0.10865025,-0.1536861,0.2803689,-11.034861,3.4051998
0.45740673,0.10526358,-0.14889565,0.27162966,-10.6909,3.2990582
0.44315043,0.10198276,-0.14425492,0.2631636,-10.357689,3.1962342
0.42933956,0.098804444,-0.13975918,0.25496206,-10.034889,3.096623
0.4159601,0.09572542,-0.1354039,0.24701671,-9.722174,3.0001233
0.40299854,0.092742555,-0.13118462,0.23931952,-9.419225,2.9066377
0.3904417,0.08985283,-0.1270971,0.23186266,-9.125735,2.816071
0.37827685,0.08705332,-0.12313719,0.22463863,-8.841409,2.7283318
0.36649173,0.0843412,-0.11930088,0.21764006,-8.565957,2.6433313
0.3550744,0.08171371,-0.1155843,0.21085991,-8.299101,2.5609834
0.34401333,0.079168215,-0.11198368,0.20429131,-8.040572,2.4812052
0.33329734,0.07670213,-0.1084954,0.19792767,-7.790109,2.403916
0.3229156,0.07431298,-0.10511593,0.1917625,-7.547459,2.3290374
0.31285772,0.071998335,-0.10184187,0.18578966,-7.312377,2.2564945
0.3031135,0.06975588,-0.09866991,0.18000306,-7.0846267,2.186214
0.2936731,0.06758335,-0.09559686,0.17439692,-6.8639774,2.118125
0.28452706,0.06547856,-0.09261963,0.16896556,-6.6502085,2.0521588
0.27566615,0.06343939,-0.08973521,0.16370355,-6.443104,1.9882493
0.26708144,0.061463784,-0.08694071,0.15860555,-6.242455,1.926332
0.25876436,0.05954976,-0.084233314,0.15366647,-6.0480604,1.8663447
0.25070646,0.05769539,-0.08161031,0.14888132,-5.859725,1.8082271
0.2428997,0.05589881,-0.07906904,0.14424528,-5.6772585,1.7519206
0.23533621,0.05415822,-0.07660696,0.13975373,-5.5004787,1.6973687
0.22800842,0.05247186,-0.0742216,0.13540214,-5.329207,1.6445168
0.22090894,0.05083805,-0.071910575,0.13118614,-5.163272,1.5933115
0.21403065,0.04925514,-0.06967155,0.12710148,-5.0025067,1.5437018
0.20736666,0.047721546,-0.067502275,0.12314409,-4.8467503,1.4956375
0.20091027,0.04623573,-0.06540058,0.119309984,-4.6958456,1.4490706
0.194655,0.044796195,-0.06336436,0.11559531,-4.549642,1.4039544
0.18859458,0.043401506,-0.061391562,0.111996345,-4.407993,1.3602434
0.18272293,0.042050254,-0.059480213,0.10850949,-4.270756,1.317894
0.17703417,0.040741093,-0.0576284,0.10513123,-4.1377935,1.2768637
0.17152259,0.039472707,-0.055834264,0.10185819,-4.0089717,1.2371112
0.16618267,0.038243823,-0.054096002,0.09868709,-3.8841627,1.1985968
0.16100904,0.03705321,-0.052411877,0.09561475,-3.7632403,1.161282
0.15599653,0.035899676,-0.050780203,0.09263809,-3.6460838,1.1251291
0.15114012,0.034782067,-0.04919934,0.08975413,-3.5325758,1.0901022
0.14643495,0.03369926,-0.047667705,0.08695997,-3.4226024,1.056166
0.1418763,0.03265017,-0.046183765,0.08425283,-3.3160536,1.0232866
0.13745959,0.031633746,-0.04474603,0.081629984,-3.2128227,0.99143094
0.13318041,0.030648975,-0.04335307,0.07908881,-3.112806,0.9605673
0.12903449,0.029694866,-0.04200348,0.076626755,-3.0159037,0.93066466
0.12501764,0.028770465,-0.04069591,0.07424136,-2.9220188,0.90169305
0.12112587,0.027874846,-0.039429054,0.071930245,-2.8310568,0.87362355
0.117355265,0.027007114,-0.038201645,0.069691084,-2.7429273,0.846428
0.113702066,0.026166398,-0.03701245,0.06752165,-2.6575415,0.82007915
0.1101626,0.025351856,-0.035860278,0.06541974,-2.574814,0.7945507
0.10673334,0.024562676,-0.03474398,0.06338329,-2.4946625,0.76981705
0.10341084,0.023798065,-0.033662435,0.06141023,-2.4170063,0.7458534
0.10019179,0.02305726,-0.032614563,0.0594986,-2.3417675,0.7226359
0.097072944,0.022339517,-0.031599317,0.057646487,-2.2688715,0.7001412
0.094051205,0.02164412,-0.030615674,0.055852033,-2.1982448,0.6783468
0.09112353,0.02097037,-0.029662654,0.054113448,-2.1298168,0.6572309
0.088287,0.0203176,-0.028739305,0.052428983,-2.063519,0.6367724
0.08553878,0.019685147,-0.027844701,0.05079696,-1.9992853,0.61695075
0.08287612,0.019072384,-0.026977945,0.049215745,-1.9370513,0.5977462
0.080296345,0.018478697,-0.026138175,0.047683753,-1.8767545,0.57913953
0.077796884,0.017903494,-0.025324546,0.046199452,-1.8183349,0.5611121
0.07537523,0.017346194,-0.024536245,0.04476136,-1.761734,0.5436458
0.07302896,0.016806245,-0.023772486,0.043368038,-1.706895,0.5267233
0.07075573,0.016283104,-0.0230325,0.042018086,-1.6537632,0.5103276
0.06855327,0.015776249,-0.02231555,0.04071016,-1.6022853,0.49444225
0.06641936,0.015285171,-0.02162092,0.03944295,-1.5524099,0.47905144
0.06435189,0.01480938,-0.020947913,0.038215183,-1.5040871,0.4641397
0.06234877,0.014348401,-0.020295857,0.037025638,-1.4572686,0.4496922
0.06040801,0.013901771,-0.019664098,0.035873123,-1.4119074,0.4356944
0.058527663,0.013469044,-0.019052004,0.034756485,-1.3679584,0.42213234
