ax,ay,az,gx,gy,gz
-0.030000273,-0.030000273,-1.3618306,15.758325,59.98145,-7.324612
-0.32826847,0.10531648,-2.129023,14.2406225,61.58836,-10.755836
-0.73860246,0.21832228,-2.719763,11.038816,58.865246,-12.092826
-1.0510744,0.20698224,-3.2231455,5.213664,54.779346,-12.240243
-1.3148602,0.17364071,-3.6607456,-0.42730102,51.521725,-11.932591
-1.6301416,0.0863215,-4.108107,-3.326138,46.904438,-11.392169
-1.932275,-0.10769073,-4.604925,-3.6615274,42.204796,-10.105887
-2.2480383,-0.33593845,-5.1405215,-3.8380213,36.09571,-8.866587
-2.5380912,-0.6053163,-5.649862,-3.2966914,28.517492,-7.89719
-2.7572055,-0.8585343,-6.0964766,-1.8541337,19.92945,-6.8688893
-2.8972857,-1.1082757,-6.472238,-0.0928042,9.240526,-4.981381
-2.8871813,-1.3747237,-6.7081914,1.7135524,-1.988206,-2.2490866
-2.7528079,-1.5905538,-6.802211,4.28685,-12.779309,0.9453112
-2.551176,-1.7254934,-6.8045225,7.5574164,-23.068943,3.8389769
-2.287259,-1.759463,-6.6925755,11.450209,-32.73444,5.8760552
-1.9348195,-1.6769458,-6.440128,15.584,-40.744328,7.45921
-1.5729879,-1.4516796,-6.04922,18.951155,-47.40925,9.010652
-1.2473452,-1.1224158,-5.5925293,21.670765,-53.401,10.070955
-0.90475595,-0.6775395,-5.057561,23.340296,-58.413967,10.39709
-0.52352613,-0.119758174,-4.4470606,23.689613,-61.88683,9.776239
-0.13182433,0.48990476,-3.7874079,22.072268,-63.005386,8.263697
0.19805953,1.0736184,-3.1329458,19.105604,-62.55788,6.529919
0.45014668,1.5817363,-2.5565271,15.094889,-60.794964,4.5982537
0.6425646,2.0110013,-2.0776322,10.557309,-58.24533,2.1013458
0.8061989,2.366469,-1.6884925,5.8809657,-55.132675,-1.1042764
0.94145584,2.6357796,-1.3842018,0.6971037,-51.49255,-5.0813003
1.017126,2.7267444,-1.1835518,-4.41303,-47.700928,-9.255167
1.0658745,2.686362,-1.0516539,-9.18195,-44.135635,-13.365197
1.1207433,2.5288618,-0.9542152,-13.551861,-40.923386,-17.289473
1.2097628,2.2589715,-0.8622432,-17.464619,-37.995872,-20.678703
1.3297102,1.8958882,-0.748839,-20.876768,-34.81716,-22.817713
1.4290441,1.4256489,-0.61538535,-23.43958,-31.259747,-24.052395
1.504001,0.9147191,-0.48870453,-24.85869,-27.19722,-24.596941
1.5755986,0.40897626,-0.3746014,-25.201914,-22.75367,-24.392513
1.6367018,-0.04453992,-0.27178136,-24.92479,-17.98981,-23.431013
1.6608863,-0.4371494,-0.200688,-24.047096,-12.867391,-21.572407
1.6277583,-0.74891347,-0.18405797,-22.70126,-7.712945,-19.26519
1.5578078,-0.98988813,-0.21242078,-20.894861,-2.7281864,-16.695332
1.4641746,-1.138076,-0.27142003,-18.90477,1.9489565,-14.003364
1.3586761,-1.197785,-0.35126427,-17.153389,6.310045,-11.326483
1.2443503,-1.1913121,-0.44665658,-16.079334,10.377459,-8.644712
1.1240263,-1.1346605,-0.5786026,-15.493799,14.119079,-6.1452284
0.9952274,-1.0507511,-0.75865656,-14.571702,17.14174,-3.7736583
0.83251685,-0.94836986,-0.9882792,-12.934036,19.079542,-1.470617
0.6414287,-0.8364589,-1.2414311,-11.2423,19.996862,0.6317005
0.43572912,-0.70793784,-1.5232031,-10.253516,19.350761,2.3701444
0.22974722,-0.6075331,-1.8384649,-9.499324,17.570505,3.828335
0.033778023,-0.5399137,-2.172407,-8.792538,14.591893,5.020036
-0.14749424,-0.5096068,-2.5178034,-8.201425,10.267501,6.0391846
-0.29564026,-0.5181301,-2.8503795,-7.4929414,4.648691,6.951888
-0.39042607,-0.5489188,-3.1541822,-6.283011,-1.8752016,7.6396585
-0.39034465,-0.5947333,-3.4021304,-4.2592688,-9.145717,8.405449
-0.3333405,-0.60316086,-3.5680594,-2.0718586,-16.861647,9.184923
-0.20812841,-0.552696,-3.6113987,-0.28336173,-24.431715,9.805176
-0.010219571,-0.49125427,-3.5236304,1.5437726,-30.693115,10.323518
0.22495559,-0.42672816,-3.3476462,3.509079,-35.11665,10.826805
0.4504379,-0.32111588,-3.0820923,5.035454,-38.59614,11.050813
0.6651186,-0.1882837,-2.7540002,5.8205786,-41.36384,11.2307415
0.8692992,-0.046423394,-2.3831031,5.766001,-43.316536,11.537811
1.0557687,0.06404478,-2.0073073,5.2203417,-44.263474,11.953251
1.2112689,0.14339754,-1.6596719,4.4104176,-44.116344,12.350079
1.3262715,0.20620349,-1.3527482,3.4746008,-43.367302,12.564937
1.4185635,0.24779044,-1.080928,2.6620698,-42.091984,12.598743
1.4848387,0.27759054,-0.85058004,1.9897826,-40.423817,12.477869
1.5311427,0.2971335,-0.661087,1.3582405,-38.424095,12.333669
1.5565044,0.30756468,-0.513575,0.76784295,-36.17909,12.266892
1.5579944,0.309822,-0.41154778,0.107530765,-33.62691,12.249333
1.5395359,0.3028217,-0.343134,-0.5441704,-30.836805,12.326069
1.4903675,0.29315042,-0.33217525,-0.5267911,-29.851965,11.932409
1.4428444,0.28380278,-0.3215832,-0.5099934,-28.90008,11.551922
1.3969045,0.27476656,-0.3113441,-0.4937553,-27.979906,11.184112
1.3524891,0.2660302,-0.3014447,-0.47805604,-27.09027,10.8285055
1.3095418,0.2575826,-0.29187256,-0.46287575,-26.230038,10.484655
1.2680092,0.24941328,-0.28261572,-0.44819546,-25.398142,10.15213
1.22784,0.24151212,-0.27366272,-0.4339971,-24.593554,9.830521
1.1889851,0.2338695,-0.2650027,-0.4202633,-23.815294,9.519435
1.1513978,0.2264762,-0.2566252,-0.40697756,-23.062424,9.218498
1.1150334,0.21932344,-0.24852024,-0.39412403,-22.334045,8.927351
1.0798488,0.21240275,-0.24067825,-0.38168755,-21.629301,8.645651
1.045803,0.20570603,-0.23309006,-0.36965358,-20.947365,8.373068
1.0128565,0.19922556,-0.2257469,-0.35800818,-20.287449,8.109286
0.98097134,0.19295387,-0.2186403,-0.34673795,-19.648792,7.8540034
0.9501114,0.18688382,-0.21176219,-0.33583006,-19.03067,7.6069274
0.92024165,0.18100853,-0.20510478,-0.3252722,-18.43238,7.36778
0.89132863,0.17532144,-0.1986606,-0.31505248,-17.853254,7.136292
0.86334,0.16981618,-0.19242246,-0.30515954,-17.292645,6.9122057
0.8362449,0.16448665,-0.18638346,-0.29558238,-16.749931,6.695272
0.81001335,0.15932699,-0.18053694,-0.28631046,-16.224514,6.4852533
0.78461665,0.15433155,-0.17487648,-0.27733365,-15.715821,6.2819185
0.76002717,0.14949487,-0.16939595,-0.26864216,-15.223295,6.0850463
0.7362183,0.14481173,-0.16408938,-0.26022658,-14.746405,5.894424
0.71316427,0.14027709,-0.15895107,-0.25207782,-14.284634,5.709845
0.69084036,0.13588604,-0.15397549,-0.24418712,-13.837487,5.531112
0.6692227,0.13163394,-0.14915732,-0.23654607,-13.404488,5.3580337
0.6482883,0.12751621,-0.14449143,-0.22914651,-12.985173,5.1904254
0.628015,0.123528495,-0.13997288,-0.22198062,-12.579099,5.0281096
0.6083812,0.1196666,-0.13559687,-0.21504079,-12.185836,4.870915
0.5893664,0.115926445,-0.13135882,-0.20831972,-11.80497,4.718675
0.57095045,0.11230409,-0.12725425,-0.20181036,-11.4361,4.571231
0.5531142,0.10879576,-0.123278886,-0.1955059,-11.078841,4.4284277
0.53583896,0.10539778,-0.11942856,-0.18939973,-10.73282,4.2901163
0.5191068,0.102106616,-0.11569926,-0.18348551,-10.3976755,4.1561522
0.50290024,0.09891884,-0.11208713,-0.17775707,-10.073059,4.026397
0.48720255,0.095831156,-0.108588405,-0.1722085,-9.7586355,3.9007158
0.47199747,0.092840366,-0.10519947,-0.16683406,-9.454079,3.7789786
0.4572693,0.08994339,-0.10191684,-0.16162819,-9.159075,3.6610596
0.44300288,0.08713722,-0.09873712,-0.15658553,-8.87332,3.5468378
0.42918354,0.084419005,-0.09565704,-0.15170088,-8.5965185,3.4361951
0.41579705,0.08178593,-0.09267344,-0.14696924,-8.328388,3.3290184
0.40282977,0.0792353,-0.08978327,-0.14238577,-8.068654,3.2251973
0.39026833,0.07676451,-0.08698356,-0.13794576,-7.8170495,3.1246262
0.37809995,0.07437103,-0.08427146,-0.13364469,-7.5733175,3.027202
0.3663122,0.07205242,-0.08164419,-0.12947814,-7.3372097,2.9328249
0.35489306,0.06980631,-0.079099074,-0.12544188,-7.108485,2.8413994
0.3438309,0.06763042,-0.07663353,-0.121531814,-6.886911,2.7528317
0.3331145,0.06552254,-0.074245036,-0.11774395,-6.6722617,2.6670322
0.32273293,0.06348051,-0.071931176,-0.11407443,-6.464319,2.5839138
0.31267565,0.06150228,-0.069689594,-0.11051955,-6.2628727,2.5033917
0.30293247,0.059585832,-0.067518026,-0.10707569,-6.067718,2.4253845
0.29349354,0.057729222,-0.06541426,-0.103739366,-5.8786564,2.349813
0.2843493,0.055930577,-0.06337617,-0.1005072,-5.6954975,2.2766008
0.27549043,0.054188073,-0.061401706,-0.09737592,-5.518056,2.205674
0.26690808,0.05249995,-0.059488855,-0.094342366,-5.3461514,2.1369605
0.2585935,0.050864503,-0.05763569,-0.09140347,-5.179611,2.070391
0.25053835,0.049280077,-0.055840347,-0.08855626,-5.0182667,2.0058985
0.24273445,0.047745075,-0.054101,-0.08579786,-4.861955,1.9434178
0.23517397,0.046257954,-0.05241591,-0.0831255,-4.7105193,1.8828858
0.22784926,0.044817206,-0.05078337,-0.080536485,-4.563806,1.8242416
0.22075295,0.043421388,-0.049201734,-0.078028195,-4.421667,1.7674261
0.2138779,0.04206909,-0.047669414,-0.07559811,-4.2839603,1.7123821
0.20721719,0.04075895,-0.046184864,-0.0732438,-4.150547,1.659054
0.20076412,0.039489646,-0.044746593,-0.07096286,-4.021292,1.6073885
0.19451217,0.038259912,-0.04335315,-0.068753034,-3.8960662,1.5573332
0.18845509,0.037068505,-0.042003144,-0.06661207,-3.7747433,1.508838
0.18258679,0.035914227,-0.040695205,-0.06453784,-3.6572015,1.4618543
0.17690134,0.034795918,-0.039428025,-0.06252824,-3.5433226,1.4163346
0.17139307,0.033712458,-0.038200334,-0.06058126,-3.432992,1.3722334
0.16605641,0.032662757,-0.037010893,-0.058694944,-3.3260992,1.3295063
0.16088603,0.03164576,-0.03585851,-0.056867402,-3.2225368,1.2881104
0.15587673,0.030660445,-0.03474203,-0.055096794,-3.1222007,1.2480042
0.15102349,0.029705828,-0.03366033,-0.05338135,-3.0249906,1.2091473
0.14632142,0.028780947,-0.032612327,-0.051719338,-2.9308085,1.171501
0.14176583,0.027884876,-0.03159697,-0.0501091,-2.8395603,1.1350273
0.13735214,0.027016718,-0.03061324,-0.04854902,-2.7511544,1.0996897
0.13307591,0.0261756,-0.02966015,-0.04703753,-2.6655018,1.0654528
0.12893288,0.025360677,-0.028736744,-0.045573115,-2.5825171,1.0322822
0.12491888,0.024571136,-0.027842099,-0.044154312,-2.502117,1.0001447
0.12102988,0.023806185,-0.026975313,-0.04277969,-2.4242208,0.969008
0.117262006,0.023065055,-0.026135523,-0.041447885,-2.3487504,0.93884104
0.11361146,0.022347005,-0.025321886,-0.04015755,-2.2756302,0.9096135
0.1100746,0.021651315,-0.024533585,-0.038907398,-2.204787,0.88129616
0.10664788,0.02097729,-0.023769831,-0.03769617,-2.1361501,0.85386056
0.103327855,0.020324253,-0.02302986,-0.036522664,-2.0696502,0.8272793
0.10011122,0.01969155,-0.022312932,-0.035385698,-2.0052211,0.8015258
0.096994735,0.019078547,-0.021618325,-0.034284133,-1.9427981,0.7765741
0.09397528,0.018484633,-0.020945346,-0.03321687,-1.8823189,0.7523993
0.09104986,0.01790921,-0.020293321,-0.032182835,-1.8237227,0.7289773
0.08821551,0.017351704,-0.0196616,-0.031180996,-1.766951,0.7062845
0.08546941,0.016811555,-0.019049546,-0.03021035,-1.7119467,0.68429834
0.08280881,0.016288223,-0.018456547,-0.029269924,-1.6586552,0.6629966
0.08023105,0.015781187,-0.01788201,-0.028358778,-1.6070226,0.6423581
0.07773354,0.015289933,-0.017325362,-0.027475998,-1.5569977,0.6223622
0.075313784,0.014813976,-0.016786044,-0.026620703,-1.5085303,0.6029888
0.07296936,0.014352837,-0.016263517,-0.025792034,-1.4615716,0.5842185
0.07069793,0.013906053,-0.015757257,-0.024989165,-1.416075,0.56603265
0.06849721,0.013473179,-0.015266757,-0.024211291,-1.3719947,0.5484129
0.06636501,0.013053781,-0.014791528,-0.023457633,-1.3292868,0.53134173
0.06429918,0.01264744,-0.014331094,-0.02272744,-1.2879084,0.514802
0.062297665,0.012253748,-0.013884993,-0.022019975,-1.2478182,0.49877712
0.060358457,0.011872312,-0.0134527795,-0.021334536,-1.208976,0.48325115
0.058479622,0.011502751,-0.0130340215,-0.020670434,-1.171343,0.46820852
0.056659274,0.011144694,-0.0126283,-0.020027006,-1.1348815,0.45363417
0.05489559,0.010797784,-0.012235208,-0.019403609,-1.0995551,0.4395135
0.053186815,0.010461673,-0.011854353,-0.018799618,-1.0653285,0.42583242
0.05153123,0.010136025,-0.011485355,-0.018214429,-1.0321672,0.41257724
0.049927182,0.009820514,-0.011127843,-0.017647456,-1.0000383,0.39973468
0.04837307,0.009514825,-0.0107814595,-0.017098134,-0.9689095,0.3872919
0.046867337,0.009218653,-0.010445859,-0.016565911,-0.93874973,0.37523645
0.045408472,0.008931699,-0.010120706,-0.016050255,-0.9095288,0.3635563
0.043995023,0.008653678,-0.009805674,-0.0155506525,-0.8812175,0.3522397
