ax,ay,az,gx,gy,gz
-0.3263666,0.4354585,-1.4227402,-33.680305,78.292534,-4.660951
-0.13417573,0.551498,-1.6134508,-37.81494,81.09152,-3.9234035
-0.1990753,0.75073045,-1.8960752,-37.626232,81.75029,-7.6458216
-0.32611203,0.8984154,-2.2647371,-36.722836,83.163734,-14.739166
-0.5553616,0.9920547,-2.7260947,-36.04038,83.78333,-21.284624
-0.8134661,1.0147177,-3.2379394,-36.70211,81.49339,-23.984324
-1.1208341,0.87873894,-3.958007,-39.77444,76.05586,-23.723372
-1.4549999,0.52539986,-4.7498255,-44.10294,68.009254,-21.033577
-1.7836189,-0.030250661,-5.606975,-47.056473,57.268566,-16.562246
-2.0694046,-0.686679,-6.452809,-47.367535,44.12262,-11.81597
-2.236143,-1.3425274,-7.177389,-42.454025,29.474894,-8.060897
-2.2141619,-1.862158,-7.691087,-35.320713,15.172529,-3.9064279
-2.1340625,-2.1394408,-8.005172,-27.356443,0.78429914,0.9131308
-1.9939716,-2.122141,-8.113339,-18.89238,-13.905183,5.2708836
-1.7396836,-1.8364525,-7.9920735,-10.795369,-27.916357,8.246587
-1.3704239,-1.3271891,-7.6389103,-4.4792356,-40.629833,9.520099
-0.8874946,-0.60908645,-6.970673,0.12866506,-50.911118,9.361074
-0.3965122,0.1407845,-6.154764,3.6605947,-57.916023,8.026769
0.047614526,0.89023244,-5.2995167,5.603354,-61.865616,5.8730917
0.4149329,1.6331254,-4.4633074,5.7810693,-63.81799,3.1790557
0.7197207,2.3753586,-3.6516254,2.653158,-64.278496,-0.22886713
0.96223795,2.9471648,-2.9048839,-1.9632242,-63.777588,-3.6314368
1.1561917,3.3438294,-2.25894,-7.181449,-61.861412,-7.3553963
1.3139534,3.5733538,-1.7252901,-12.602617,-59.13186,-11.542474
1.4684718,3.5963178,-1.2886889,-17.659403,-55.832584,-16.085539
1.6584041,3.4418385,-0.9069952,-21.582241,-51.53201,-20.855642
1.9170667,3.1211624,-0.5468234,-24.63939,-46.430435,-25.154713
2.1986756,2.7191544,-0.21954538,-26.98212,-40.58182,-28.476513
2.4648244,2.267795,0.051393088,-28.643091,-34.026855,-30.619825
2.6782587,1.8085797,0.24897662,-29.628935,-26.9263,-31.77724
2.8196385,1.3648777,0.36390397,-29.812365,-19.367857,-31.798393
2.8707993,0.9707681,0.38726342,-29.55548,-11.832204,-30.973936
2.8620028,0.63852584,0.3508741,-28.8954,-4.353093,-29.492533
2.7967494,0.3784369,0.2589883,-28.04299,2.8700297,-27.640156
2.6892633,0.19612764,0.12275496,-27.091412,9.703581,-25.67315
2.5347142,0.074951,-0.05334267,-25.934307,15.785285,-23.735659
2.3279123,0.008952847,-0.27338016,-25.078074,20.98025,-21.699846
2.1024907,-0.044673502,-0.5179998,-24.768148,25.123096,-19.346941
1.8746539,-0.09431417,-0.77807885,-24.944523,28.225231,-16.514122
1.6479224,-0.14004643,-1.054257,-25.355867,30.534168,-13.274503
1.3978528,-0.18660522,-1.375754,-25.160435,31.713596,-10.186323
1.0989805,-0.25115138,-1.773214,-24.424309,31.47801,-7.56586
0.80824333,-0.3264619,-2.1882973,-23.488504,29.588179,-5.072155
0.5513955,-0.3912374,-2.5936499,-22.451254,26.152903,-2.462808
0.3307708,-0.43617028,-2.9872475,-21.438982,21.278992,0.3770562
0.15765473,-0.46858603,-3.3718162,-20.464909,14.484204,3.437235
0.065681614,-0.49814597,-3.7458029,-19.303484,6.5434546,6.3522377
0.051596124,-0.54276246,-4.0824428,-17.571701,-2.4857068,8.872503
0.13125437,-0.57434195,-4.3416476,-14.922851,-11.696588,10.900659
0.31110924,-0.56687135,-4.5014176,-11.672904,-20.516998,12.594235
0.55707866,-0.49982587,-4.546328,-9.025112,-28.973206,14.450341
0.8668177,-0.32759264,-4.3799176,-7.357961,-36.944324,16.116236
1.2381445,-0.10274262,-4.0352254,-6.206818,-43.478756,17.345646
1.6138085,0.133547,-3.579153,-5.360854,-47.995205,18.421272
1.9228958,0.35422528,-3.089654,-4.8921027,-50.643257,19.410389
2.153645,0.5561864,-2.606954,-4.956254,-51.650913,19.909885
2.3314567,0.7393074,-2.1341593,-5.3933964,-51.67048,20.148325
2.463451,0.8916583,-1.6991271,-6.0587707,-50.871235,20.162113
2.5633721,1.0007204,-1.3136227,-6.869799,-49.488457,19.977983
2.6438475,1.0568198,-0.9781025,-7.6579695,-47.60609,19.834208
2.7065756,1.0750158,-0.68722034,-8.257756,-45.09225,19.794638
2.750812,1.0499395,-0.45427486,-8.356058,-42.152298,19.501354
2.6619108,1.0160074,-0.43959352,-8.086005,-40.79001,18.871105
2.5760806,0.9832474,-0.42541933,-7.825281,-39.47478,18.262629
2.493197,0.9516121,-0.41173175,-7.5735083,-38.20471,17.675041
2.4131427,0.9210567,-0.3985114,-7.33033,-36.97799,17.107512
2.3358061,0.8915387,-0.38573992,-7.0954075,-35.79292,16.55925
2.261082,0.8630176,-0.3733998,-6.8684196,-34.647877,16.029507
2.1888695,0.8354553,-0.36147448,-6.649062,-33.54132,15.51757
2.1190732,0.80881524,-0.3499482,-6.437044,-32.471794,15.022763
2.0516024,0.78306276,-0.3388059,-6.23209,-31.437899,14.544441
1.9863704,0.7581648,-0.3280334,-6.033937,-30.438313,14.081992
1.9232948,0.73408985,-0.31761694,-5.8423343,-29.471767,13.6348295
1.8622967,0.7108079,-0.30754358,-5.657042,-28.537058,13.202395
1.803301,0.68829024,-0.2978009,-5.477833,-27.633032,12.784157
1.7462357,0.6665094,-0.28837705,-5.304487,-26.758589,12.379603
1.6910322,0.6454391,-0.2792606,-5.136797,-25.912672,11.988249
1.6376246,0.62505424,-0.27044076,-4.974562,-25.094275,11.609625
1.5859498,0.6053308,-0.26190707,-4.817591,-24.302433,11.243286
1.5359474,0.5862458,-0.25364956,-4.6657004,-23.536217,10.888804
1.4875596,0.5677769,-0.2456587,-4.5187144,-22.794743,10.545768
1.4407307,0.5499031,-0.23792528,-4.3764634,-22.077156,10.213783
1.3954073,0.5326039,-0.23044048,-4.238786,-21.382639,9.892472
1.3515383,0.51585984,-0.22319587,-4.105527,-20.71041,9.581471
1.3090744,0.4996521,-0.21618329,-3.9765356,-20.05971,9.280432
1.2679682,0.48396254,-0.20939492,-3.8516684,-19.429815,8.9890175
1.2281742,0.4687738,-0.20282325,-3.7307873,-18.820028,8.706905
1.1896485,0.45406917,-0.19646104,-3.6137588,-18.229677,8.4337845
1.152349,0.43983257,-0.19030131,-3.5004551,-17.658113,8.169356
1.1162349,0.42604846,-0.18433738,-3.3907528,-17.10472,7.9133334
1.0812674,0.41270187,-0.17856275,-3.2845328,-16.56889,7.665437
1.0474083,0.3997785,-0.17297122,-3.1816804,-16.050049,7.4254007
1.0146217,0.38726437,-0.16755676,-3.0820856,-15.547641,7.1929665
0.9828724,0.37514618,-0.16231361,-2.9856417,-15.061127,6.9678855
0.95212656,0.36341098,-0.15723617,-2.8922458,-14.58999,6.7499185
0.92235154,0.35204634,-0.15231906,-2.801799,-14.13373,6.538834
0.8935159,0.34104025,-0.14755708,-2.714206,-13.691864,6.334409
0.8655892,0.3303811,-0.14294522,-2.6293738,-13.263927,6.1364284
0.83854216,0.3200577,-0.1384786,-2.547214,-12.84947,5.9446836
0.81234646,0.31005922,-0.13415259,-2.46764,-12.448058,5.758974
0.7869747,0.30037525,-0.12996265,-2.390569,-12.059272,5.5791063
0.7624005,0.2909957,-0.12590441,-2.3159208,-11.682707,5.404892
0.73859835,0.28191078,-0.12197367,-2.2436175,-11.317972,5.236151
0.7155435,0.27311113,-0.11816635,-2.1735847,-10.96469,5.072708
0.69321215,0.2645876,-0.1144785,-2.1057494,-10.622494,4.9143944
0.6715812,0.25633144,-0.110906325,-2.0400417,-10.29103,4.761046
0.65062845,0.24833412,-0.10744614,-1.9763942,-9.969958,4.6125054
0.63033223,0.24058741,-0.104094386,-1.914741,-9.658948,4.4686193
0.6106718,0.23308337,-0.100847624,-1.8550192,-9.35768,4.329241
0.59162706,0.22581427,-0.097702526,-1.7971674,-9.0658455,4.1942263
0.57317835,0.21877271,-0.09465587,-1.7411264,-8.783146,4.063438
0.5553069,0.2119515,-0.09170455,-1.686839,-8.509292,3.936742
0.53799456,0.20534363,-0.08884554,-1.6342496,-8.244003,3.814009
0.5212235,0.19894241,-0.08607594,-1.5833048,-7.9870114,3.695114
0.50497675,0.19274129,-0.08339292,-1.5339526,-7.7380533,3.5799358
0.4892378,0.18673399,-0.08079375,-1.4861428,-7.496876,3.4683576
0.47399062,0.18091439,-0.0782758,-1.4398268,-7.263234,3.3602655
0.45921972,0.17527658,-0.0758365,-1.3949578,-7.0368915,3.2555501
0.44491014,0.16981485,-0.073473394,-1.35149,-6.8176174,3.154105
0.43104738,0.16452368,-0.07118407,-1.3093796,-6.6051903,3.0558279
0.4176174,0.15939768,-0.06896622,-1.2685838,-6.399395,2.9606185
0.40460664,0.15443169,-0.06681759,-1.2290612,-6.2000237,2.8683813
0.39200193,0.14962067,-0.064736016,-1.1907723,-6.006874,2.7790225
0.3797905,0.14495976,-0.0627194,-1.153678,-5.8197513,2.692452
0.36796007,0.14044428,-0.060765695,-1.1177411,-5.6384664,2.6085823
0.35649866,0.13606966,-0.058872934,-1.0829251,-5.4628367,2.5273287
0.34539473,0.13183147,-0.05703921,-1.049195,-5.292685,2.4486096
0.3346371,0.12772545,-0.055262674,-1.0165169,-5.1278396,2.3723454
0.32421494,0.12374748,-0.05354153,-0.9848578,-4.968134,2.2984595
0.3141177,0.119893536,-0.051874053,-0.9541857,-4.8134084,2.226877
0.30433527,0.116159745,-0.050258562,-0.92446995,-4.6635065,2.1575263
0.29485777,0.11254234,-0.048693426,-0.8956804,-4.518277,2.0903375
0.28567567,0.10903769,-0.04717708,-0.8677883,-4.377575,2.0252428
0.27677977,0.105642274,-0.045707993,-0.84076554,-4.2412577,1.9621772
0.26816112,0.10235267,-0.04428469,-0.81458485,-4.109189,1.9010768
0.25981104,0.09916559,-0.04290574,-0.7892201,-3.981236,1.8418806
0.25172114,0.09607781,-0.04156976,-0.7646457,-3.85727,1.7845289
0.24388334,0.09308624,-0.040275406,-0.740837,-3.7371664,1.7289641
0.23628971,0.090187885,-0.039021377,-0.71777004,-3.620805,1.6751306
0.22893266,0.08737982,-0.03780642,-0.6954218,-3.5080686,1.6229742
0.22180481,0.08465923,-0.03662931,-0.6737697,-3.3988445,1.5724427
0.214899,0.0820234,-0.03548887,-0.65279216,-3.2930226,1.5234852
0.20820831,0.07946967,-0.034383956,-0.632468,-3.1904972,1.4760528
0.201726,0.076995485,-0.033313453,-0.61277694,-3.091165,1.4300978
0.19544561,0.074598365,-0.0322763,-0.5936992,-2.994927,1.3855742
0.18936083,0.0722759,-0.031271443,-0.57521564,-2.9016864,1.3424373
0.18346556,0.07002577,-0.030297887,-0.5573077,-2.8113496,1.3006438
0.17775388,0.067845725,-0.029354649,-0.5399575,-2.7238262,1.260152
0.17222008,0.06573356,-0.028440785,-0.5231477,-2.6390285,1.2209212
0.16685861,0.063687176,-0.02755538,-0.5068613,-2.5568717,1.1829121
0.1616641,0.06170452,-0.026697548,-0.49108213,-2.4772732,1.1460866
0.15663135,0.0597836,-0.025866428,-0.4757943,-2.4001534,1.1104078
0.1517553,0.057922497,-0.02506119,-0.46098247,-2.325435,1.0758401
0.1470311,0.05611934,-0.024281023,-0.44663188,-2.2530432,1.0423487
0.142454,0.054372337,-0.02352515,-0.43272814,-2.1829054,1.0099002
0.1380194,0.052679725,-0.022792812,-0.4192573,-2.1149516,0.97846204
0.13372289,0.05103982,-0.022083277,-0.40620592,-2.0491138,0.9480027
0.12956014,0.049450967,-0.021395834,-0.39356092,-1.9853256,0.9184918
0.12552701,0.047911588,-0.020729793,-0.38130957,-1.9235235,0.8898997
0.12161945,0.046420135,-0.020084491,-0.3694397,-1.8636457,0.86219776
0.11783354,0.044975117,-0.019459277,-0.35793936,-1.805632,0.83535826
0.11416551,0.04357509,-0.01885353,-0.34679708,-1.7494246,0.8093544
0.11061167,0.042218648,-0.018266642,-0.3360017,-1.694967,0.7841602
0.10716847,0.040904436,-0.017698025,-0.3255424,-1.6422049,0.7597503
0.10383247,0.03963114,-0.01714711,-0.31540874,-1.5910854,0.7361004
0.100600325,0.038397484,-0.016613347,-0.30559054,-1.5415574,0.7131867
0.0974688,0.03720223,-0.016096203,-0.296078,-1.4935713,0.69098634
0.09443477,0.03604419,-0.015595155,-0.28686163,-1.447079,0.66947716
0.091495186,0.0349222,-0.015109707,-0.27793214,-1.402034,0.6486376
0.08864712,0.033835143,-0.01463937,-0.26928064,-1.3583914,0.6284467
0.08588771,0.03278192,-0.014183677,-0.26089847,-1.3161074,0.60888445
0.08321421,0.03176149,-0.013742168,-0.25277725,-1.2751398,0.58993113
0.080623925,0.030772822,-0.013314404,-0.24490884,-1.2354474,0.57156783
0.078114286,0.029814932,-0.012899957,-0.23728538,-1.1969907,0.5537762
0.07568277,0.028886862,-0.01249841,-0.22989923,-1.1597311,0.5365384
0.07332694,0.027987681,-0.012109364,-0.222743,-1.1236314,0.51983726
0.071044445,0.027116492,-0.011732428,-0.21580955,-1.0886555,0.50365597
0.06883301,0.026272422,-0.011367227,-0.20909193,-1.0547683,0.4879784
0.06669041,0.025454627,-0.011013393,-0.20258342,-1.0219359,0.47278884
0.064614505,0.02466229,-0.010670575,-0.19627751,-0.9901257,0.45807216
