ax,ay,az,gx,gy,gz
-0.7654615,5.4118676,-4.162765,39.61763,-38.2858,15.9801445
-0.87292314,6.3400884,-4.3749046,38.247963,-54.38905,3.8878202
-0.9682819,7.1534686,-3.993923,15.453145,-70.73832,-7.1715055
-0.7278118,7.6385627,-3.0830126,3.4073505,-75.81898,-16.786692
-0.43405756,8.216169,-2.3926299,-6.465609,-75.67179,-26.444578
-0.22122802,8.724526,-1.9634104,-16.021557,-75.27978,-38.774803
-0.096737295,9.076131,-1.5971136,-26.253166,-73.42964,-49.530903
-0.071385846,9.335488,-1.3182472,-37.396675,-70.00831,-58.50093
-0.14239523,9.542071,-1.1549779,-49.859837,-66.776276,-67.58276
-0.24483675,9.621523,-1.078781,-63.48341,-63.5986,-77.29309
-0.35277146,9.460574,-1.0656496,-75.35853,-59.926575,-86.36009
-0.51286376,9.1303,-1.1420115,-85.72452,-57.597977,-94.43737
-0.6313606,8.662264,-1.22843,-95.61557,-57.20316,-100.60615
-0.5354653,8.0392885,-1.314056,-103.62709,-57.390003,-104.7377
-0.17524129,7.275055,-1.402138,-109.75069,-57.086792,-108.538994
0.38739303,6.344022,-1.4706331,-113.28203,-55.758465,-111.53479
1.0582812,5.196754,-1.4473855,-114.19785,-53.160175,-112.35602
1.6356019,4.088137,-1.3979212,-113.39801,-49.720524,-110.36831
2.0369735,3.1005566,-1.3728923,-111.05148,-45.92865,-106.4288
2.2356856,2.2407472,-1.3975,-107.28404,-42.491398,-101.95905
2.2883627,1.4785316,-1.426275,-101.25676,-39.217632,-97.251015
2.235671,0.8567567,-1.4349271,-94.96955,-36.320904,-92.593796
2.1572673,0.31033912,-1.4137809,-88.53665,-33.84929,-87.715225
2.1043715,-0.16986272,-1.3457996,-81.82071,-31.574781,-82.06563
2.0971518,-0.56656015,-1.2158372,-74.8638,-29.21104,-75.63789
2.1370645,-0.8705716,-1.0314287,-67.90755,-26.341883,-68.6234
2.2562935,-1.071592,-0.7813738,-61.153496,-22.58892,-61.916817
2.4174595,-1.214352,-0.5191503,-55.13508,-17.851158,-55.553276
2.592968,-1.31558,-0.2618801,-49.76436,-12.077918,-48.93443
2.7515306,-1.3543835,-0.051286124,-45.64973,-5.640935,-41.81777
2.8716118,-1.347824,0.09293246,-42.131252,1.0561856,-34.100147
2.9196815,-1.2840307,0.12963678,-37.901207,7.246698,-26.950987
2.9162126,-1.1997058,0.112762585,-33.455624,13.117102,-21.018805
2.8814495,-1.1200026,0.06024604,-28.613914,18.918274,-15.844636
2.8169267,-1.0203903,-0.031841706,-23.814474,24.509945,-10.9414
2.7222295,-0.8900094,-0.16332467,-19.878883,29.626934,-6.112405
2.5865142,-0.72657865,-0.33884594,-16.82545,34.268383,-1.5043026
2.431366,-0.5463516,-0.5345289,-14.412954,38.50996,2.5641577
2.2601836,-0.35303465,-0.75031805,-12.337607,42.38273,5.787203
2.0566154,-0.1569313,-0.99478495,-10.525095,45.52421,8.061804
1.8213649,0.036223367,-1.2728522,-9.039103,47.347595,9.354353
1.5682458,0.20828876,-1.5816354,-7.521646,48.17795,10.124455
1.3147659,0.3727431,-1.9140269,-6.0127096,47.80607,10.419907
1.0744767,0.5375004,-2.2603464,-4.86636,46.00583,10.190159
0.8559842,0.6897019,-2.6046383,-4.20896,42.945038,9.617713
0.6649298,0.8195379,-2.9509685,-4.221784,38.250046,8.763848
0.5065385,0.9132992,-3.2988558,-4.4342027,32.623737,7.646054
0.35852483,0.98716646,-3.6660879,-4.6610074,25.827593,6.073359
0.23061892,1.0287218,-4.03918,-5.5779414,17.746899,4.2493997
0.13454643,1.024188,-4.396256,-6.5021467,8.8056345,2.5926075
0.05142396,1.0059353,-4.7716994,-7.1597905,-1.9323128,0.7821737
-0.033971436,0.9708989,-5.1531057,-8.44763,-14.065959,-1.4523082
-0.07776919,0.8804357,-5.46292,-9.454067,-26.594751,-3.7486398
-0.060214166,0.8043494,-5.683887,-9.4685,-38.944965,-6.3119416
0.050671175,0.77975714,-5.7855263,-9.154831,-50.858166,-9.388508
0.29644337,0.7597003,-5.718087,-8.669419,-61.36798,-11.868414
0.67047644,0.7474776,-5.444758,-7.972904,-70.848305,-12.848948
1.103292,0.80091447,-5.042381,-8.203694,-78.98796,-12.8479
1.5851578,0.8735416,-4.5560827,-9.305549,-85.03146,-13.108116
2.0698686,0.88779086,-4.0484004,-10.757919,-88.56996,-14.32728
2.499711,0.799121,-3.5662527,-11.929104,-89.19421,-15.303234
2.8233392,0.64888966,-3.1460807,-12.276239,-88.811874,-15.236552
3.096902,0.5620543,-2.745785,-12.068846,-88.409294,-14.602096
3.4082198,0.55750614,-2.3202696,-12.0615,-87.5286,-14.440261
3.7458174,0.5338739,-1.8827226,-11.973873,-85.07179,-14.82792
4.015347,0.47524676,-1.5134449,-11.266032,-80.605804,-15.110258
4.1185303,0.41877025,-1.2864347,-10.543092,-75.7281,-14.6690445
4.123632,0.37383056,-1.1450214,-10.002733,-71.04443,-13.651097
4.068361,0.33468103,-1.0584711,-9.638434,-66.43633,-12.353519
3.9645572,0.2960762,-1.012826,-9.391425,-61.674908,-10.961194
3.822343,0.25907594,-1.0049671,-9.374186,-56.640694,-9.514197
3.7008095,0.2508385,-0.9730135,-9.076128,-54.839767,-9.211688
3.5832932,0.2428733,-0.94211626,-8.787923,-53.098373,-8.919178
3.4696474,0.23517047,-0.9122367,-8.50921,-51.414337,-8.636303
3.3597326,0.2277205,-0.8833379,-8.239647,-49.785583,-8.362713
3.2534142,0.22051431,-0.85538477,-7.9789042,-48.210125,-8.098076
3.1505644,0.21354322,-0.82834363,-7.726668,-46.68606,-7.8420725
3.0510604,0.20679891,-0.80218214,-7.4826374,-45.211582,-7.594397
2.954785,0.20027342,-0.7768695,-7.246525,-43.784943,-7.3547583
2.8616257,0.19395913,-0.7523761,-7.018054,-42.404476,-7.1228747
2.7714741,0.18784873,-0.7286735,-6.7969604,-41.068584,-6.8984785
2.6842272,0.18193519,-0.70573467,-6.5829897,-39.77573,-6.681312
2.5997853,0.17621177,-0.68353325,-6.375898,-38.524445,-6.4711275
2.5180528,0.170672,-0.6620442,-6.1754518,-37.313305,-6.2676873
2.4389381,0.16530967,-0.6412435,-5.9814253,-36.14096,-6.070763
2.3623533,0.16011877,-0.6211078,-5.793603,-35.0061,-5.8801355
2.2882128,0.1550936,-0.6016149,-5.611776,-33.907467,-5.695593
2.2164357,0.15022857,-0.5827433,-5.4357443,-32.843845,-5.516932
2.1469429,0.14551839,-0.5644723,-5.265315,-31.81408,-5.3439574
2.0796587,0.14095794,-0.546782,-5.1003027,-30.817043,-5.1764803
2.0145106,0.13654223,-0.5296533,-4.940529,-29.851658,-5.01432
1.9514279,0.13226652,-0.5130677,-4.7858205,-28.916878,-4.8573008
1.8903432,0.12812623,-0.49700737,-4.636012,-28.011705,-4.7052546
1.831191,0.12411694,-0.4814551,-4.490943,-27.135168,-4.5580187
1.7739083,0.120234355,-0.4663944,-4.3504586,-26.286335,-4.4154367
1.7184343,0.116474375,-0.45180923,-4.2144103,-25.464306,-4.2773566
1.6647105,0.11283301,-0.43768424,-4.0826545,-24.66821,-4.1436324
1.6126803,0.10930643,-0.4240045,-3.955052,-23.89721,-4.014124
1.562289,0.10589094,-0.41075563,-3.8314686,-23.150494,-3.8886948
1.5134838,0.102582954,-0.3979238,-3.711775,-22.427282,-3.7672136
1.4662136,0.09937901,-0.38549557,-3.5958464,-21.726818,-3.6495535
1.4204293,0.09627579,-0.37345803,-3.483562,-21.048374,-3.535592
1.3760835,0.093270056,-0.36179867,-3.374805,-20.391243,-3.4252107
1.33313,0.09035869,-0.35050535,-3.2694628,-19.754744,-3.318295
1.2915244,0.08753869,-0.33956647,-3.1674263,-19.13822,-3.2147346
1.2512238,0.08480714,-0.32897067,-3.0685902,-18.54103,-3.1144223
1.2121867,0.08216123,-0.31870705,-2.9728527,-17.962566,-3.0172548
1.1743728,0.07959823,-0.30876508,-2.8801155,-17.40223,-2.9231324
1.1377435,0.07711552,-0.29913452,-2.790283,-16.859444,-2.8319583
1.1022611,0.07471055,-0.28980553,-2.7032635,-16.333654,-2.743639
1.0678893,0.07238085,-0.2807685,-2.6189678,-15.824324,-2.6580844
1.0345931,0.07012405,-0.2720143,-2.5373096,-15.330929,-2.5752065
1.0023383,0.06793784,-0.26353392,-2.4582057,-14.852967,-2.4949212
0.97109216,0.06582,-0.2553187,-2.3815756,-14.389953,-2.4171464
0.9408229,0.063768364,-0.24736032,-2.3073409,-13.941412,-2.341803
0.91149956,0.061780855,-0.23965067,-2.2354264,-13.50689,-2.2688143
0.8830925,0.059855442,-0.2321819,-2.1657588,-13.085945,-2.1981063
0.8555729,0.057990175,-0.22494645,-2.0982676,-12.67815,-2.1296072
0.8289127,0.056183167,-0.217937,-2.0328844,-12.283092,-2.0632472
0.80308497,0.054432582,-0.21114638,-1.9695426,-11.900368,-1.9989594
0.77806354,0.052736647,-0.20456779,-1.9081783,-11.5295925,-1.9366786
0.75382316,0.05109365,-0.19819452,-1.8487295,-11.170391,-1.8763419
0.7303393,0.049501926,-0.19202016,-1.791136,-10.822399,-1.8178881
0.7075882,0.04795987,-0.18603846,-1.7353395,-10.485267,-1.7612584
0.6855469,0.046465926,-0.18024337,-1.6812838,-10.158651,-1.7063953
0.6641931,0.04501858,-0.17462906,-1.6289144,-9.842224,-1.6532437
0.6435054,0.04361638,-0.16918987,-1.5781783,-9.535667,-1.6017498
0.62346286,0.04225791,-0.1639203,-1.5290245,-9.23867,-1.5518619
0.6040453,0.040941797,-0.15881504,-1.4814035,-8.950934,-1.5035295
0.5852331,0.03966672,-0.15386897,-1.4352672,-8.67217,-1.4567041
0.5670074,0.038431395,-0.14907709,-1.3905692,-8.402096,-1.4113387
0.5493499,0.037234582,-0.14443459,-1.3472646,-8.140441,-1.3673873
0.5322427,0.03607507,-0.13993679,-1.3053099,-7.886942,-1.3248059
0.51566875,0.034951698,-0.13557918,-1.2646627,-7.6413436,-1.2835516
0.49961135,0.033863336,-0.13135737,-1.2252823,-7.4033995,-1.243583
0.4840543,0.03280889,-0.12726712,-1.1871291,-7.17287,-1.20486
0.468982,0.0317873,-0.12330434,-1.1501648,-6.9495244,-1.1673435
0.45437935,0.030797541,-0.11946502,-1.1143522,-6.7331376,-1.1309961
0.44023168,0.02983862,-0.11574532,-1.0796554,-6.523493,-1.0957811
0.42652476,0.028909573,-0.11214151,-1.0460396,-6.3203793,-1.0616632
0.41324484,0.028009469,-0.10864997,-1.013471,-6.1235933,-1.0286081
0.4003786,0.027137404,-0.10526719,-0.98191696,-5.932937,-0.99658275
0.38791317,0.026292503,-0.10198978,-0.9513458,-5.7482204,-0.96555495
0.37583598,0.02547392,-0.098814465,-0.9217269,-5.569257,-0.93549365
0.36413497,0.024680834,-0.095738046,-0.8930305,-5.395868,-0.9063687
0.3527984,0.023912448,-0.09275745,-0.8652279,-5.227879,-0.8781508
0.3418149,0.023167996,-0.08986968,-0.83829117,-5.065122,-0.8508118
0.33117348,0.022446726,-0.08707184,-0.8121934,-4.907434,-0.8243242
0.32086346,0.021747919,-0.084361136,-0.7869083,-4.754657,-0.79866153
0.3108745,0.021070873,-0.08173485,-0.7624107,-4.606637,-0.773798
0.3011966,0.020414911,-0.07919034,-0.73867595,-4.463227,-0.7497087
0.29182008,0.019779377,-0.07672507,-0.7156803,-4.3242826,-0.72636956
0.28273553,0.01916363,-0.07433657,-0.6934007,-4.1896644,-0.7037572
0.27393383,0.01856706,-0.072022445,-0.6718148,-4.0592384,-0.68184894
0.26540622,0.017989062,-0.06978037,-0.6509011,-3.9328735,-0.66062284
0.25714412,0.017429063,-0.0676081,-0.63063854,-3.8104432,-0.6400577
0.24913928,0.0168865,-0.06550348,-0.61100686,-3.691825,-0.6201328
0.24138367,0.01636083,-0.06346438,-0.5919865,-3.5769,-0.6008283
0.23386954,0.015851526,-0.061488774,-0.5735583,-3.465553,-0.5821249
0.22658935,0.01535808,-0.05957467,-0.5557038,-3.357673,-0.56400377
0.21953583,0.014879997,-0.057720166,-0.53840524,-3.2531517,-0.5464468
0.2127019,0.014416798,-0.0559234,-0.52164525,-3.1518843,-0.52943647
0.20608075,0.01396802,-0.054182567,-0.50540704,-3.0537698,-0.5129558
0.19966573,0.013533214,-0.052495934,-0.4896744,-2.95871,-0.49698812
0.1934504,0.013111944,-0.05086181,-0.47443154,-2.8666096,-0.48151758
0.1874286,0.012703789,-0.04927856,-0.4596632,-2.7773764,-0.46652868
0.18159425,0.012308341,-0.047744602,-0.44535464,-2.6909213,-0.4520064
0.17594154,0.011925204,-0.046258394,-0.43149152,-2.6071575,-0.43793625
0.1704648,0.011553994,-0.044818453,-0.41806,-2.5260015,-0.4243041
0.16515855,0.011194341,-0.043423343,-0.40504658,-2.447372,-0.4110963
0.1600175,0.010845884,-0.042071663,-0.3924383,-2.3711903,-0.39829972
0.1550365,0.010508274,-0.04076206,-0.38022253,-2.29738,-0.38590148
0.15021054,0.010181174,-0.03949322,-0.368387,-2.2258675,-0.37388918
0.14553483,0.009864257,-0.038263887,-0.35691994,-2.1565812,-0.36225086
0.14100465,0.009557205,-0.03707282,-0.34580985,-2.0894518,-0.35097483
0.13661551,0.009259711,-0.03591883,-0.3350456,-2.0244122,-0.3400498
0.132363,0.008971479,-0.034800764,-0.32461643,-1.9613969,-0.32946485
0.12824287,0.008692219,-0.033717502,-0.31451192,-1.9003435,-0.31920943
0.124250986,0.008421652,-0.03266796,-0.30472195,-1.8411906,-0.30927324
0.120383374,0.008159507,-0.03165109,-0.29523674,-1.783879,-0.29964635
