ax,ay,az,gx,gy,gz
-1.9791089,1.7181975,-4.1236734,47.108612,-32.793026,3.1627562
-1.7222414,2.2036233,-3.953254,56.85588,-32.377533,6.599629
-1.7748394,3.534219,-3.929904,54.892685,-41.63865,4.4077144
-1.6894408,4.874732,-3.637872,46.84863,-52.946644,-2.3342178
-1.3004601,6.0485697,-3.1343675,32.595184,-60.60009,-12.880674
-0.78835815,6.8411717,-2.639492,14.726711,-64.26799,-24.960663
-0.3302953,7.28874,-2.2183764,-4.362447,-63.745613,-36.15524
-0.13246042,7.545382,-1.9125844,-20.580929,-61.77899,-45.287457
-0.1944674,7.7428703,-1.7464666,-35.778694,-60.734676,-53.885464
-0.38960376,7.7530704,-1.6728686,-49.642902,-60.684486,-62.709244
-0.59521943,7.590485,-1.6503083,-60.47478,-60.631836,-71.57662
-0.7418332,7.3356023,-1.7067981,-68.547356,-62.038986,-81.26932
-0.6628025,6.861049,-1.7364758,-75.03014,-63.279644,-90.52426
-0.37919152,6.199052,-1.7519803,-79.51011,-63.89009,-99.09668
0.13710773,5.357565,-1.7380548,-82.05724,-63.563118,-106.1187
0.879877,4.3810067,-1.6694798,-82.72107,-62.017952,-110.32169
1.7558485,3.3387766,-1.5341477,-81.03564,-58.000996,-109.27968
2.5674791,2.334743,-1.3322495,-78.57453,-52.18309,-103.875946
3.163201,1.479032,-1.1353362,-75.910904,-45.617756,-95.3008
3.5166519,0.7964293,-0.9708036,-72.93934,-39.010834,-85.25487
3.680992,0.2476119,-0.8332529,-69.44962,-32.342667,-75.13429
3.7445111,-0.18662067,-0.7040745,-65.35465,-24.548035,-65.18554
3.748002,-0.48037648,-0.60450065,-61.222057,-16.18887,-55.45638
3.7190015,-0.6731731,-0.5484254,-58.288692,-7.454006,-45.75956
3.6550345,-0.81109697,-0.5247137,-53.67298,1.6938615,-36.187733
3.5057833,-0.836152,-0.5751229,-48.40171,10.344901,-27.126434
3.2815578,-0.77306217,-0.68066096,-42.63861,17.612646,-18.998703
3.0221863,-0.6247292,-0.7995689,-37.644375,24.0621,-11.988384
2.7813652,-0.44615486,-0.9275303,-33.6603,30.11998,-6.288904
2.528884,-0.26496565,-1.0913447,-31.20932,35.5282,-1.8427364
2.2602718,-0.12717965,-1.299813,-29.24442,40.222034,1.6890339
1.9607482,-0.018613843,-1.564666,-27.1505,43.64179,4.458902
1.6199023,0.082102716,-1.8862054,-24.47862,44.941227,6.256554
1.2738184,0.17844212,-2.2167203,-21.41444,44.589336,7.3544536
0.9612023,0.28114396,-2.5476458,-18.146133,42.84349,7.855798
0.6761747,0.39372897,-2.89202,-15.51728,39.4158,7.8517833
0.41008782,0.48708478,-3.2600687,-13.674563,33.14641,7.4578714
0.1453074,0.5475487,-3.6541486,-11.466485,24.91192,6.832464
-0.121249855,0.6024784,-4.071533,-9.157203,14.504846,6.0093436
-0.3887191,0.6600519,-4.515641,-8.074703,2.052205,4.912505
-0.628809,0.6950609,-4.9763713,-8.188943,-12.891974,3.6363826
-0.76469535,0.6814636,-5.375818,-8.597982,-29.752012,3.1140504
-0.69223505,0.6575864,-5.62229,-8.646025,-45.93355,3.038057
-0.4308729,0.6434928,-5.69081,-7.6909356,-59.67108,1.9406509
-0.02220646,0.62783015,-5.61658,-4.8560724,-69.79142,-0.7762841
0.4822303,0.6219633,-5.4051065,-1.5101058,-77.13959,-3.4259543
1.0324413,0.6497154,-5.081792,1.0679294,-82.54356,-4.523253
1.5635625,0.69667894,-4.66412,1.548376,-86.105644,-3.4344592
2.0295453,0.72024906,-4.2184343,0.85256505,-87.87707,-1.6837994
2.4244127,0.7299034,-3.7776945,0.09525446,-87.70371,-0.15332204
2.7307775,0.7404633,-3.3907516,-0.3114378,-86.174324,0.68761134
2.9601798,0.74501216,-3.0696073,0.29305813,-84.03394,0.59489316
3.142009,0.75513417,-2.7867286,1.0744164,-81.67316,0.32219404
3.2958155,0.763911,-2.5262575,1.8304636,-78.8753,0.043479472
3.400803,0.76460963,-2.3032336,2.4370818,-75.60725,-0.20867094
3.4537437,0.74822086,-2.120959,2.9146092,-71.72228,-0.48579448
3.4507928,0.7157578,-1.978214,3.3185277,-67.10789,-0.47182584
3.38332,0.6919726,-1.8824775,3.631819,-62.396202,-0.030315584
3.2779505,0.67609614,-1.819573,3.7424765,-57.863266,0.6785252
3.143752,0.6551487,-1.7832031,3.9366927,-53.622604,1.5510684
3.041636,0.6338679,-1.7252806,3.80882,-51.88082,1.5006862
2.9430945,0.6133322,-1.6693858,3.6854236,-50.20001,1.4520676
2.8479788,0.5935104,-1.6154343,3.5663173,-48.577637,1.4051394
2.756149,0.5743733,-1.5633464,3.4513254,-47.011303,1.3598323
2.667472,0.55589324,-1.5130469,3.3402815,-45.49875,1.3160807
2.581822,0.53804404,-1.4644643,3.233028,-44.037827,1.2738224
2.4990795,0.52080077,-1.4175311,3.129416,-42.6265,1.232999
2.419132,0.50413996,-1.3721832,3.0293036,-41.262844,1.1935544
2.341872,0.4880392,-1.3283596,2.9325562,-39.945026,1.1554357
2.267197,0.47247714,-1.2860023,2.839046,-38.671307,1.1185925
2.19501,0.45743358,-1.2450563,2.7486515,-37.44002,1.0829767
2.1252182,0.44288918,-1.205469,2.6612566,-36.24959,1.0485429
2.0577335,0.4288256,-1.1671903,2.5767503,-35.098515,1.0152471
1.9924717,0.4152252,-1.1301724,2.4950278,-33.98535,0.9830482
1.9293522,0.4020713,-1.0943696,2.4159877,-32.90873,0.9519062
1.868298,0.3893478,-1.0597384,2.339534,-31.867336,0.9217832
1.8092357,0.37703937,-1.026237,2.2655747,-30.859917,0.892643
1.7520949,0.3651314,-0.9938255,2.1940212,-29.885273,0.86445075
1.696808,0.35360977,-0.9624656,2.1247895,-28.942251,0.8371732
1.6433104,0.34246105,-0.9321207,2.0577984,-28.029749,0.81077856
1.5915403,0.33167228,-0.90275556,1.9929703,-27.146711,0.7852361
1.541438,0.32123113,-0.8743365,1.930231,-26.292124,0.76051664
1.4929466,0.31112567,-0.8468311,1.8695086,-25.465012,0.7365919
1.4460112,0.30134445,-0.8202083,1.8107349,-24.664438,0.7134348
1.400579,0.29187652,-0.79443824,1.7538434,-23.889507,0.6910194
1.3565995,0.28271133,-0.7694921,1.698771,-23.139355,0.66932076
1.3140239,0.27383867,-0.74534225,1.6454567,-22.413147,0.6483147
1.2728051,0.26524884,-0.72196215,1.5938416,-21.710085,0.6279782
1.2328984,0.25693238,-0.6993262,1.5438691,-21.0294,0.60828894
1.19426,0.24888025,-0.6774097,1.4954851,-20.37035,0.5892255
1.1568482,0.24108374,-0.6561889,1.448637,-19.73222,0.57076716
1.1206224,0.23353441,-0.6356409,1.4032742,-19.114323,0.5528941
1.0855441,0.22622417,-0.6157437,1.359348,-18.515995,0.5355871
1.0515754,0.21914521,-0.59647596,1.3168116,-17.936596,0.5188276
1.0186805,0.21228999,-0.5778172,1.2756195,-17.37551,0.5025978
0.9868241,0.20565122,-0.55974764,1.2357281,-16.83214,0.4868805
0.9559728,0.19922191,-0.54224813,1.1970954,-16.305914,0.47165906
0.92609406,0.19299527,-0.52530026,1.1596804,-15.796275,0.45691743
0.8971564,0.18696475,-0.5088862,1.1234438,-15.30269,0.44264016
0.86912966,0.18112405,-0.49298882,1.0883479,-14.82464,0.42881227
0.8419844,0.17546706,-0.47759148,1.054356,-14.361627,0.4154193
0.8156925,0.1699879,-0.46267813,1.0214325,-13.913169,0.40244737
0.7902265,0.16468087,-0.4482333,0.9895433,-13.478799,0.38988295
0.76556015,0.15954047,-0.434242,0.95865536,-13.058067,0.37771302
0.7416678,0.15456139,-0.42068976,0.92873675,-12.650538,0.36592498
0.7185249,0.14973846,-0.4075626,0.89975655,-12.255793,0.3545067
0.6961075,0.14506675,-0.39484698,0.8716849,-11.873422,0.3434464
0.67439264,0.14054143,-0.38252985,0.8444929,-11.503034,0.33273268
0.6533579,0.13615787,-0.37059852,0.8181527,-11.144248,0.32235456
0.6329819,0.13191156,-0.3590408,0.7926373,-10.796697,0.3123014
0.61324364,0.12779817,-0.34784484,0.7679205,-10.460023,0.30256292
0.594123,0.12381348,-0.3369992,0.7439771,-10.133885,0.29312915
0.57560045,0.11995344,-0.32649285,0.7207827,-9.817948,0.28399047
0.5576571,0.116214104,-0.316315,0.69831353,-9.511891,0.27513757
0.54027474,0.11259166,-0.30645534,0.6765469,-9.215402,0.26656145
0.52343565,0.10908244,-0.29690382,0.6554604,-8.928179,0.25825334
0.50712264,0.105682865,-0.28765076,0.6350329,-8.64993,0.2502048
0.49131927,0.102389485,-0.27868676,0.61524343,-8.380374,0.24240772
0.47600946,0.09919897,-0.2700027,0.5960721,-8.119236,0.23485415
0.4611777,0.09610807,-0.2615898,0.57749933,-7.8662524,0.22753642
0.44680896,0.09311367,-0.25343955,0.5595064,-7.621167,0.22044717
0.43288875,0.09021273,-0.2455437,0.54207516,-7.3837314,0.2135792
0.41940293,0.08740234,-0.23789428,0.52518785,-7.1537056,0.20692556
0.40633795,0.084679626,-0.23048353,0.5088275,-6.9308577,0.20047952
0.39368054,0.08204186,-0.22330399,0.49297756,-6.714962,0.1942346
0.381418,0.079486385,-0.21634841,0.47762206,-6.5058007,0.18818448
0.3695379,0.07701061,-0.20960976,0.4627455,-6.3031635,0.18232307
0.35802832,0.074612044,-0.20308128,0.44833288,-6.106846,0.17664446
0.3468776,0.07228827,-0.19675636,0.43436965,-5.91665,0.1711429
0.3360746,0.07003695,-0.19062866,0.4208418,-5.7323837,0.1658129
0.32560834,0.06785582,-0.184692,0.4077357,-5.5538626,0.16064906
0.31546837,0.06574268,-0.17894039,0.39503816,-5.380906,0.15564619
0.30564448,0.06369541,-0.17336805,0.38273638,-5.213341,0.15079926
0.29612675,0.06171194,-0.16796939,0.37081802,-5.050998,0.14610338
0.28690565,0.059790287,-0.162739,0.3592711,-4.8937154,0.14155386
0.2779719,0.05792852,-0.15767157,0.34808403,-4.741333,0.13714612
0.26931652,0.05612477,-0.15276207,0.33724552,-4.5936995,0.13287573
0.26093084,0.054377217,-0.14800553,0.32674474,-4.450666,0.12873839
0.25280643,0.05268411,-0.14339718,0.31657112,-4.3120885,0.124729946
0.24493511,0.051043753,-0.1389324,0.30671445,-4.177829,0.12084639
0.23730901,0.0494545,-0.13460672,0.29716486,-4.0477514,0.11708382
0.22992049,0.04791475,-0.1304158,0.28791273,-3.9217262,0.11343846
0.22276211,0.046422966,-0.12635541,0.2789488,-3.7996266,0.10990664
0.21582669,0.044977646,-0.122421496,0.27026412,-3.68133,0.106484845
0.20910731,0.043577343,-0.118610114,0.2618499,-3.5667183,0.10316963
0.2025972,0.042220656,-0.11491744,0.25369775,-3.455676,0.09995766
0.19628984,0.04090622,-0.11133978,0.24579951,-3.3480923,0.09684572
0.19017892,0.039632723,-0.10787353,0.23814726,-3.243859,0.09383071
0.1842583,0.038398884,-0.10451523,0.23073329,-3.1428719,0.09090959
0.17852207,0.037203472,-0.10126152,0.22355023,-3.0450294,0.08807944
0.17296445,0.036045283,-0.09810912,0.21659084,-2.950234,0.08533742
0.16757992,0.03492316,-0.095054895,0.20984817,-2.8583906,0.082680784
0.16236304,0.033835977,-0.09209577,0.20331545,-2.7694068,0.08010688
0.15730861,0.032782648,-0.08922879,0.19698615,-2.683194,0.077613115
0.15241155,0.03176212,-0.086451076,0.19085392,-2.5996656,0.075197004
0.14766699,0.030773364,-0.08375986,0.18491265,-2.518738,0.07285612
0.14307015,0.029815394,-0.08115243,0.17915635,-2.4403303,0.07058813
0.13861643,0.028887253,-0.078626186,0.17357929,-2.3643637,0.06839075
0.13430138,0.02798801,-0.0761786,0.16817586,-2.2907624,0.06626178
0.13012068,0.027116764,-0.07380722,0.16294068,-2.2194526,0.0641991
0.12607013,0.026272643,-0.07150966,0.15786847,-2.1503632,0.06220064
0.1221457,0.025454802,-0.06928364,0.15295419,-2.0834246,0.060264397
0.11834345,0.024662426,-0.06712692,0.14819291,-2.01857,0.058388438
0.11465957,0.023894716,-0.06503735,0.14357986,-1.9557345,0.056570884
0.111090384,0.023150908,-0.06301283,0.13911042,-1.8948553,0.054809913
0.10763231,0.022430256,-0.061051335,0.13478012,-1.8358713,0.053103764
0.104281895,0.021732038,-0.05915091,0.13058464,-1.7787237,0.05145073
0.10103578,0.021055557,-0.057309642,0.12651977,-1.7233552,0.04984916
0.09789072,0.020400137,-0.0555257,0.122581445,-1.6697103,0.048297446
0.094843574,0.01976512,-0.053797293,0.11876572,-1.6177354,0.04679404
0.09189128,0.019149872,-0.05212269,0.11506878,-1.5673785,0.045337435
0.0890309,0.018553777,-0.050500218,0.11148693,-1.5185894,0.043926176
0.08625956,0.017976237,-0.048928257,0.10801658,-1.471319,0.04255885
0.08357449,0.017416677,-0.047405228,0.10465427,-1.4255201,0.041234087
0.08097301,0.016874535,-0.045929614,0.10139662,-1.3811469,0.039950565
0.078452505,0.016349271,-0.04449993,0.09824038,-1.338155,0.038706996
0.076010466,0.015840357,-0.043114755,0.0951824,-1.2965014,0.03750214
0.07364445,0.015347286,-0.0417727,0.0922196,-1.2561445,0.03633479
0.07135208,0.014869563,-0.04047242,0.08934903,-1.2170439,0.03520378
0.06913108,0.014406712,-0.039212618,0.08656783,-1.1791605,0.034107976
