ax,ay,az,gx,gy,gz
-1.2963754,4.493677,-1.530923,29.74118,16.479242,-35.789417
-1.715964,5.881779,-1.4218488,33.862534,14.0367565,-51.104294
-2.180365,7.110851,-1.1911572,30.217373,4.806247,-59.67876
-2.5403876,8.250711,-0.8478984,22.34182,-4.4987063,-66.46562
-2.8757346,9.239873,-0.56359786,10.503186,-14.23275,-74.13722
-3.106968,9.958947,-0.39668506,-2.6488237,-24.806273,-84.57464
-3.1532161,10.412257,-0.33250275,-15.111365,-32.547047,-96.25948
-3.1105883,10.613792,-0.41336828,-27.739464,-39.678192,-109.15963
-2.9588604,10.539502,-0.53901833,-40.821777,-45.318096,-121.49407
-2.7456596,10.130747,-0.7492773,-53.43857,-51.11615,-132.50209
-2.3355598,9.412551,-1.0141532,-64.07581,-57.780003,-142.31744
-1.3201104,8.177411,-1.2244399,-72.83718,-63.79737,-150.05396
0.19047412,6.6199856,-1.253986,-80.16998,-68.30742,-152.91887
1.980254,4.9055448,-1.0366508,-85.2492,-68.15094,-148.70143
3.6159067,3.2675025,-0.7248397,-86.497375,-62.336277,-139.31946
4.816812,1.8730989,-0.44233713,-82.65442,-50.77141,-127.07563
5.3439155,0.8671044,-0.2739516,-75.99041,-38.671993,-114.723274
5.4725885,0.12712055,-0.16615489,-69.28854,-27.9951,-101.721054
5.4012294,-0.38999283,-0.07646687,-63.144165,-18.162289,-88.03855
5.20245,-0.69977444,-0.03186759,-58.406002,-9.556123,-74.61829
4.9511614,-0.8789387,-0.014195931,-56.02845,-2.8078752,-60.8089
4.714359,-0.9495183,-0.0045333966,-53.91591,2.9662573,-47.292736
4.4998784,-0.9479852,-0.0088772345,-51.15824,8.446869,-35.42075
4.323933,-0.9148427,-0.024090061,-46.8293,14.544137,-26.004364
4.176433,-0.8424963,-0.053558055,-41.28746,21.411879,-18.91006
4.04267,-0.7260826,-0.09192924,-35.28081,29.223352,-13.119273
3.8822079,-0.5367398,-0.17482737,-30.193697,36.48752,-7.5789876
3.7094915,-0.31286985,-0.29029584,-26.335232,42.914803,-2.2206187
3.5196447,-0.078693986,-0.4444949,-23.77391,48.35796,2.466827
3.3111286,0.13708325,-0.6258677,-21.732454,53.035114,6.512573
3.1155207,0.34208363,-0.8339832,-20.4962,56.81936,9.27364
2.9315035,0.5096379,-1.0784847,-19.245003,60.000862,11.4493
2.7578735,0.656048,-1.3526468,-17.905672,62.504482,13.174819
2.5777223,0.7893508,-1.6574134,-17.09427,64.293655,14.490732
2.3848777,0.8997455,-2.0001953,-16.861794,64.92559,15.376224
2.1814992,0.9809323,-2.372131,-16.99914,63.61214,15.7715645
1.9570802,1.0298014,-2.7938833,-16.820196,60.702915,15.5997925
1.721562,1.0742809,-3.2475777,-16.29198,55.6584,14.747655
1.4710332,1.1206841,-3.7243679,-15.800463,47.978737,13.133574
1.2380716,1.1545922,-4.186253,-15.19371,38.263557,11.207123
1.0259039,1.1881696,-4.6457295,-14.157442,26.125233,8.923013
0.8246708,1.2291282,-5.10905,-13.10662,12.831163,6.6280904
0.609545,1.3084579,-5.594583,-13.454445,-2.3730178,3.7531748
0.39832643,1.4211307,-6.0726886,-14.140227,-19.093565,-0.3036363
0.23181558,1.567675,-6.5158463,-14.689944,-36.818718,-5.646541
0.20280582,1.7353545,-6.866096,-14.202787,-54.046825,-12.311658
0.46337348,1.8478988,-7.0983505,-13.784185,-70.19985,-19.451815
1.0340424,1.823105,-7.1616178,-13.280001,-84.451225,-25.787008
1.8345771,1.6956908,-6.983692,-12.456826,-95.91177,-28.913668
2.6961732,1.5882239,-6.6085153,-11.438509,-103.95661,-29.034277
3.455942,1.5562766,-6.134495,-10.155203,-107.66154,-28.036514
4.0584784,1.5978503,-5.6229963,-9.53578,-109.25741,-27.22665
4.580082,1.6101826,-5.103114,-9.828935,-109.18387,-26.166185
5.0087023,1.5709598,-4.59815,-10.864272,-107.50314,-24.06757
5.303449,1.5151079,-4.1525445,-12.378726,-104.69802,-21.029943
5.441908,1.4657342,-3.7850893,-14.0489025,-101.21261,-18.106153
5.4377675,1.4125049,-3.490353,-15.270817,-97.57734,-15.682353
5.368559,1.3655905,-3.23373,-16.220547,-93.83336,-13.694176
5.257105,1.3289486,-3.013187,-17.036581,-90.08592,-12.070332
5.118765,1.2914264,-2.823998,-17.754011,-86.35634,-10.57777
4.9652286,1.248536,-2.665582,-18.059572,-82.56994,-9.163596
4.805761,1.2110347,-2.5507138,-17.986626,-78.98132,-8.111369
4.645955,1.1728334,-2.4600706,-17.819553,-75.71669,-7.4488025
4.4953775,1.127923,-2.3816833,-17.589378,-72.619934,-6.8602934
4.354603,1.0788597,-2.3116822,-17.153051,-69.76894,-6.3351994
4.2147803,1.0442185,-2.2374563,-16.602282,-67.528725,-6.131782
4.079705,1.0107534,-2.1657503,-16.070211,-65.36456,-5.935271
3.9491923,0.9784186,-2.0964663,-15.556113,-63.273502,-5.7453966
3.8230662,0.94717073,-2.0295112,-15.059296,-61.252728,-5.5619054
3.7011607,0.9169684,-1.9647963,-14.579102,-59.29957,-5.3845534
3.5833166,0.8877723,-1.9022377,-14.114906,-57.411484,-5.2131104
3.4693828,0.85954505,-1.8417548,-13.666114,-55.58605,-5.047356
3.3592153,0.8322509,-1.7832713,-13.232158,-53.820957,-4.8870816
3.2526765,0.8058557,-1.7267143,-12.812494,-52.114006,-4.7320857
3.1496348,0.780327,-1.6720136,-12.406608,-50.463085,-4.582178
3.049965,0.75563365,-1.619103,-12.014002,-48.866188,-4.4371753
2.9535468,0.7317459,-1.5679184,-11.634204,-47.321384,-4.2969036
2.8602653,0.7086353,-1.518399,-11.266763,-45.82684,-4.161195
2.7700105,0.68627447,-1.4704864,-10.9112425,-44.380787,-4.0298896
2.6826766,0.6646374,-1.4241244,-10.567229,-42.981533,-3.902834
2.5981627,0.64369893,-1.3792593,-10.234324,-41.62746,-3.7798805
2.5163715,0.623435,-1.3358397,-9.912144,-40.317013,-3.6608887
2.43721,0.60382265,-1.2938162,-9.600322,-39.0487,-3.5457222
2.3605888,0.5848396,-1.253141,-9.298506,-37.82108,-3.4342515
2.2864215,0.56646454,-1.2137686,-9.006356,-36.632782,-3.326351
2.2146256,0.548677,-1.1756551,-8.723548,-35.482475,-3.2219002
2.1451216,0.5314573,-1.1387582,-8.449767,-34.368893,-3.1207838
2.077833,0.51478636,-1.1030374,-8.184713,-33.2908,-3.02289
2.0126858,0.49864608,-1.0684534,-7.9280944,-32.247017,-2.9281123
1.9496093,0.4830188,-1.0349686,-7.679632,-31.236414,-2.8363469
1.888535,0.46788755,-1.0025468,-7.439057,-30.25789,-2.7474942
1.8293972,0.45323604,-0.9711529,-7.2061095,-29.31039,-2.661459
1.7721323,0.4390486,-0.9407533,-6.9805393,-28.392899,-2.5781484
1.7166791,0.42530996,-0.91131544,-6.762106,-27.504435,-2.4974735
1.6629785,0.41200557,-0.88280797,-6.5505757,-26.64405,-2.4193482
1.6109737,0.39912128,-0.8552007,-6.3457255,-25.810833,-2.3436902
1.5606095,0.38664347,-0.8284644,-6.1473374,-25.003904,-2.270419
1.5118328,0.374559,-0.8025709,-5.9552035,-24.222412,-2.1994574
1.4645927,0.36285517,-0.77749294,-5.7691216,-23.465534,-2.1307309
1.4188395,0.3515197,-0.7532044,-5.5888968,-22.732481,-2.0641677
1.3745253,0.34054083,-0.7296798,-5.4143405,-22.022486,-1.9996984
1.3316042,0.32990703,-0.70689476,-5.2452717,-21.334808,-1.9372555
1.2900314,0.31960732,-0.6848255,-5.081514,-20.668734,-1.8767743
1.249764,0.309631,-0.6634491,-4.922898,-20.023575,-1.818192
1.2107601,0.29996774,-0.6427435,-4.7692595,-19.398659,-1.7614481
1.1729797,0.29060757,-0.62268746,-4.62044,-18.793344,-1.7064841
1.1363838,0.28154087,-0.6032601,-4.476286,-18.207008,-1.6532433
1.1009345,0.27275828,-0.5844416,-4.3366494,-17.639046,-1.6016707
1.0665958,0.2642508,-0.56621253,-4.201387,-17.088875,-1.5517138
1.0333322,0.2560097,-0.54855424,-4.07036,-16.55593,-1.503321
1.00111,0.24802656,-0.5314487,-3.943434,-16.039667,-1.4564431
0.9698958,0.24029322,-0.5148784,-3.8204796,-15.539558,-1.4110318
0.93965805,0.23280177,-0.4988264,-3.7013714,-15.055093,-1.3670411
0.9103659,0.22554459,-0.48327637,-3.5859876,-14.585776,-1.324426
0.8819894,0.21851426,-0.46821246,-3.474211,-14.131132,-1.2831432
0.8544998,0.21170367,-0.45361936,-3.365928,-13.690698,-1.2431506
0.8278692,0.2051059,-0.4394822,-3.261028,-13.264024,-1.2044076
0.80207044,0.19871421,-0.4257867,-3.1594052,-12.850679,-1.1668748
0.7770774,0.19252215,-0.41251892,-3.0609562,-12.450244,-1.1305143
0.7528648,0.18652344,-0.39966545,-2.9655812,-12.062313,-1.095289
0.7294081,0.18071201,-0.38721323,-2.8731837,-11.686492,-1.0611635
0.7066836,0.17508197,-0.3751497,-2.7836704,-11.322402,-1.0281032
0.68466824,0.16962764,-0.36346263,-2.6969507,-10.969675,-0.99607474
0.6633398,0.16434349,-0.35214025,-2.6129367,-10.627954,-0.9650456
0.64267683,0.1592242,-0.34117112,-2.531544,-10.296894,-0.9349845
0.62265843,0.15426461,-0.33054414,-2.4526901,-9.976161,-0.90586114
0.6032644,0.1494597,-0.32024863,-2.3762958,-9.665432,-0.87764615
0.58447516,0.14480464,-0.3102742,-2.302284,-9.364393,-0.85031104
0.56627184,0.14029475,-0.3006108,-2.23058,-9.072742,-0.82382834
0.5486361,0.13592546,-0.29124868,-2.1611116,-8.790184,-0.79817134
0.5315501,0.13169238,-0.28217843,-2.093809,-8.516435,-0.7733142
0.5149968,0.12759127,-0.27339095,-2.0286045,-8.251219,-0.74923193
0.49895945,0.12361799,-0.26487738,-1.9654322,-7.9942703,-0.72590035
0.48342192,0.119768545,-0.2566291,-1.9042289,-7.74533,-0.7032959
0.46836862,0.11603907,-0.24863793,-1.844933,-7.504148,-0.68139595
0.4537844,0.112425804,-0.24089578,-1.787485,-7.2704816,-0.6601784
0.43965468,0.10892514,-0.23339486,-1.731827,-7.0440965,-0.6396221
0.4259652,0.10553355,-0.22612767,-1.6779033,-6.8247647,-0.6197062
0.4127022,0.102247626,-0.21908689,-1.6256596,-6.612267,-0.6004109
0.39985242,0.099064074,-0.21226546,-1.5750436,-6.406389,-0.58171666
0.38740295,0.0959797,-0.20565654,-1.5260043,-6.2069254,-0.56360483
0.3753413,0.092991404,-0.1992535,-1.4784927,-6.013675,-0.54605716
0.3636554,0.09009619,-0.19304991,-1.4324611,-5.826444,-0.52905613
0.35233343,0.087291166,-0.18703955,-1.3878633,-5.6450458,-0.5125847
0.34136415,0.08457351,-0.1812164,-1.3446546,-5.469297,-0.49662623
0.3307365,0.08194049,-0.17557462,-1.3027916,-5.2990217,-0.4811648
0.32043985,0.079389475,-0.17010854,-1.2622324,-5.1340504,-0.46618497
0.31046388,0.07691792,-0.1648127,-1.2229365,-4.974216,-0.45167163
0.30079857,0.07452332,-0.15968178,-1.1848643,-4.81936,-0.43761027
0.29143426,0.0722033,-0.15471065,-1.1479776,-4.669326,-0.42398682
0.28236157,0.06995552,-0.14989431,-1.1122397,-4.5239644,-0.41078758
0.27357137,0.06777774,-0.14522797,-1.0776147,-4.383129,-0.39799938
0.2650549,0.06566777,-0.14070693,-1.0440677,-4.2466793,-0.3856094
0.25680363,0.06362351,-0.13632666,-1.0115654,-4.114478,-0.37360522
0.2488093,0.061642896,-0.13208278,-0.98007524,-3.9863937,-0.3619748
0.24106386,0.05972395,-0.12797104,-0.94956553,-3.8622973,-0.35070655
0.2335596,0.05786476,-0.12398733,-0.92000574,-3.7420647,-0.33978912
0.22628897,0.05606345,-0.120127656,-0.8913663,-3.6255758,-0.32921162
0.21924473,0.054318227,-0.11638815,-0.8636186,-3.5127137,-0.31896344
0.2124198,0.05262734,-0.112765074,-0.8367348,-3.4033654,-0.30903435
0.20580736,0.0509891,-0.10925479,-0.81068796,-3.2974217,-0.29941437
0.1994008,0.04940186,-0.1058538,-0.7854521,-3.1947765,-0.29009393
0.19319367,0.04786404,-0.1025587,-0.7610019,-3.095327,-0.28106365
0.18717982,0.046374094,-0.09936618,-0.7373129,-2.9989734,-0.2723145
0.18135317,0.044930536,-0.09627306,-0.7143614,-2.9056196,-0.26383772
0.17570792,0.043531917,-0.093276225,-0.6921244,-2.815172,-0.25562486
0.17023842,0.04217684,-0.09037269,-0.67057973,-2.7275405,-0.24766769
0.1649392,0.040863946,-0.08755954,-0.64970577,-2.6426368,-0.23995823
0.15980494,0.039591927,-0.08483398,-0.6294816,-2.5603764,-0.23248877
0.15483053,0.038359508,-0.082193255,-0.60988706,-2.480677,-0.22525184
0.15001096,0.03716545,-0.07963475,-0.5909025,-2.4034584,-0.2182402
0.14534144,0.03600857,-0.07715588,-0.57250893,-2.3286436,-0.21144684
0.14081727,0.0348877,-0.074754186,-0.554688,-2.256158,-0.20486495
0.13643394,0.033801723,-0.07242726,-0.53742176,-2.1859288,-0.19848797
0.13218707,0.032749556,-0.07017276,-0.52069306,-2.1178858,-0.19230948
0.1280724,0.031730138,-0.06798845,-0.50448513,-2.051961,-0.18632334
0.12408581,0.030742455,-0.06587213,-0.4887817,-1.9880885,-0.18052354
0.12022332,0.029785518,-0.063821696,-0.47356713,-1.9262041,-0.17490429
0.11648107,0.02885837,-0.061835084,-0.45882618,-1.8662462,-0.16945995
0.112855315,0.027960083,-0.059910316,-0.44454408,-1.8081547,-0.1641851
