ax,ay,az,gx,gy,gz
-0.5563687,2.400931,-0.87000793,59.70418,-11.874654,48.44044
-1.0369482,3.409168,-1.1325375,64.08997,-22.589607,36.731056
-1.4115143,4.673339,-0.85638005,57.994102,-30.220974,20.915943
-1.3670782,5.98469,-0.24500237,48.787354,-31.847483,6.979793
-1.0010567,7.3144093,0.3707959,35.837376,-29.887135,-7.475728
-0.50523955,8.348157,0.808385,19.088741,-27.53699,-22.480577
-0.04519543,8.9808445,1.0665237,-0.49225864,-24.103258,-37.56591
0.2400902,9.355599,1.1104409,-18.493332,-20.62945,-51.96658
0.36374784,9.511016,0.9990903,-35.15404,-17.431913,-66.565834
0.38180462,9.495122,0.79442316,-50.47466,-15.4820175,-80.20357
0.38816556,9.328988,0.5243517,-64.78144,-14.715386,-93.069626
0.44010165,9.004708,0.2083116,-77.641396,-14.70958,-104.88074
0.5644316,8.400197,-0.15286304,-88.26366,-14.978653,-115.398834
0.7131939,7.60148,-0.51787823,-96.31391,-16.08563,-124.58733
0.9530484,6.61313,-0.82060295,-101.3925,-17.507193,-131.75331
1.2997143,5.516718,-1.0352405,-103.278076,-18.806286,-135.68279
1.7397808,4.423005,-1.1546952,-102.38507,-19.232708,-134.47964
2.2502196,3.3758256,-1.1871082,-100.158035,-18.458473,-130.50928
2.7637703,2.3823388,-1.186521,-96.70516,-16.41854,-124.93906
3.2627914,1.4405916,-1.1670226,-92.226234,-13.38474,-118.136024
3.7138531,0.56376785,-1.1145761,-86.637474,-9.785913,-109.561066
4.0694413,-0.1799194,-1.0286609,-80.10482,-5.033788,-98.55742
4.238116,-0.74062055,-0.96377146,-73.54175,-0.29502654,-86.39744
4.3030314,-1.151175,-0.90748805,-66.955734,4.476122,-73.72003
4.30412,-1.4215344,-0.8567651,-60.217308,9.443661,-61.4554
4.253672,-1.5805433,-0.8172252,-53.10606,14.6442,-50.146328
4.159085,-1.6509413,-0.7911894,-45.76528,19.863287,-39.558453
4.038384,-1.5898693,-0.7751204,-38.946877,24.895018,-29.77427
3.9015536,-1.4624488,-0.771627,-32.914402,29.765759,-21.116734
3.7500172,-1.2999437,-0.78371316,-27.238934,34.58359,-13.4379
3.574293,-1.0939068,-0.8231935,-21.800991,39.192673,-6.698454
3.359524,-0.8659703,-0.8802317,-16.341858,43.37203,-1.2578155
3.119179,-0.5961521,-0.99360096,-11.774706,47.46446,3.3749695
2.843933,-0.31771553,-1.1501698,-7.9027743,50.84919,6.878405
2.5389242,-0.0416862,-1.3513683,-4.836824,53.1671,9.536229
2.2414951,0.21106535,-1.577493,-1.9111634,54.38042,11.261242
1.9742992,0.44904113,-1.8307706,0.42807987,54.19118,11.756403
1.7433321,0.6786875,-2.1346843,1.9813862,52.676918,11.161957
1.5270308,0.90522426,-2.4595177,2.3277006,49.627403,9.578906
1.3263203,1.0941513,-2.791077,1.5016181,45.322063,7.253511
1.1408995,1.2147831,-3.138033,0.18986505,39.928867,4.7125797
0.9544096,1.2789999,-3.5076468,-1.1765659,32.896103,2.1286242
0.76002455,1.2934017,-3.9082062,-2.0007179,24.490198,-0.35621825
0.5619097,1.3080248,-4.3445296,-2.429581,13.992935,-2.9850569
0.38414308,1.3377748,-4.787693,-3.8078973,0.9610405,-6.01239
0.29378837,1.3335084,-5.1431255,-4.7890644,-12.97315,-9.445146
0.32989937,1.2902768,-5.3976765,-4.678542,-26.566427,-13.279829
0.589709,1.182675,-5.4316425,-3.567685,-38.493935,-16.514978
0.9867821,1.076107,-5.2942543,-2.218274,-48.67878,-18.218063
1.4364651,1.0381643,-4.991275,-0.94698083,-56.45018,-18.132214
1.8663712,1.1001494,-4.606842,-0.3448145,-62.03528,-17.887077
2.253091,1.1828742,-4.1764846,-0.9539334,-65.29562,-18.104084
2.5945761,1.2178557,-3.7132444,-2.2188647,-67.10871,-18.096699
2.8810484,1.2056863,-3.270909,-3.9620671,-67.64771,-17.728226
3.0926664,1.148154,-2.883716,-5.5879035,-67.06875,-17.017595
3.2175217,1.0745889,-2.5581338,-6.6442814,-65.76985,-16.010836
3.2676516,1.0156426,-2.2864475,-6.9937887,-64.09284,-14.956504
3.2568479,0.9709194,-2.0589235,-7.022636,-62.30237,-14.082272
3.2229745,0.93263334,-1.8523567,-6.892917,-60.34673,-13.360985
3.1756797,0.9019291,-1.6649864,-6.704193,-58.293575,-12.667315
3.121802,0.876985,-1.4978979,-6.444783,-56.122505,-12.041728
3.0696483,0.8549228,-1.352177,-6.289379,-53.693256,-11.335212
3.013426,0.8262267,-1.2424511,-6.072318,-51.068363,-10.661177
2.9424758,0.78923565,-1.1615044,-5.7466445,-48.376698,-10.073397
2.8573594,0.75290334,-1.1028988,-5.2887836,-45.73031,-9.547013
2.7639105,0.71565986,-1.0604217,-4.8152137,-43.18016,-9.050382
2.668891,0.67647606,-1.0270462,-4.3753157,-40.790913,-8.261539
2.5758653,0.651476,-1.0047472,-4.555574,-38.597565,-7.196709
2.4935997,0.6306698,-0.9726584,-4.410082,-37.36487,-6.966867
2.4140863,0.61055964,-0.94164336,-4.269458,-36.17342,-6.744715
2.3372226,0.5911196,-0.9116617,-4.1335196,-35.021667,-6.529965
2.262909,0.5723246,-0.8826748,-4.002092,-33.90813,-6.3223405
2.1910522,0.5541509,-0.85464615,-3.8750083,-32.831406,-6.1215796
2.121562,0.53657573,-0.82754076,-3.752111,-31.790144,-5.927431
2.054353,0.51957756,-0.8013251,-3.6332479,-30.783064,-5.739656
1.9893433,0.50313556,-0.77596724,-3.518274,-29.808937,-5.5580254
1.9264544,0.48723,-0.75143665,-3.4070513,-28.86659,-5.3823204
1.8656114,0.47184187,-0.7277041,-3.2994468,-27.9549,-5.212331
1.8067425,0.45695305,-0.7047416,-3.1953337,-27.07279,-5.0478573
1.749779,0.44254607,-0.6825223,-3.0945902,-26.21923,-4.8887067
1.6946547,0.42860427,-0.6610204,-2.9970994,-25.39323,-4.734695
1.6413064,0.41511166,-0.6402112,-2.9027498,-24.593843,-4.585645
1.5896732,0.40205285,-0.6200711,-2.8114333,-23.820156,-4.441387
1.5396968,0.38941306,-0.60057724,-2.723047,-23.071295,-4.3017583
1.4913212,0.3771781,-0.5817077,-2.6374917,-22.346418,-4.1666017
1.4444922,0.36533436,-0.5634415,-2.554672,-21.64472,-4.035766
1.3991581,0.35386866,-0.5457584,-2.474496,-20.96542,-3.9091074
1.355269,0.3427684,-0.5286389,-2.3968754,-20.307772,-3.7864854
1.3127767,0.33202145,-0.5120643,-2.3217251,-19.671053,-3.6677663
1.2716349,0.32161608,-0.49601647,-2.2489634,-19.054573,-3.5528204
1.2317992,0.31154102,-0.48047808,-2.1785116,-18.457663,-3.4415233
1.1932266,0.30178538,-0.46543232,-2.1102934,-17.879677,-3.333755
1.1558754,0.2923387,-0.45086306,-2.0442357,-17.319996,-3.2294
1.119706,0.2831909,-0.43675476,-1.9802679,-16.778023,-3.1283462
1.0846797,0.27433223,-0.42309234,-1.9183218,-16.253178,-3.0304863
1.0507596,0.26575327,-0.40986136,-1.8583318,-15.744906,-2.9357166
1.0179094,0.25744498,-0.39704776,-1.8002343,-15.25267,-2.8439367
0.98609483,0.24939857,-0.3846381,-1.7439684,-14.77595,-2.75505
0.95528233,0.24160562,-0.37261933,-1.6894747,-14.314247,-2.668963
0.9254397,0.23405796,-0.36097887,-1.6366962,-13.867076,-2.5855856
0.89653575,0.22674772,-0.34970453,-1.5855778,-13.43397,-2.5048308
0.8685404,0.21966726,-0.3387846,-1.5360663,-13.014479,-2.4266148
0.8414245,0.21280923,-0.32820773,-1.4881103,-12.608167,-2.3508556
0.81516004,0.20616654,-0.31796294,-1.4416599,-12.214611,-2.2774754
0.78971976,0.1997323,-0.30803967,-1.3966672,-11.8334055,-2.2063978
0.7650774,0.19349986,-0.2984276,-1.3530858,-11.464157,-2.1375494
0.74120766,0.18746284,-0.28911692,-1.3108706,-11.106485,-2.0708597
0.7180859,0.18161498,-0.28009802,-1.2699784,-10.760021,-2.00626
0.69568837,0.17595032,-0.2713616,-1.2303671,-10.424411,-1.9436835
0.6739922,0.17046301,-0.26289874,-1.191996,-10.099308,-1.8830665
0.65297514,0.16514747,-0.25470078,-1.154826,-9.784382,-1.8243469
0.6326157,0.15999825,-0.24675934,-1.1188191,-9.479309,-1.7674646
0.6128931,0.1550101,-0.2390663,-1.0839385,-9.18378,-1.7123617
0.5937872,0.15017794,-0.23161383,-1.0501486,-8.897491,-1.6589819
0.57527864,0.14549683,-0.22439434,-1.0174152,-8.620153,-1.6072707
0.55734855,0.14096203,-0.21740048,-0.9857046,-8.351483,-1.5571758
0.5399786,0.13656892,-0.21062514,-0.95498496,-8.0912075,-1.5086461
0.5231514,0.13231304,-0.20406148,-0.9252249,-7.8390627,-1.4616325
0.50684965,0.12819009,-0.1977028,-0.8963943,-7.5947924,-1.416087
0.49105695,0.124195874,-0.19154266,-0.868464,-7.35815,-1.3719639
0.4757573,0.120326355,-0.18557484,-0.8414056,-7.128895,-1.3292181
0.4609352,0.11657761,-0.1797933,-0.8151918,-6.906796,-1.2878066
0.44657567,0.11294587,-0.17419219,-0.7897961,-6.691628,-1.2476876
0.4326642,0.109427445,-0.16876586,-0.7651928,-6.4831743,-1.2088203
0.41918674,0.10601879,-0.16350882,-0.74135715,-6.2812243,-1.1711657
0.4061297,0.10271646,-0.15841576,-0.71826494,-6.085573,-1.1346856
0.3934799,0.09951714,-0.15348156,-0.69589305,-5.896025,-1.0993434
0.38122463,0.09641758,-0.14870124,-0.67421883,-5.712388,-1.0651033
0.36935148,0.09341468,-0.14406998,-0.6532205,-5.534477,-1.0319309
0.35784855,0.09050541,-0.13958311,-0.6328768,-5.3621135,-0.9997929
0.3467042,0.08768684,-0.13523613,-0.6131674,-5.195123,-0.9686568
0.33590728,0.084956124,-0.13102466,-0.59407234,-5.033339,-0.9384912
0.3254469,0.082310535,-0.12694447,-0.57557255,-4.876597,-0.90926594
0.31531253,0.079747394,-0.12299143,-0.5576493,-4.7247405,-0.8809515
0.30549398,0.07726414,-0.1191616,-0.54028463,-4.5776167,-0.85351956
0.29598144,0.07485826,-0.115451105,-0.5234611,-4.4350777,-0.8269424
0.28676528,0.07252736,-0.11185624,-0.50716174,-4.29698,-0.8011934
0.2778363,0.07026908,-0.10837338,-0.49137032,-4.163185,-0.7762467
0.2691855,0.06808116,-0.104999036,-0.47607085,-4.033559,-0.7520773
0.26080424,0.065961406,-0.10172982,-0.46124807,-3.9079714,-0.7286608
0.25268406,0.06390769,-0.09856244,-0.44688702,-3.7862961,-0.70597386
0.24481681,0.061917946,-0.095493734,-0.43297336,-3.668411,-0.6839936
0.23719466,0.059990183,-0.09252062,-0.4194931,-3.5541983,-0.66269803
0.22980991,0.058122467,-0.08964011,-0.40643272,-3.443543,-0.6420658
0.22265518,0.056312922,-0.08684932,-0.39377916,-3.336334,-0.6220762
0.21572328,0.05455974,-0.08414545,-0.38151968,-3.2324646,-0.6027092
0.20900728,0.05286116,-0.081525795,-0.36964202,-3.1318297,-0.58394533
0.20250043,0.051215477,-0.07898772,-0.35813427,-3.0343292,-0.56576586
0.19619623,0.04962105,-0.07652869,-0.3469849,-2.939865,-0.54815257
0.19008835,0.048076272,-0.07414623,-0.33618274,-2.8483427,-0.53108776
0.18417066,0.0465796,-0.07183798,-0.32571697,-2.7596703,-0.5145543
0.17843726,0.04512953,-0.069601595,-0.3155771,-2.6737592,-0.49853578
0.17288238,0.04372462,-0.06743485,-0.30575296,-2.5905232,-0.483016
0.16750048,0.042363454,-0.06533557,-0.29623476,-2.509879,-0.46797952
0.16228616,0.04104467,-0.06330166,-0.2870129,-2.431746,-0.45341122
0.15723419,0.03976695,-0.061331082,-0.2780782,-2.356046,-0.43929654
0.15233952,0.038529012,-0.05942186,-0.26942167,-2.2827027,-0.42562133
0.14759725,0.03732962,-0.057572078,-0.26103467,-2.211643,-0.4123719
0.14300263,0.03616757,-0.055779893,-0.25290883,-2.1427958,-0.399535
0.13855107,0.0350417,-0.054043505,-0.24503595,-2.0760922,-0.38709778
0.1342381,0.033950884,-0.05236118,-0.2374082,-2.0114653,-0.37504777
0.1300594,0.032894026,-0.05073123,-0.23001793,-1.9488504,-0.36337292
0.1260108,0.031870075,-0.049152028,-0.22285774,-1.888185,-0.35206154
0.12208825,0.030878002,-0.047621988,-0.21592048,-1.8294083,-0.34110233
0.118287824,0.029916814,-0.046139583,-0.20919918,-1.7724614,-0.3304843
0.1146057,0.028985549,-0.04470333,-0.20268713,-1.7172874,-0.32019684
0.111038215,0.028083276,-0.04331179,-0.19637781,-1.6638311,-0.31022963
0.107581794,0.027209092,-0.041963566,-0.19026491,-1.612039,-0.30057272
0.10423297,0.026362123,-0.04065732,-0.18434231,-1.5618591,-0.29121643
0.100988396,0.025541522,-0.039391734,-0.1786041,-1.5132414,-0.28215143
0.09784483,0.024746465,-0.03816555,-0.1730445,-1.4661373,-0.27336863
0.09479912,0.02397616,-0.036977537,-0.16765799,-1.4204994,-0.26485923
0.09184823,0.023229834,-0.035826504,-0.16243915,-1.3762823,-0.25661474
0.0889892,0.02250674,-0.034711305,-0.15738279,-1.3334417,-0.24862689
0.08621917,0.021806156,-0.03363082,-0.15248382,-1.2919347,-0.2408877
0.08353537,0.021127382,-0.032583974,-0.14773735,-1.2517198,-0.23338944
0.08093511,0.020469738,-0.031569712,-0.14313865,-1.2127569,-0.22612458
0.0784158,0.019832565,-0.030587025,-0.1386831,-1.1750067,-0.21908589
0.07597492,0.019215228,-0.029634928,-0.13436624,-1.1384317,-0.2122663
0.073610015,0.018617107,-0.028712468,-0.13018376,-1.1029953,-0.20565899
