ax,ay,az,gx,gy,gz
11.519196,-3.923672,0.90455365,63.64331,167.23788,26.022964
11.411421,-4.4708123,0.3844644,76.76697,193.17775,36.219852
10.762367,-4.9372015,0.12578158,90.93393,209.94304,46.823296
10.749303,-4.699689,0.19217792,100.22978,227.75816,59.17793
10.7206335,-4.1046696,0.030547692,104.743835,243.68364,66.93865
10.277678,-3.255099,-0.3031706,101.21744,255.9407,69.951454
9.486872,-2.3697479,-0.8398008,91.87588,261.41733,66.66652
8.395733,-1.832056,-1.3157216,84.44905,263.24234,62.630074
7.245203,-1.4802711,-1.7385844,79.14055,259.87335,59.88442
6.2384973,-1.1880788,-2.024068,75.30028,253.68204,59.342525
5.406622,-0.8795168,-2.2218053,72.12516,246.2507,60.052673
4.7198415,-0.5959422,-2.3767254,70.491425,238.27605,60.431778
4.1155596,-0.32105622,-2.5394852,69.53765,230.13948,59.892994
3.5637312,-0.04012883,-2.6973274,68.803085,221.5453,58.338383
3.0797014,0.26443443,-2.8388357,67.64552,212.79558,55.970287
2.6188562,0.5659179,-2.9988015,65.700676,203.4841,52.86289
2.1672451,0.8545836,-3.1777964,62.412,192.69226,48.97011
1.7388222,1.1211658,-3.358587,58.618446,181.00652,44.66643
1.3846469,1.3637077,-3.5050943,54.515373,169.06105,40.203827
1.1176176,1.5810115,-3.6120315,49.778484,157.17484,35.563927
0.9169384,1.7897172,-3.67764,44.420822,145.99052,30.901247
0.7469354,2.0002677,-3.7286708,38.49215,135.2692,25.781847
0.59210765,2.238278,-3.7930412,32.201294,124.634735,20.172472
0.44987944,2.505164,-3.8798938,24.932018,113.49091,13.435915
0.3473956,2.7036438,-3.9611135,17.260937,101.912865,5.8670926
0.33468604,2.7912993,-3.9953976,9.816733,90.31127,-1.9723489
0.4098955,2.783046,-3.9699845,2.8723915,79.62155,-8.853065
0.51880467,2.716381,-3.9386997,-3.363876,69.672485,-14.879556
0.6460669,2.6227007,-3.9269133,-9.038325,60.01698,-20.79931
0.81471217,2.4437675,-3.9142556,-13.739185,50.24561,-26.6756
1.0816017,2.1887856,-3.8312082,-17.87686,41.069237,-31.442846
1.3964295,1.926431,-3.678819,-21.99224,33.76566,-33.92094
1.7015299,1.6323419,-3.4862068,-25.47227,28.081057,-35.338276
1.9827373,1.3308069,-3.2858672,-28.06171,24.02596,-35.889057
2.2250013,1.0475895,-3.0945315,-29.787867,21.637522,-35.79659
2.429955,0.7618192,-2.9200897,-30.451807,20.352652,-35.44236
2.6310582,0.47653198,-2.7446663,-30.135733,20.464695,-34.221893
2.860517,0.15257587,-2.5594656,-29.020914,21.60678,-32.11041
3.1337695,-0.19151986,-2.3612666,-27.001184,24.13064,-28.832983
3.4510224,-0.5356942,-2.1601453,-23.864641,28.231905,-24.580534
3.7751346,-0.8139457,-1.9784962,-20.67367,34.035892,-19.648834
4.078455,-1.0504454,-1.8292549,-17.201902,41.59884,-14.727225
4.3448896,-1.2731057,-1.7662337,-13.137087,49.749676,-9.715118
4.509289,-1.4650085,-1.7604764,-8.880613,57.600494,-4.4018006
4.5891156,-1.5899265,-1.7772251,-4.86973,65.0332,1.3835317
4.6172247,-1.633436,-1.8267012,-1.4448235,71.509575,7.2232695
4.6018915,-1.5858234,-1.8946389,0.90342915,76.44427,12.137435
4.5106974,-1.4467517,-1.9579993,2.632986,80.60284,16.023024
4.366693,-1.3099735,-2.0437808,3.8937626,83.64812,19.074707
4.2008085,-1.1899524,-2.1446881,5.0488977,85.753716,21.863127
4.0194297,-1.069615,-2.2508385,6.325783,86.87772,24.600565
3.8258982,-0.92000955,-2.3583758,7.397854,86.88713,27.036057
3.61704,-0.7282855,-2.4690077,8.298683,86.03775,28.859016
3.395642,-0.51702464,-2.5796392,8.861133,84.36155,29.890692
3.1636279,-0.3183904,-2.6907613,9.206517,81.777145,30.117693
2.9305184,-0.163403,-2.801885,9.599612,78.1458,30.036222
2.707947,-0.04441793,-2.9059644,10.405891,73.368355,30.365147
2.491222,0.04814632,-3.0009413,11.735096,67.96741,30.900225
2.4098349,0.046573404,-2.902902,11.351716,65.74695,29.89073
2.3313398,0.045056377,-2.8083463,10.981959,63.605385,28.917105
2.2556124,0.043592844,-2.7171247,10.62524,61.539333,27.977812
2.1825361,0.042180542,-2.6290967,10.281009,59.545612,27.0714
2.1120005,0.040817343,-2.544129,9.948745,57.621204,26.1965
2.0439014,0.03950123,-2.4620965,9.627958,55.763275,25.351824
1.9781404,0.038230307,-2.3828802,9.318186,53.96913,24.536146
1.9146241,0.03700277,-2.306368,9.018988,52.23623,23.748314
1.8532642,0.035816904,-2.2324536,8.729947,50.562164,22.987226
1.7939769,0.034671094,-2.1610355,8.450669,48.94464,22.251848
1.7366823,0.033563796,-2.0920184,8.1807785,47.38149,21.541187
1.6813049,0.032493554,-2.0253103,7.9199195,45.87064,20.854305
1.6277726,0.031458966,-1.960825,7.667751,44.41013,20.19031
1.5760165,0.030458707,-1.8984793,7.42395,42.99808,19.548346
1.5259714,0.029491516,-1.8381946,7.188208,41.632713,18.927605
1.4775746,0.028556181,-1.7798955,6.9602313,40.312313,18.327307
1.4307665,0.027651548,-1.7235103,6.739738,39.03526,17.746716
1.3854901,0.026776519,-1.66897,6.5264597,37.79999,17.185123
1.3416908,0.025930036,-1.616209,6.32014,36.605026,16.641851
1.2993163,0.02511109,-1.5651644,6.1205316,35.448933,16.116255
1.2583166,0.024318717,-1.5157762,5.9273996,34.330353,15.607711
1.218644,0.023551987,-1.4679862,5.7405186,33.247974,15.115625
1.1802524,0.022810016,-1.4217393,5.559672,32.200542,14.639429
1.1430976,0.02209195,-1.3769826,5.384651,31.18686,14.178575
1.1071374,0.021396969,-1.3336647,5.215258,30.205765,13.732537
1.0723311,0.020724287,-1.2917367,5.0513,29.256153,13.300812
1.0386395,0.020073151,-1.2511517,4.8925934,28.336954,12.882915
1.0060253,0.019442836,-1.2118644,4.738961,27.447147,12.478378
0.9744521,0.018832639,-1.173831,4.5902333,26.585743,12.086756
0.9438852,0.018241892,-1.13701,4.4462457,25.751795,11.707615
0.9142912,0.017669946,-1.1013608,4.3068404,24.944387,11.340541
0.8856378,0.01711618,-1.0668448,4.1718664,24.162643,10.985135
0.85789394,0.016579991,-1.0334244,4.041177,23.405716,10.64101
0.8310298,0.016060803,-1.0010636,3.9146311,22.672787,10.3077965
0.8050164,0.015558058,-0.9697277,3.792093,21.963068,9.985135
0.779826,0.015071219,-0.9393832,3.6734316,21.275805,9.672683
0.7554317,0.014599767,-0.90999776,3.5585206,20.610262,9.370105
0.73180777,0.014143201,-0.8815402,3.447238,19.965736,9.077082
0.70892906,0.013701038,-0.85398036,3.3394663,19.341543,8.7933035
0.68677163,0.013272815,-0.8272894,3.2350917,18.737026,8.51847
0.6653121,0.01285808,-0.8014391,3.134005,18.15155,8.252294
0.64452803,0.012456399,-0.7764025,3.0361,17.584503,7.9944954
0.6243977,0.012067352,-0.75215334,2.9412746,17.035294,7.7448063
0.6049002,0.011690536,-0.7286665,2.8494298,16.503347,7.5029655
0.58601516,0.011325557,-0.7059175,2.7604706,15.9881115,7.2687225
0.5677231,0.010972037,-0.6838828,2.6743042,15.489054,7.0418344
0.5500051,0.010629611,-0.6625395,2.590842,15.005656,6.8220663
0.53284276,0.010297926,-0.6418657,2.5099976,14.537421,6.609191
0.5162185,0.009976639,-0.62184,2.4316878,14.083866,6.40299
0.5001152,0.00966542,-0.6024419,2.355832,13.644524,6.2032504
0.48451635,0.009363951,-0.58365136,2.2823524,13.218944,6.0097675
0.46940592,0.009071921,-0.5654493,2.2111735,12.806689,5.8223433
0.45476845,0.008789032,-0.5478169,2.1422224,12.407338,5.640785
0.44058898,0.008514994,-0.5307362,2.075429,12.020484,5.464908
0.42685306,0.008249528,-0.51418984,2.010725,11.64573,5.294533
0.41354665,0.007992364,-0.49816087,1.9480441,11.282695,5.129485
0.40065625,0.0077432385,-0.48263302,1.8873228,10.931008,4.969597
0.38816872,0.0075018993,-0.46759045,1.8284993,10.590314,4.8147063
0.37607136,0.007268101,-0.4530179,1.7715137,10.260265,4.6646547
0.36435193,0.0070416066,-0.4389006,1.7163084,9.940526,4.519291
0.3529985,0.0068221856,-0.42522416,1.6628271,9.630773,4.378467
0.34199956,0.0066096163,-0.4119748,1.6110158,9.330692,4.24204
0.331344,0.006403683,-0.39913908,1.5608221,9.03998,4.109873
0.32102108,0.006204178,-0.386704,1.512195,8.758341,3.9818308
0.31102028,0.006010899,-0.37465698,1.4650855,8.485492,3.8577845
0.30133158,0.005823651,-0.36298588,1.4194461,8.221157,3.7376091
0.29194513,0.0056422446,-0.3516789,1.3752304,7.965069,3.621183
0.28285146,0.005466497,-0.34072462,1.3323941,7.7169685,3.5083885
0.27404144,0.0052962312,-0.33011204,1.2908938,7.476607,3.3991122
0.26550618,0.0051312754,-0.3198304,1.2506877,7.2437415,3.2932436
0.25723705,0.0049714632,-0.30986935,1.2117354,7.018137,3.1906765
0.24922577,0.0048166336,-0.3002189,1.1739975,6.7995667,3.0913072
0.24146423,0.004666631,-0.2908693,1.1374363,6.5878105,2.995036
0.23394464,0.0045213047,-0.28181118,1.1020147,6.3826556,2.9017656
0.22665943,0.0043805083,-0.27303538,1.067697,6.183895,2.8114026
0.21960129,0.0042441,-0.26453307,1.0344492,5.9913297,2.723856
0.21276312,0.004111943,-0.25629577,1.0022374,5.804765,2.6390376
0.20613804,0.0039839037,-0.24831517,0.97102946,5.624015,2.5568626
0.1997194,0.0038598545,-0.24058323,0.94079393,5.4488964,2.477248
0.19350076,0.0037396706,-0.2330922,0.9115005,5.279235,2.4001143
0.18747586,0.003623231,-0.22583458,0.88311976,5.114859,2.3253834
0.18163866,0.0035104193,-0.21880306,0.8556232,4.955604,2.2529812
0.17598331,0.0034011218,-0.2119906,0.82898325,4.8013105,2.1828341
0.17050414,0.0032952293,-0.20539035,0.8031732,4.6518235,2.1148725
0.16519563,0.003192635,-0.1989957,0.77816707,4.506993,2.0490277
0.16005248,0.0030932364,-0.19280022,0.7539398,4.3666735,1.9852338
0.15506953,0.0029969339,-0.18679771,0.7304672,4.230725,1.923427
0.15024176,0.0029036307,-0.18098217,0.70772564,4.09901,1.8635452
0.14556436,0.0028132335,-0.17534775,0.68569237,3.9713976,1.8055284
0.14103264,0.0027256515,-0.1698888,0.6643453,3.8477597,1.7493185
0.13664204,0.002640797,-0.16459985,0.64366305,3.7279718,1.694859
0.13238816,0.002558585,-0.15947561,0.62362486,3.6119146,1.6420954
0.12826677,0.0024789332,-0.15451093,0.6042107,3.4994712,1.590975
0.124273695,0.0024017617,-0.14970087,0.585401,3.3905294,1.5414466
0.12040497,0.0023269933,-0.14504057,0.5671771,3.28498,1.4934603
0.11665671,0.002254553,-0.1405254,0.5495206,3.182717,1.4469682
0.113025166,0.0021843682,-0.13615082,0.53241396,3.0836384,1.4019238
0.1095067,0.0021163689,-0.13191244,0.5158399,2.987645,1.3582819
0.10609777,0.0020504869,-0.12780604,0.4997819,2.8946402,1.3159989
0.10279499,0.0019866559,-0.12382749,0.4842239,2.804531,1.2750323
0.09959504,0.0019248124,-0.1199728,0.46915027,2.7172277,1.2353413
0.09649472,0.0018648944,-0.11623814,0.45454597,2.6326423,1.1968861
0.09349093,0.0018068419,-0.11261975,0.44039637,2.5506907,1.159628
0.09058065,0.0017505968,-0.10911401,0.42668727,2.47129,1.12353
0.087760985,0.0016961028,-0.10571742,0.413405,2.394362,1.0885558
0.085029095,0.0016433053,-0.10242658,0.40053624,2.3198285,1.0546706
0.08238226,0.0015921516,-0.09923819,0.38806814,2.2476156,1.0218401
0.07981783,0.0015425903,-0.09614905,0.37598816,2.1776507,0.99003184
0.077333234,0.001494572,-0.09315609,0.36428428,2.109864,0.9592138
0.07492598,0.0014480486,-0.0902563,0.35294473,2.0441875,0.92935514
0.072593674,0.0014029735,-0.087446794,0.34195822,1.9805559,0.900426
0.07033397,0.0013593016,-0.08472474,0.3313137,1.9189049,0.8723975
0.06814462,0.0013169893,-0.08208743,0.32100058,1.8591733,0.8452415
0.06602342,0.0012759942,-0.07953222,0.3110085,1.8013011,0.81893086
0.06396825,0.0012362753,-0.07705655,0.30132747,1.7452304,0.7934393
0.061977062,0.0011977927,-0.074657954,0.2919478,1.6909053,0.7687413
0.060047857,0.0011605083,-0.07233402,0.28286016,1.6382713,0.7448122
0.058178708,0.0011243843,-0.07008243,0.2740554,1.5872757,0.7216279
0.056367747,0.0010893849,-0.06790093,0.26552472,1.5378677,0.6991654
0.054613158,0.0010554751,-0.065787345,0.25725958,1.4899976,0.6774021
0.052913185,0.0010226208,-0.06373955,0.24925172,1.4436178,0.6563163
0.051266134,0.0009907892,-0.061755504,0.24149315,1.3986816,0.6358868
