ax,ay,az,gx,gy,gz
8.513714,-1.9491087,2.823662,-40.394913,17.58925,12.373749
10.068086,-2.6165872,2.7161415,-28.06923,63.29947,27.329214
10.397364,-3.2462478,2.0532825,-5.052955,102.943695,38.774067
10.313306,-3.6604016,1.4732641,20.374958,139.22818,47.227013
10.057139,-3.767066,0.9683012,46.93122,188.20448,55.430874
10.066053,-3.4698353,1.2879778,56.295433,230.2079,68.23667
10.642093,-3.078358,1.74271,46.134903,269.48987,84.66648
10.99872,-2.7125,1.5213236,35.060375,304.432,96.177895
10.733203,-2.2580209,0.54712236,34.68,330.43988,102.79425
9.677804,-1.8524722,-0.84383076,45.559673,334.04663,103.31539
8.320293,-1.5226067,-1.5761508,51.637333,326.61133,101.836754
7.283587,-1.0760226,-1.8719877,54.729084,315.2154,100.34607
6.4564633,-0.5052359,-2.001217,53.678658,302.29556,97.70843
5.7274694,-0.0014033022,-2.1387343,48.324627,288.2477,94.44205
5.00663,0.37691426,-2.3735313,43.25575,269.9153,89.7158
4.3323827,0.6772952,-2.534521,39.08396,250.94777,83.15044
3.7675629,1.007265,-2.6003585,35.221317,232.75684,75.2441
3.309092,1.378997,-2.592693,31.67398,216.15982,66.57329
2.9092484,1.7294074,-2.577203,28.08659,200.56313,57.495308
2.5358012,2.0184135,-2.5794232,23.857119,185.01955,48.199844
2.1606886,2.281746,-2.6115339,19.16423,169.27246,39.145527
1.8076669,2.5906866,-2.6604946,13.3489275,152.62355,29.410982
1.5060093,2.8781092,-2.6797104,6.248409,136.1806,19.130297
1.2712289,3.0725274,-2.6738758,-1.2016971,120.59779,8.972891
1.0588472,3.2044642,-2.6857274,-7.877415,105.25882,-0.89476687
0.8651159,3.2977123,-2.6987083,-14.076979,90.89726,-10.320673
0.7093618,3.3412213,-2.7124996,-19.36285,77.858925,-19.400589
0.65183544,3.3350513,-2.743675,-24.403181,65.57568,-28.129343
0.68659514,3.2639506,-2.7401147,-29.27146,54.106876,-35.596996
0.7733419,3.128604,-2.6876922,-33.16993,45.337097,-41.5185
0.83445615,2.9615939,-2.7226176,-35.347694,38.135994,-46.95257
0.8996215,2.8034925,-2.8199615,-36.430157,31.021301,-52.29881
1.0428706,2.619658,-2.877913,-38.05727,23.607182,-56.730145
1.2887584,2.3708727,-2.8446593,-40.21571,17.224707,-59.028236
1.5529635,2.0760412,-2.7995849,-41.42008,12.080649,-58.681896
1.8272965,1.8071479,-2.75612,-41.85584,8.045066,-58.175797
2.1268382,1.537885,-2.68951,-41.530876,5.159898,-57.295906
2.4270122,1.264554,-2.590083,-41.21965,3.7626932,-55.565235
2.7086718,0.96565336,-2.488199,-40.817387,3.7183604,-53.162323
3.0172987,0.62289876,-2.384089,-38.8071,5.6646686,-49.29907
3.3579829,0.28242445,-2.2651863,-35.43975,9.183109,-43.54975
3.683657,0.0034759725,-2.1356852,-31.766708,14.596477,-36.774616
3.990302,-0.26601398,-2.000711,-28.039116,22.637518,-29.7327
4.255631,-0.5119895,-1.8904659,-23.569185,33.399284,-22.230125
4.5418115,-0.668094,-1.793147,-18.768625,47.573074,-13.419617
4.798516,-0.60647917,-1.8809896,-11.80441,62.049847,-2.931728
4.7879705,-0.39660555,-2.1206343,-6.1660757,73.13603,5.25072
4.549087,-0.17179675,-2.336929,-3.3651056,80.26971,10.764622
4.1905475,0.0029300253,-2.4801278,-1.8207629,84.16289,14.301483
3.8349721,0.15726578,-2.5603755,-1.5789979,85.31568,17.04275
3.504041,0.35031182,-2.626367,-2.6599913,84.75204,18.927912
3.1860082,0.5309644,-2.6872694,-4.387685,82.95437,19.30253
2.8821363,0.6775563,-2.7442532,-5.69288,80.597015,18.235622
2.7862687,0.6550189,-2.6529717,-5.5035195,77.91614,17.629055
2.6939662,0.6333197,-2.5650852,-5.321201,75.33496,17.045046
2.6050615,0.61241925,-2.4804337,-5.1455936,72.8488,16.482536
2.5193985,0.59228086,-2.3988688,-4.9763894,70.45329,15.940536
2.4368305,0.57287014,-2.320251,-4.813299,68.14433,15.4181185
2.3572204,0.55415475,-2.2444496,-4.656051,65.91809,14.914416
2.2804391,0.5361044,-2.1713417,-4.5043902,63.770958,14.428612
2.2063653,0.51869047,-2.1008115,-4.3580775,61.69953,13.959938
2.1348846,0.5018862,-2.0327504,-4.2168865,59.70062,13.50767
2.065889,0.48566613,-1.9670556,-4.080604,57.771202,13.071127
1.9992766,0.47000635,-1.90363,-3.9490297,55.908432,12.649663
1.9349513,0.45488423,-1.8423821,-3.8219726,54.10962,12.242669
1.8728218,0.44027832,-1.7832248,-3.6992524,52.372208,11.849568
1.8128016,0.42616826,-1.726076,-3.5806987,50.693783,11.469813
1.7548087,0.41253483,-1.6708575,-3.4661496,49.072052,11.102884
1.698765,0.39935964,-1.6174951,-3.3554506,47.50483,10.74829
1.6445968,0.3866253,-1.5659182,-3.2484558,45.990047,10.4055605
1.5922332,0.37431523,-1.5160598,-3.1450255,44.525734,10.07425
1.5416071,0.36241364,-1.4678557,-3.0450275,43.110012,9.753933
1.4926546,0.3509055,-1.4212451,-2.9483352,41.74109,9.444204
1.4453145,0.3397764,-1.3761697,-2.8548274,40.41725,9.144678
1.3995284,0.3290126,-1.332574,-2.7643893,39.136875,8.854983
1.3552405,0.31860104,-1.2904049,-2.6769106,37.89839,8.574769
1.3123974,0.30852914,-1.2496115,-2.5922856,36.700314,8.303696
1.270948,0.2987849,-1.2101451,-2.510414,35.541214,8.041441
1.2308437,0.28935683,-1.1719593,-2.4311984,34.41972,7.7876954
1.1920372,0.2802339,-1.1350094,-2.3545468,33.334522,7.5421624
1.1544838,0.27140552,-1.0992526,-2.2803702,32.284367,7.3045573
1.1181402,0.26286158,-1.0646477,-2.2085834,31.268044,7.074607
1.0829651,0.25459233,-1.0311553,-2.1391044,30.284395,6.8520503
1.0489187,0.24658842,-0.9987378,-2.071855,29.33231,6.6366343
1.0159628,0.23884086,-0.96735847,-2.0067594,28.410719,6.428118
0.9840606,0.23134103,-0.9369825,-1.9437453,27.518595,6.2262692
0.95317674,0.2240806,-0.90757614,-1.8827425,26.65495,6.0308633
0.9232772,0.21705158,-0.87910706,-1.8236842,25.81883,5.841686
0.8943293,0.21024628,-0.8515441,-1.7665055,25.009321,5.658529
0.86630154,0.20365727,-0.8248571,-1.7111441,24.225542,5.4811935
0.8391634,0.19727743,-0.7990173,-1.6575402,23.466644,5.3094873
0.81288576,0.19109985,-0.7739968,-1.6056358,22.731806,5.1432257
0.7874403,0.18511793,-0.7497687,-1.5553752,22.02024,4.982229
0.7627999,0.17932525,-0.7263071,-1.5067047,21.331188,4.8263264
0.7389383,0.17371567,-0.703587,-1.4595724,20.663914,4.6753507
0.7158301,0.16828321,-0.6815843,-1.4139285,20.01771,4.529143
0.6934509,0.16302213,-0.6602758,-1.3697246,19.391891,4.387547
0.67177725,0.1579269,-0.639639,-1.3269141,18.7858,4.250415
0.6507862,0.15299217,-0.6196522,-1.285452,18.198801,4.1176023
0.630456,0.14821276,-0.60029453,-1.245295,17.63028,3.9889703
0.61076516,0.14358369,-0.58154577,-1.2064012,17.07964,3.8643842
0.5916933,0.13910012,-0.5633863,-1.1687299,16.546307,3.7437143
0.5732206,0.1347574,-0.54579735,-1.1322421,16.02973,3.6268353
0.5553279,0.13055104,-0.5287607,-1.0969,15.529373,3.513626
0.5379967,0.12647668,-0.5122586,-1.0626669,15.044718,3.4039695
0.5212091,0.12253012,-0.49627414,-1.0295075,14.575264,3.2977526
0.50494784,0.11870728,-0.4807908,-0.9973877,14.120528,3.1948655
0.48919612,0.115004234,-0.46579266,-0.9662745,13.680042,3.0952024
0.4739378,0.11141719,-0.45126435,-0.9361359,13.253354,2.9986613
0.4591573,0.10794246,-0.43719092,-0.90694094,12.840027,2.9051433
0.44483942,0.1045765,-0.42355803,-0.87865984,12.439636,2.8145523
0.43096954,0.101315856,-0.4103517,-0.85126364,12.051775,2.726796
0.41753352,0.098157205,-0.39755845,-0.82472444,11.676045,2.6417844
0.40451762,0.095097326,-0.38516527,-0.7990151,11.312065,2.5594316
0.39190868,0.092133105,-0.3731595,-0.7741095,10.959464,2.4796531
0.37969378,0.089261524,-0.361529,-0.74998224,10.617882,2.402368
0.36786053,0.08647967,-0.35026187,-0.72660893,10.286974,2.3274977
0.35639697,0.08378472,-0.3393467,-0.7039657,9.966403,2.2549663
0.3452914,0.08117394,-0.32877246,-0.6820297,9.655844,2.1847
0.33453265,0.07864468,-0.31852838,-0.66077864,9.354981,2.116628
0.32410973,0.076194376,-0.30860412,-0.640191,9.063512,2.050681
0.31401217,0.07382056,-0.29898962,-0.62024605,8.78114,1.9867927
0.30422974,0.07152082,-0.2896752,-0.6009235,8.507581,1.924898
0.29475254,0.06929285,-0.2806514,-0.58220387,8.242558,1.8649347
0.28557104,0.06713438,-0.27190915,-0.56406826,7.9858027,1.8068421
0.2766759,0.06504325,-0.26343957,-0.54649836,7.737057,1.7505617
0.26805824,0.06301733,-0.25523418,-0.5294765,7.49607,1.6960367
0.25970933,0.061054602,-0.24728468,-0.51298547,7.262598,1.6432121
0.25162077,0.059153073,-0.23958306,-0.49700868,7.036406,1.5920347
0.24378437,0.05731083,-0.23212157,-0.48153004,6.817267,1.5424529
0.2361923,0.055526022,-0.2248927,-0.46653393,6.6049595,1.494417
0.2288369,0.053796854,-0.21788919,-0.45200533,6.3992705,1.4478784
0.22171074,0.05212158,-0.21110396,-0.43792954,6.1999927,1.4027904
0.2148067,0.050498523,-0.20453022,-0.4242925,6.0069256,1.3591077
0.20811783,0.048926048,-0.19816135,-0.41108042,5.8198757,1.3167864
0.2016374,0.047402572,-0.19199094,-0.39828008,5.6386547,1.275784
0.19535889,0.04592657,-0.1860128,-0.38587862,5.463081,1.2360591
0.18927602,0.04449656,-0.18022093,-0.37386355,5.2929773,1.1975721
0.18338266,0.0431111,-0.17460953,-0.36222282,5.1281734,1.1602842
0.17767292,0.041768808,-0.16917294,-0.35094476,4.9685044,1.1241578
0.17214105,0.040468328,-0.16390571,-0.34001803,4.813809,1.089157
0.1667815,0.039208364,-0.15880257,-0.32943168,4.663933,1.0552465
0.16158889,0.037987642,-0.15385838,-0.31917512,4.5187254,1.0223923
0.15655804,0.036804948,-0.1490682,-0.30923802,4.378041,0.9905614
0.15168387,0.03565909,-0.14442722,-0.29961044,4.241738,0.95972204
0.14696151,0.03454892,-0.13993078,-0.2902827,4.1096807,0.9298431
0.14238624,0.033473324,-0.13557439,-0.28124547,3.981736,0.90089476
0.13795345,0.03243123,-0.13135368,-0.2724897,3.857776,0.872848
0.1336587,0.031421587,-0.1272644,-0.26400658,3.7376764,0.84567463
0.1294977,0.030443385,-0.12330246,-0.25578767,3.621317,0.81934756
0.12546629,0.029495645,-0.119463906,-0.2478247,3.508581,0.7938402
0.12156041,0.028577419,-0.11574488,-0.24010968,3.3993554,0.76912725
0.11777615,0.027687784,-0.11214167,-0.2326349,3.2935312,0.7451838
0.11410973,0.02682585,-0.10865065,-0.22539288,3.1910021,0.72198594
0.11055747,0.025990758,-0.10526833,-0.21837635,3.0916657,0.69951034
0.10711582,0.025181666,-0.101991326,-0.2115783,2.9954221,0.6777346
0.10378132,0.024397764,-0.09881636,-0.2049919,2.9021752,0.6566369
0.10055065,0.023638273,-0.095740244,-0.19861059,2.8118317,0.636196
0.097420566,0.022902427,-0.09275991,-0.19242796,2.724301,0.6163916
0.09438793,0.02218949,-0.08987236,-0.18643782,2.6394956,0.5972038
0.09144972,0.02149875,-0.08707471,-0.18063417,2.5573304,0.57861334
0.08860299,0.020829517,-0.08436417,-0.17501122,2.4777234,0.5606017
0.08584488,0.02018112,-0.08173801,-0.16956332,2.4005947,0.54315084
0.08317264,0.019552907,-0.079193614,-0.16428503,2.3258674,0.52624327
0.080583595,0.018944254,-0.076728426,-0.15917107,2.2534664,0.50986207
0.078075156,0.018354548,-0.07433999,-0.15421633,2.1833193,0.49399084
0.075644806,0.0177832,-0.07202591,-0.14941584,2.1153562,0.47861373
0.07329011,0.01722964,-0.06978387,-0.14476478,2.049509,0.4637153
0.07100873,0.016693315,-0.06761163,-0.14025852,1.9857115,0.4492807
0.06879836,0.016173683,-0.065507,-0.13589254,1.9239001,0.43529546
0.066656806,0.015670229,-0.063467905,-0.13166247,1.864013,0.4217456
0.064581916,0.015182448,-0.06149228,-0.1275641,1.8059901,0.40861753
0.06257162,0.014709851,-0.059578158,-0.1235933,1.7497735,0.39589816
0.060623907,0.014251965,-0.057723623,-0.11974612,1.695307,0.38357472
0.058736823,0.013808334,-0.05592682,-0.1160187,1.6425359,0.37163493
0.056908485,0.013378513,-0.054185946,-0.112407304,1.5914077,0.3600668
0.05513706,0.012962072,-0.05249927,-0.10890833,1.541871,0.34885877
0.05342078,0.012558595,-0.050865095,-0.10551829,1.4938763,0.33799967
0.051757924,0.012167677,-0.049281795,-0.10223377,1.4473758,0.3274786
0.050146833,0.011788929,-0.047747776,-0.09905149,1.4023226,0.317285
