ax,ay,az,gx,gy,gz
-0.9218266,-2.0318365,-2.6627514,45.499504,-6.7136974,2.7745707
-1.264489,-2.3840234,-3.295618,45.980495,-12.210364,5.2042804
-1.8657428,-2.9140081,-3.698083,44.356426,-30.572857,7.5067472
-1.7064359,-3.1974933,-3.7088342,39.47437,-42.24385,9.50909
-1.3273215,-3.4039774,-3.5340521,35.864548,-47.083447,11.342063
-1.0561959,-3.5739393,-3.3427372,31.989843,-47.291393,14.70729
-0.9586852,-3.763918,-3.2391548,29.14888,-45.58546,18.932688
-1.0294745,-3.9649932,-3.2476804,27.940243,-46.00827,23.87076
-1.0638233,-4.066851,-3.2839174,28.724043,-47.876072,27.650974
-1.0280848,-4.064931,-3.2910566,29.727465,-50.491184,30.162697
-0.93573433,-4.0910544,-3.19162,30.60962,-53.114254,31.892328
-0.8361641,-4.2242427,-2.992122,32.021442,-55.374203,33.861504
-0.7284875,-4.3819904,-2.7595494,34.029335,-56.268364,37.76717
-0.6285287,-4.4532356,-2.5646186,35.44271,-56.296337,42.877228
-0.54146576,-4.488849,-2.4265783,37.100952,-56.49758,48.108997
-0.42008036,-4.440157,-2.313882,39.10638,-57.15228,52.860947
-0.254318,-4.272546,-2.1993155,41.24187,-57.65526,56.636616
-0.094328165,-4.100713,-2.0589204,43.072044,-57.697403,59.8989
-0.020486547,-4.0259776,-1.9084918,45.200176,-57.611187,63.268894
0.024950633,-4.0098567,-1.768943,47.888172,-57.342506,67.06337
0.13210064,-3.9401703,-1.649977,51.447994,-56.389763,71.43931
0.28367907,-3.6487741,-1.5991217,54.47941,-55.338547,75.868996
0.48002207,-3.148373,-1.5591769,55.584503,-54.600586,78.288124
0.7402432,-2.6341002,-1.4120713,56.95085,-53.19475,78.45866
0.9843018,-2.079856,-1.2669337,58.06981,-51.070442,77.48846
1.2202076,-1.4554046,-1.1411314,57.60107,-48.502254,76.36578
1.4736109,-0.78830945,-1.0229743,55.983063,-45.524105,74.697136
1.7542719,-0.106355146,-0.9149949,53.987003,-42.06265,70.74695
2.0616071,0.5902187,-0.8335613,51.599026,-38.32726,64.63296
2.3383145,1.2103583,-0.76850086,48.47853,-34.316624,56.606476
2.5270293,1.6584527,-0.7240005,44.969296,-30.041544,47.59892
2.5797613,1.902691,-0.68656653,41.05341,-26.166822,38.822693
2.601582,2.0034754,-0.6280737,37.01663,-22.129784,30.554075
2.6257927,1.981272,-0.5537543,33.164993,-17.950851,22.644846
2.6639369,1.921999,-0.49768585,29.63235,-13.297667,15.007682
2.6654718,1.8525829,-0.50172037,26.14027,-8.750156,7.5467253
2.5550504,1.6929127,-0.55895615,23.600262,-5.4966335,0.37505004
2.3992841,1.4602783,-0.6036915,21.99294,-3.6398067,-6.096426
2.2681994,1.2400988,-0.6565465,20.711098,-2.2061644,-11.406043
2.173377,1.0699914,-0.73682487,18.927162,-1.105566,-15.445862
2.1305683,0.88501704,-0.8054409,17.50822,-0.024698278,-19.019003
2.1016717,0.6962271,-0.88538164,16.945862,0.97236246,-22.487875
2.027292,0.50387543,-1.0036403,16.859812,0.96815354,-25.43217
1.9468299,0.3212143,-1.1312615,16.86578,0.33123466,-28.110847
1.8830292,0.17430787,-1.2675109,16.822351,-0.6972409,-30.485176
1.8202698,0.06316698,-1.425501,16.40534,-2.0155742,-32.159733
1.7617215,-0.024405768,-1.5847404,15.535733,-3.673494,-33.29121
1.7134397,-0.09233588,-1.7248559,14.249265,-5.5634255,-34.33907
1.6649766,-0.15117133,-1.8416001,12.816609,-7.6170177,-35.434452
1.6023557,-0.20785388,-1.9516337,10.970758,-9.924796,-36.18861
1.5337762,-0.26506028,-2.050096,8.735693,-12.461736,-36.514023
1.46223,-0.32218042,-2.1353061,6.3653693,-15.269792,-36.69173
1.3694172,-0.40031376,-2.2078564,4.2605047,-18.741873,-36.762764
1.2581396,-0.48615432,-2.252666,2.1962054,-22.653934,-36.553017
1.1698498,-0.5776809,-2.2615883,0.006461005,-26.776375,-35.801086
1.1337842,-0.66300005,-2.2333858,-2.2094326,-30.61007,-34.565212
1.1201118,-0.7522782,-2.1868432,-4.18998,-33.970806,-33.173717
1.0881219,-0.8447869,-2.1495202,-5.80293,-37.270153,-31.710451
1.0159836,-0.9412996,-2.091482,-7.222488,-40.7504,-30.199928
0.9609035,-1.0697895,-1.9873636,-8.488252,-44.24613,-28.377254
0.9572036,-1.2304213,-1.8392001,-9.314853,-47.25779,-26.061747
1.0007718,-1.3955055,-1.6656724,-9.32354,-49.307816,-23.245955
1.0554938,-1.5285432,-1.4933947,-8.357467,-49.962975,-20.307133
1.0339712,-1.6063946,-1.3463498,-7.853802,-50.479393,-17.253344
0.98731947,-1.7095971,-1.1692513,-7.3752804,-51.211765,-14.30636
0.96162194,-1.8441471,-0.95546097,-6.5328894,-51.89759,-11.37572
1.0028799,-1.9748982,-0.7130671,-5.0090423,-51.709255,-8.032064
1.1152992,-2.01489,-0.47578934,-3.1207852,-49.455593,-3.8367915
1.2289859,-1.8919994,-0.30058888,-1.6390682,-46.340076,0.11609444
1.2703756,-1.7340318,-0.18054786,-0.32370028,-43.492287,2.9908535
1.2509414,-1.6349454,-0.05855225,0.926447,-41.559475,4.8545036
1.253932,-1.6240412,0.09392527,2.5290906,-39.74902,6.4195633
1.3058841,-1.6358207,0.2501901,4.5322704,-36.831665,9.347729
1.4173039,-1.5215558,0.34786752,6.5468874,-32.860558,12.870493
1.523704,-1.3035866,0.3843026,8.5282545,-28.38949,15.614418
1.5781426,-1.0598708,0.36957812,10.2941265,-24.300354,16.63068
1.561984,-0.9038337,0.33611342,11.931006,-21.18973,16.21299
1.5310965,-0.8576016,0.3171917,13.54546,-18.600544,16.188639
1.5652356,-0.7985437,0.30024076,14.924576,-15.427067,17.569107
1.6196777,-0.67755234,0.251112,15.970416,-11.702023,19.670782
1.6601698,-0.5300352,0.17143594,16.972878,-7.8722897,21.400778
1.6734493,-0.3827375,0.06630931,18.04293,-4.2908235,21.906832
1.6537735,-0.27075323,-0.06749371,19.45492,-1.0299598,21.346308
1.5902127,-0.21351217,-0.21897854,20.685379,1.786644,20.790346
1.5372337,-0.14396591,-0.3668054,21.274284,4.043196,20.307802
1.5212747,-0.013966964,-0.511099,20.66566,5.744652,19.37498
1.5253459,0.07657512,-0.62555367,19.25279,7.299839,17.811049
1.5234216,0.09487615,-0.70725065,17.869646,8.797804,15.894917
1.4953158,0.09174469,-0.7791362,16.270256,10.322715,13.976624
1.4303077,0.05151281,-0.85563153,14.517025,11.65954,12.545863
1.3357238,-0.009025843,-0.93120235,13.154044,12.489297,11.68057
1.2426356,-0.028972128,-0.9958596,11.994825,12.770958,11.20013
1.1689919,0.0095292,-1.0485777,10.872319,12.545048,10.404384
1.1324121,0.009231014,-1.0157658,10.532105,12.152491,10.078812
1.0969883,0.008942253,-0.9839909,10.202643,11.772341,9.76353
1.0626832,0.008662609,-0.9532194,9.883585,11.404195,9.458203
1.0294603,0.008391788,-0.9234187,9.574593,11.047663,9.162509
0.9972847,0.0081295045,-0.8945574,9.27534,10.70237,8.876137
0.96612257,0.007875483,-0.8666052,8.985514,10.367953,8.598784
0.93594134,0.0076294555,-0.83953285,8.70481,10.044063,8.330162
0.9067094,0.0073911673,-0.813312,8.432936,9.73036,8.069989
0.87839633,0.00716037,-0.7879154,8.169608,9.426518,7.817994
0.8509728,0.0069368226,-0.76331663,7.914552,9.132222,7.573916
0.8244102,0.0067202942,-0.7394902,7.667505,8.847166,7.3375015
0.79868126,0.0065105613,-0.71641153,7.42821,8.571055,7.1085057
0.7737593,0.0063074064,-0.6940567,7.1964207,8.303605,6.8866925
0.74961865,0.00611062,-0.6724027,6.9718986,8.044539,6.6718335
0.7262345,0.0059200013,-0.65142727,6.754412,7.7935925,6.4637074
0.7035828,0.005735353,-0.6311089,6.5437384,7.5505056,6.2621007
0.68164045,0.005556487,-0.6114267,6.339661,7.315031,6.0668073
0.6603849,0.005383219,-0.5923606,6.1419716,7.0869265,5.877626
0.6397944,0.005215373,-0.5738911,5.950468,6.8659596,5.6943645
0.619848,0.005052777,-0.55599934,5.7649546,6.6519046,5.516835
0.6005253,0.0048952657,-0.538667,5.5852423,6.4445434,5.3448577
0.5818067,0.0047426783,-0.5218766,5.411148,6.2436643,5.1782565
0.56367314,0.0045948597,-0.5056109,5.242495,6.0490637,5.016862
0.54610616,0.00445166,-0.4898534,5.0791116,5.8605433,4.860511
0.52908796,0.004312934,-0.4745882,4.920832,5.677912,4.7090435
0.51260126,0.0041785403,-0.45979974,4.767496,5.500985,4.5623064
0.49662933,0.004048343,-0.44547305,4.6189475,5.329582,4.4201517
0.48115605,0.0039222105,-0.43159363,4.475037,5.163531,4.282435
0.46616575,0.0038000147,-0.41814741,4.3356185,5.002662,4.149017
0.45164326,0.0036816327,-0.40512085,4.2005506,4.846814,4.019762
0.43757394,0.0035669447,-0.39250076,4.0696974,4.695829,3.8945408
0.42394355,0.0034558347,-0.3802744,3.9429266,4.549554,3.7732263
0.41073832,0.0033481906,-0.36842942,3.8201106,4.407842,3.655696
0.397945,0.0032439039,-0.3569539,3.701125,4.2705507,3.5418313
0.38555065,0.0031428696,-0.34583625,3.58585,4.1375403,3.4315178
0.3735428,0.0030449857,-0.33506528,3.4741697,4.008678,3.324644
0.3619093,0.0029501538,-0.3246301,3.3659713,3.883833,3.2211027
0.3506385,0.0028582783,-0.3145203,3.2611463,3.7628803,3.120789
0.33971906,0.002769267,-0.30472562,3.159589,3.6456983,3.0236027
0.32913995,0.00268303,-0.29523626,3.061197,3.5321686,2.9294455
0.3188906,0.002599481,-0.28604263,2.9658718,3.4221773,2.838223
0.30896065,0.0025185356,-0.27713555,2.8735175,3.315614,2.7498436
0.29934013,0.0024401126,-0.26850602,2.784041,3.2123716,2.6642182
0.2900194,0.0023641335,-0.2601454,2.6973526,3.112346,2.5812607
0.28098908,0.0022905217,-0.25204527,2.6133654,3.0154371,2.5008883
0.27224013,0.0022192034,-0.2441975,2.531995,2.9215477,2.42302
0.26376376,0.0021501067,-0.23659424,2.4531596,2.830583,2.3475776
0.25555143,0.002083163,-0.22922784,2.37678,2.7424526,2.2744853
0.24759492,0.0020183043,-0.22209091,2.30278,2.6570673,2.20367
0.23988627,0.001955466,-0.2151763,2.2310848,2.5743418,2.1350605
0.23241772,0.0018945853,-0.20847706,2.1616228,2.4941928,2.0685883
0.22518179,0.0018356006,-0.20198649,2.0943244,2.4165406,2.0041864
0.21817124,0.0017784531,-0.19569808,2.029122,2.3413067,1.9417902
0.21137902,0.0017230854,-0.1896055,1.9659505,2.268416,1.8813375
0.20479834,0.001669442,-0.18370268,1.9047462,2.1977954,1.8227674
0.1984226,0.0016174694,-0.17798369,1.845448,2.129374,1.7660214
0.19224541,0.0015671151,-0.1724428,1.7879964,2.0630834,1.7110425
0.18626057,0.0015183289,-0.16707444,1.7323339,1.9988571,1.6577756
0.1804621,0.001471062,-0.16187325,1.6784048,1.9366308,1.6061676
0.1748442,0.0014252667,-0.15683404,1.6261549,1.8763422,1.5561665
0.16940123,0.0013808976,-0.15195172,1.575532,1.8179308,1.5077224
0.16412772,0.00133791,-0.14722143,1.5264853,1.7613382,1.4607866
0.15901843,0.0012962609,-0.14263843,1.4789659,1.7065078,1.4153124
0.15406822,0.0012559085,-0.13819812,1.4329259,1.6533846,1.371254
0.14927214,0.0012168125,-0.13389607,1.3883196,1.6019154,1.3285674
0.14462538,0.0011789339,-0.12972796,1.345102,1.5520487,1.2872099
0.14012331,0.0011422345,-0.12568963,1.3032299,1.5037346,1.2471399
0.1357614,0.0011066778,-0.12177702,1.2626616,1.4569247,1.2083176
0.13153528,0.0010722281,-0.117986225,1.2233562,1.4115721,1.1707039
0.12744074,0.0010388509,-0.11431345,1.1852746,1.3676316,1.1342613
0.123473674,0.0010065128,-0.11075503,1.1483785,1.3250589,1.0989532
0.11963011,0.0009751815,-0.10730738,1.1126311,1.2838117,1.0647444
0.115906216,0.0009448256,-0.10396706,1.0779966,1.2438487,1.0316005
0.11229824,0.0009154147,-0.10073074,1.0444404,1.2051296,0.9994885
0.108802594,0.00088691944,-0.09759517,1.0119288,1.1676161,0.96837616
0.10541577,0.0008593113,-0.09455721,0.9804293,1.1312703,0.93823236
0.10213438,0.00083256257,-0.09161383,0.9499104,1.0960561,0.909027
0.09895514,0.0008066466,-0.088762075,0.9203416,1.061938,0.8807308
0.095874876,0.0007815374,-0.085999094,0.8916933,1.0288821,0.8533155
0.09289049,0.0007572098,-0.08332213,0.8639368,0.99685526,0.8267536
0.08999902,0.0007336395,-0.08072849,0.83704436,0.9658254,0.80101866
0.08719756,0.000710803,-0.0782156,0.8109891,0.93576145,0.7760848
0.0844833,0.00068867736,-0.075780936,0.7857449,0.9066334,0.7519271
0.08185354,0.0006672405,-0.07342206,0.76128656,0.87841207,0.7285214
0.07930564,0.00064647093,-0.07113661,0.7375896,0.8510693,0.7058443
0.076837055,0.00062634796,-0.0689223,0.71463025,0.82457757,0.6838731
0.074445315,0.0006068513,-0.06677693,0.6923857,0.7989106,0.6625859
