ax,ay,az,gx,gy,gz
-1.100919,-2.0491095,-3.3709397,19.1429,-54.04413,59.98145
-0.31621653,-1.7341126,-3.2742455,6.1830463,-53.361767,65.776505
0.05969542,-1.9315306,-2.9972131,1.0288581,-50.298874,65.64481
-0.0029007706,-2.3935976,-2.9734147,2.3758245,-51.104324,70.40343
-0.12781622,-2.6833248,-2.812527,1.6420711,-51.305515,74.853424
-0.16375794,-2.791998,-2.6265945,2.6328475,-50.986362,75.53616
-0.17107157,-2.8169756,-2.5050488,3.2762837,-51.244507,74.625114
-0.09541185,-2.9157517,-2.3340116,2.7649145,-51.33203,73.937454
0.0018822965,-3.1226423,-2.1183786,4.7391114,-51.489647,73.66714
0.04600424,-3.273447,-1.9367049,7.9310102,-52.704594,74.04669
0.101502635,-3.3452275,-1.7922491,11.791207,-54.42099,74.99067
0.19915701,-3.3410723,-1.6563641,14.708593,-56.021458,76.63312
0.34312332,-3.2730856,-1.5178074,17.262808,-56.99095,78.50443
0.5027193,-3.0988348,-1.3801379,19.348425,-57.16167,80.3867
0.6762247,-2.8902254,-1.2264372,20.96215,-56.749474,82.24184
0.78846574,-2.719284,-1.090269,22.177155,-55.807175,84.53473
0.8019154,-2.6151192,-0.9844521,22.971344,-55.122833,87.34429
0.80319446,-2.5156841,-0.89973795,25.176756,-54.84834,89.63603
0.8296106,-2.2169852,-0.8825028,27.89049,-55.941486,90.67971
0.99018526,-1.7404039,-0.8463252,29.55903,-57.21305,90.85439
1.1900153,-1.2920183,-0.7723148,30.28617,-57.90053,90.92471
1.3552464,-0.8673652,-0.68381846,29.107222,-57.92386,91.43874
1.4657558,-0.5547711,-0.57014084,27.510021,-57.120422,91.62845
1.522111,-0.34676045,-0.45257336,27.269878,-56.299767,90.2236
1.6445436,-0.0820427,-0.33271447,27.643547,-55.349987,87.45526
1.8467025,0.24502552,-0.20383023,27.815615,-53.558945,83.82481
2.072932,0.586285,-0.07915773,27.38765,-50.704857,79.79209
2.2497785,0.87672865,0.020953424,26.467234,-47.308186,75.56404
2.3704963,1.1105773,0.10372424,25.374779,-43.78585,70.685585
2.451001,1.2939303,0.18113841,24.205986,-40.528873,65.214
2.54054,1.4171011,0.2669858,23.238865,-37.308456,59.103226
2.6355677,1.5377809,0.33302477,22.275923,-34.0942,52.762066
2.7380779,1.6457254,0.3874919,21.257399,-30.497135,46.436874
2.7738538,1.7208014,0.4037071,20.18409,-27.053905,40.655563
2.7735488,1.754518,0.42391273,19.208237,-23.732492,34.89073
2.7752519,1.8150649,0.4181314,18.245596,-20.587986,29.022667
2.799524,1.9075003,0.3896462,16.789072,-17.611631,22.749311
2.8454716,1.9860739,0.34914872,14.939031,-14.60634,15.964055
2.8570206,1.9644902,0.31326133,12.787852,-11.531424,9.381371
2.794529,1.8091776,0.2916414,10.606236,-8.53203,3.719956
2.683829,1.5962458,0.27554289,8.567089,-5.695099,-0.86309856
2.5569952,1.3812258,0.25073653,6.9811554,-3.0518298,-4.9481974
2.4283042,1.1908656,0.20626044,5.6368427,-0.9204814,-9.050097
2.3023074,1.0035491,0.14294083,5.022543,0.71361464,-13.1720085
2.1543827,0.7686036,0.071120985,5.0432796,1.9255354,-16.475117
2.0183234,0.5308933,-0.00036376412,5.5382476,2.7663949,-18.982248
1.9082065,0.35500365,-0.087400466,5.8779798,3.1617615,-20.869814
1.8270164,0.2253234,-0.18386656,6.0427127,3.2940567,-22.454655
1.752315,0.1323029,-0.29703036,6.06768,3.050655,-24.021814
1.6872416,0.07248505,-0.43736014,5.919901,2.4712722,-25.717522
1.6056471,0.02373276,-0.59482074,5.5617204,1.3833555,-27.203056
1.5273594,-0.02186873,-0.7454184,4.9653707,-0.0007105704,-28.38359
1.4601989,-0.06252964,-0.8992444,3.9492123,-1.4973279,-29.14405
1.391405,-0.12125393,-1.0503155,2.250546,-3.0493543,-29.112583
1.3082081,-0.20204386,-1.1822855,0.55843383,-4.561852,-28.892231
1.1934884,-0.2754375,-1.3168228,-1.1358387,-6.3147583,-28.7686
1.0653261,-0.34947634,-1.4444159,-2.7924395,-8.499501,-28.826126
0.94353145,-0.42693576,-1.5594022,-4.497204,-11.155396,-28.70152
0.8498506,-0.489598,-1.6528893,-6.322345,-14.025205,-27.885485
0.79161525,-0.5196432,-1.7176801,-8.347027,-16.566399,-26.60539
0.73666775,-0.51861537,-1.7565393,-10.667106,-18.901016,-25.273312
0.6858144,-0.53453505,-1.7627422,-13.000892,-20.960108,-24.10848
0.6271628,-0.567353,-1.7552527,-15.103614,-22.862804,-23.049236
0.5638951,-0.59565175,-1.7478607,-17.279346,-24.794252,-21.762857
0.53790164,-0.6231398,-1.7016307,-19.413746,-26.402122,-20.324286
0.52140075,-0.6615057,-1.6320943,-21.571323,-27.721897,-18.758446
0.50562024,-0.7468974,-1.5334796,-23.706512,-28.959692,-17.140135
0.49846646,-0.884653,-1.4005425,-25.40834,-29.929182,-15.578436
0.4851338,-1.0607336,-1.2477698,-26.577358,-30.696497,-13.747594
0.47148195,-1.2614381,-1.061207,-27.100037,-31.371973,-11.637428
0.47474608,-1.457589,-0.8445945,-26.930965,-31.892778,-9.292447
0.5034656,-1.6383919,-0.616601,-26.111563,-32.06836,-6.6934276
0.54142886,-1.8027393,-0.39706504,-24.828896,-31.840797,-3.7965727
0.5819158,-1.937094,-0.19249865,-22.990326,-31.02648,-0.7279944
0.6027316,-2.0103328,-0.018596785,-20.815742,-30.12092,2.2939928
0.6215055,-2.0427268,0.14205155,-18.335678,-29.304865,5.126305
0.65253335,-2.058036,0.29442403,-15.633576,-28.517391,7.655895
0.7038703,-2.0781217,0.43640724,-12.662778,-27.443245,9.945121
0.7672678,-2.0865428,0.54917103,-9.073844,-25.822302,12.1562195
0.82016397,-1.9804643,0.59702563,-5.4605756,-24.32889,14.130265
0.88930917,-1.7789214,0.6202745,-2.5369937,-23.175957,15.450256
0.9783573,-1.5813217,0.6557442,-0.034242883,-22.056328,15.888077
1.0711803,-1.4445611,0.70165026,2.3669343,-20.506104,15.875963
1.1465633,-1.3537188,0.73479706,4.7294493,-18.023178,16.203865
1.1760794,-1.2330159,0.71127063,7.0891557,-15.266945,16.876045
1.1783692,-1.0772352,0.6512235,8.832941,-12.970656,17.450054
1.189907,-0.9432491,0.60301054,10.442539,-10.818534,17.555597
1.2009201,-0.8408553,0.551378,11.855317,-8.74266,17.253815
1.2039325,-0.7890013,0.4956825,13.094927,-6.6888337,16.871685
1.1975415,-0.7803202,0.4353013,14.471108,-4.6773467,16.61838
1.1871555,-0.73714244,0.34895632,15.707996,-2.754553,16.617867
1.170648,-0.6607002,0.24076742,16.590303,-1.0399,16.753054
1.1406085,-0.5711215,0.11625294,17.228773,0.42937842,16.841919
1.0878315,-0.48422042,-0.016463483,17.48991,1.3556037,16.725548
1.033438,-0.4102324,-0.14542325,17.590046,1.9871615,16.488728
0.9839205,-0.33723596,-0.2709051,17.440783,2.3563867,16.169699
0.94537544,-0.26594847,-0.3860192,17.090172,2.536513,15.709983
0.91373384,-0.20156513,-0.48597154,16.582712,2.6212914,15.110234
0.88233894,-0.15011498,-0.5715579,15.915787,2.6099396,14.445448
0.8547751,-0.11537297,-0.63351977,15.157359,2.4959795,13.748198
0.8339187,-0.10399263,-0.66814053,14.378937,2.3970664,13.027154
0.80831575,-0.117170304,-0.6828437,13.746984,2.2898026,12.254427
0.7830801,-0.11351224,-0.66152525,13.317802,2.2183146,11.871843
0.7586368,-0.109969035,-0.6408762,12.902096,2.1490715,11.501272
0.73496056,-0.106537014,-0.6208751,12.499435,2.0820012,11.142329
0.7120269,-0.10321265,-0.6015014,12.109404,2.0170348,10.794645
0.68981224,-0.0999925,-0.58273506,11.731601,1.9541049,10.457861
0.6682938,-0.09687326,-0.5645568,11.365637,1.8931471,10.131631
0.6474493,-0.09385173,-0.54694796,11.011136,1.8340988,9.815619
0.6272575,-0.09092481,-0.5298905,10.667736,1.7768995,9.509503
0.6076978,-0.0880895,-0.51336694,10.335084,1.7214905,9.212969
0.58875006,-0.085342914,-0.4973604,10.012841,1.6678152,8.925714
0.57039505,-0.08268224,-0.48185456,9.700678,1.615819,8.647443
0.552614,-0.08010477,-0.4668336,9.398276,1.5654486,8.377874
0.53538877,-0.07760787,-0.45228222,9.105329,1.5166531,8.116733
0.518702,-0.07518901,-0.4381856,8.821536,1.4693824,7.8637524
0.5025365,-0.072845735,-0.42452946,8.546612,1.4235889,7.618677
0.48687604,-0.070575655,-0.41129994,8.280275,1.3792257,7.3812575
0.47170466,-0.068376474,-0.39848357,8.022257,1.3362483,7.151253
0.45700705,-0.06624596,-0.3860674,7.7722945,1.2946126,6.9284306
0.44276825,-0.06418196,-0.37403885,7.530136,1.254277,6.712564
0.4289739,-0.062182385,-0.36238575,7.2955365,1.2152003,6.5034356
0.41561007,-0.060245216,-0.35109633,7.068259,1.1773431,6.3008337
0.40266323,-0.058368493,-0.34015918,6.848072,1.1406672,6.1045537
0.3901203,-0.056550317,-0.32956326,6.634755,1.1051354,5.9143977
0.37796864,-0.05478886,-0.31929785,6.4280925,1.0707122,5.730173
0.366196,-0.053082343,-0.30935264,6.2278757,1.0373626,5.5516944
0.35479048,-0.051429044,-0.29971758,6.033903,1.0050529,5.378782
0.34374064,-0.049827304,-0.29038295,5.8459787,0.9737508,5.2112613
0.3330353,-0.0482755,-0.28133938,5.6639137,0.9434247,5.0489635
0.32266372,-0.046772074,-0.27257773,5.487525,0.914044,4.8917255
0.31261545,-0.045315515,-0.26408923,5.316634,0.88557917,4.7393894
0.30288038,-0.04390436,-0.2558653,5.1510706,0.85800165,4.5918016
0.29344872,-0.042537183,-0.24789768,4.990667,0.83128357,4.4488134
0.28431103,-0.04121262,-0.24017839,4.8352623,0.8053982,4.3102818
0.27545807,-0.039929327,-0.23269965,4.6847005,0.78031945,4.176067
0.26688096,-0.038686022,-0.22545394,4.5388303,0.7560222,4.0460343
0.25857112,-0.03748146,-0.218434,4.3975053,0.732482,3.9200532
0.25052017,-0.036314428,-0.21163277,4.260583,0.70967525,3.7979972
0.24272004,-0.03518375,-0.20504344,4.127927,0.687579,3.679744
0.23516291,-0.0340883,-0.19865938,3.9994032,0.66617113,3.5651746
0.2278412,-0.03302697,-0.19247419,3.8748832,0.64543015,3.454174
0.22074756,-0.031998705,-0.18648167,3.754242,0.6253352,3.3466313
0.21387488,-0.031002467,-0.1806758,3.6373587,0.6058662,3.2424383
0.20721625,-0.03003726,-0.17505078,3.5241158,0.5870036,3.1414907
0.20076501,-0.029102113,-0.16960095,3.4143999,0.5687285,3.043687
0.19451469,-0.028196093,-0.16432084,3.3081012,0.5510226,2.9489293
0.18845904,-0.027318288,-0.15920518,3.205113,0.5338681,2.857123
0.18259196,-0.026467819,-0.15424883,3.105332,0.5172478,2.7681756
0.1769076,-0.025643837,-0.14944685,3.0086582,0.50114506,2.681998
0.17140025,-0.024845513,-0.14479437,2.914995,0.48554382,2.5985043
0.16606441,-0.02407205,-0.14028679,2.8242486,0.47042838,2.5176103
0.1608947,-0.02332267,-0.13591957,2.736328,0.45578364,2.4392354
0.15588598,-0.022596626,-0.13168834,2.6511447,0.4415949,2.363301
0.15103322,-0.021893188,-0.12758885,2.568614,0.42784795,2.289731
0.14633156,-0.021211652,-0.123617016,2.4886532,0.41452906,2.2184517
0.1417763,-0.020551339,-0.11976884,2.411182,0.40162486,2.1493917
0.13736285,-0.019911584,-0.11604048,2.3361228,0.38912243,2.082482
0.13308682,-0.019291747,-0.11242821,2.2634006,0.37700927,2.0176556
0.12894394,-0.01869121,-0.108928405,2.1929426,0.36527324,1.9548475
0.12493002,-0.018109368,-0.105537556,2.1246781,0.3539026,1.8939947
0.121041074,-0.017545642,-0.10225228,2.0585392,0.342886,1.8350366
0.11727321,-0.016999468,-0.09906929,1.9944593,0.33221236,1.7779142
0.11362265,-0.016470296,-0.09598539,1.9323744,0.321871,1.72257
0.11008573,-0.0159576,-0.092997506,1.8722223,0.31185162,1.6689488
0.106658936,-0.015460864,-0.090102635,1.8139429,0.30214417,1.616997
0.10333882,-0.0149795925,-0.08729789,1.7574779,0.2927389,1.5666625
0.100122064,-0.0145133035,-0.08458046,1.7027706,0.28362647,1.5178951
0.09700545,-0.014061531,-0.081947625,1.6497664,0.2747977,1.4706458
0.093985856,-0.013623823,-0.079396755,1.5984124,0.2662438,1.4248674
0.091060266,-0.013199741,-0.07692529,1.5486571,0.25795615,1.3805141
0.088225745,-0.01278886,-0.074530765,1.5004506,0.24992651,1.3375416
0.08547947,-0.012390771,-0.07221078,1.4537448,0.24214683,1.2959068
0.08281869,-0.012005074,-0.06996302,1.4084929,0.23460934,1.2555681
0.08024073,-0.011631384,-0.06778523,1.3646498,0.22730649,1.2164851
0.07774302,-0.011269325,-0.06567524,1.3221714,0.22023097,1.1786189
0.07532307,-0.010918538,-0.06363092,1.2810154,0.2133757,1.1419313
0.072978444,-0.0105786715,-0.061650254,1.2411406,0.20673385,1.1063858
0.070706815,-0.010249384,-0.059731234,1.202507,0.20029874,1.0719467
0.06850589,-0.009930346,-0.057871953,1.165076,0.19406395,1.0385798
