ax,ay,az,gx,gy,gz
-1.5963782,-1.8227439,-4.85459,42.946754,-31.51665,6.5473323
-1.6976855,-1.5951147,-5.079201,45.923363,-39.06691,10.348904
-1.767591,-1.4583786,-5.08463,47.315765,-44.055653,12.823093
-1.7507994,-1.2149471,-5.0499578,47.357197,-47.330772,13.374622
-1.7423548,-0.9732554,-5.063778,46.587658,-50.492283,13.276634
-1.7209479,-0.7845546,-5.054878,44.06962,-53.075367,13.927897
-1.6597253,-0.5818028,-4.9930944,39.62643,-54.969307,15.015066
-1.6321133,-0.39810434,-4.9375386,34.25555,-56.51395,15.897105
-1.6471657,-0.25542495,-4.9273596,28.95655,-58.30545,16.278215
-1.6724126,-0.15096433,-4.948003,23.86164,-60.44265,16.404411
-1.7212504,-0.11412393,-4.980089,20.058935,-63.88529,16.252054
-1.7271734,-0.093178034,-5.0024815,16.716457,-67.84641,16.31899
-1.7007046,-0.096851416,-5.0284166,13.184288,-72.007416,16.845604
-1.6718236,-0.1326724,-5.05361,9.972193,-76.512665,17.574142
-1.6222789,-0.20211807,-5.041407,7.8044577,-81.07959,18.195753
-1.5313449,-0.24780199,-4.997026,6.3881145,-85.54491,18.444366
-1.4203094,-0.26701623,-4.9446335,4.681895,-89.73386,18.664843
-1.3474941,-0.31615296,-4.9120183,2.7131777,-94.0541,19.043213
-1.2931585,-0.39478746,-4.8668294,1.1056826,-98.72658,19.528885
-1.184199,-0.45041823,-4.7650847,0.13831033,-103.430336,19.842243
-1.0089589,-0.46759093,-4.6085505,-0.4463418,-107.70837,19.91735
-0.7852441,-0.43984863,-4.3919663,-1.4209017,-111.345474,20.011366
-0.5816206,-0.43242112,-4.1593194,-2.582139,-114.466034,20.106848
-0.38253662,-0.44585282,-3.907855,-3.3338473,-117.04101,20.022291
-0.1762054,-0.45486256,-3.6322346,-3.4043605,-119.06659,19.637527
0.041263673,-0.44005468,-3.3312323,-3.3570862,-120.42208,19.25238
0.2503578,-0.4122705,-3.0138257,-3.821537,-120.96898,19.124756
0.44483024,-0.37982923,-2.6935878,-4.5879817,-120.86971,19.121159
0.62824667,-0.3416389,-2.383072,-5.2052174,-120.23014,18.75244
0.78831685,-0.3522474,-2.1005538,-4.462625,-119.05846,17.19078
0.9197547,-0.40185222,-1.843924,-2.278335,-117.28484,15.103725
1.0264108,-0.40865332,-1.6067097,-1.065583,-115.38353,14.220946
1.1138395,-0.39097807,-1.3865277,-0.78357404,-113.50646,14.24296
1.2002593,-0.36276546,-1.1689953,-0.8272508,-111.49419,14.393604
1.2826188,-0.33881328,-0.9561787,-0.67896837,-109.1198,14.292105
1.3487931,-0.3144558,-0.76079535,-0.23910426,-106.31439,13.831088
1.3953224,-0.2848237,-0.5924936,0.162384,-103.371376,13.379524
1.4288327,-0.25325134,-0.4450072,0.5052906,-100.34308,13.030044
1.4480177,-0.2171754,-0.3168151,0.82267386,-97.31847,12.704148
1.459645,-0.17599596,-0.202883,1.0827414,-94.230835,12.288719
1.4625906,-0.14018871,-0.10647159,1.3705857,-90.99152,11.766463
1.453207,-0.10700122,-0.032093998,1.6695498,-87.72537,11.234909
1.4353842,-0.076988615,0.028787917,1.8228645,-84.47565,10.744257
1.4095526,-0.05131214,0.07842089,1.7456623,-81.27656,10.309328
1.3839825,-0.031770695,0.1213873,1.5478489,-78.08998,9.899351
1.3583378,-0.017531203,0.15939024,1.3392158,-74.892784,9.440814
1.3382033,-0.008676782,0.19848336,1.1160282,-71.66313,8.944308
1.3295532,0.0011556117,0.24401431,0.7135077,-68.39928,8.423999
1.3393536,0.010083035,0.3048723,-0.13695987,-64.814514,8.143027
1.3599894,0.020624526,0.37743232,-1.6947045,-60.816647,8.388428
1.3885231,0.03493756,0.4537763,-4.015186,-56.274605,9.46826
1.4265646,0.03104649,0.5350704,-5.824394,-51.554962,10.543436
1.4629929,0.028572805,0.62109154,-6.551455,-46.882202,10.992547
1.4143299,0.027622398,0.60043234,-6.3335357,-45.322773,10.626905
1.3674765,0.026707333,0.58054143,-6.1237206,-43.821335,10.274861
1.3223479,0.025825953,0.5613828,-5.9216294,-42.37517,9.935777
1.2788646,0.02497671,0.5429227,-5.726907,-40.981735,9.6090555
1.2369525,0.024158152,0.5251295,-5.5392194,-39.638645,9.294139
1.1965419,0.023368917,0.5079738,-5.358256,-38.34367,8.990504
1.1575673,0.022607725,0.49142766,-5.1837225,-37.09471,8.697659
1.1199667,0.021873375,0.47546497,-5.015343,-35.88979,8.415138
1.0836827,0.021164732,0.46006107,-4.8528585,-34.727047,8.1425085
1.0486599,0.020480726,0.44519272,-4.696023,-33.604733,7.8793573
1.014847,0.019820347,0.430838,-4.544605,-32.521187,7.625296
0.98219514,0.019182643,0.4169761,-4.3983855,-31.47484,7.3799577
0.9506577,0.018566705,0.40358737,-4.2571573,-30.46421,7.142994
0.92019105,0.01797168,0.3906532,-4.1207237,-29.487894,6.9140754
0.8907534,0.017396752,0.3781559,-3.9888988,-28.544554,6.6928887
0.8623053,0.016841149,0.36607867,-3.8615046,-27.632921,6.479137
0.83480906,0.016304137,0.35440555,-3.7383733,-26.751795,6.2725377
0.8082289,0.015785016,0.34312138,-3.6193442,-25.900023,6.072821
0.7825308,0.015283123,0.3322116,-3.504265,-25.076515,5.879732
0.75768214,0.014797819,0.3216625,-3.3929899,-24.280231,5.693026
0.73365194,0.0143285,0.31146085,-3.28538,-23.510174,5.5124693
0.7104106,0.013874588,0.30159408,-3.1813023,-22.765394,5.3378396
0.68792975,0.013435528,0.29205015,-3.0806303,-22.044987,5.1689243
0.6661823,0.013010792,0.2828176,-2.9832428,-21.348082,5.00552
0.6451423,0.012599873,0.27388543,-2.8890233,-20.673847,4.847431
0.624785,0.012202288,0.26524302,-2.7978609,-20.021488,4.694472
0.6050866,0.01181757,0.25688037,-2.709649,-19.390245,4.546463
0.5860242,0.011445275,0.24878772,-2.6242855,-18.779383,4.403233
0.56757593,0.011084973,0.24095578,-2.541672,-18.188202,4.2646174
0.5497208,0.010736256,0.23337567,-2.4617147,-17.616026,4.130459
0.53243864,0.010398728,0.22603877,-2.384323,-17.062212,4.000605
0.51571,0.010072011,0.21893688,-2.30941,-16.526134,3.87491
0.49951616,0.00975574,0.21206203,-2.2368922,-16.007198,3.7532341
0.4838393,0.009449565,0.20540667,-2.1666894,-15.504827,3.6354423
0.4686621,0.009153148,0.19896342,-2.0987241,-15.018467,3.5214047
0.45396796,0.008866166,0.19272523,-2.032922,-14.547586,3.4109967
0.43974084,0.008588305,0.18668532,-1.9692112,-14.091673,3.304098
0.42596534,0.008319264,0.18083714,-1.907523,-13.650231,3.2005925
0.41262662,0.008058754,0.17517439,-1.8477906,-13.222787,3.1003687
0.39971033,0.007806494,0.16969098,-1.7899499,-12.808879,3.003319
0.38720268,0.0075622145,0.16438104,-1.7339392,-12.408067,2.90934
0.37509033,0.0073256562,0.15923893,-1.6796987,-12.019921,2.818331
0.36336046,0.007096567,0.15425919,-1.6271709,-11.6440325,2.7301958
0.35200065,0.0068747057,0.14943655,-1.5763004,-11.280003,2.644841
0.34099892,0.006659838,0.14476594,-1.5270333,-10.927448,2.562177
0.33034375,0.006451738,0.14024244,-1.4793181,-10.585999,2.4821167
0.32002395,0.0062501887,0.13586132,-1.4331049,-10.255297,2.4045765
0.31002876,0.006054979,0.13161802,-1.3883452,-9.934997,2.3294752
0.30034775,0.005865905,0.12750809,-1.3449925,-9.624764,2.2567346
0.29097086,0.005682771,0.12352728,-1.3030019,-9.324279,2.1862793
0.28188843,0.005505387,0.119671464,-1.2623295,-9.033228,2.118036
0.27309096,0.00533357,0.115936644,-1.2229335,-8.75131,2.0519342
0.26456946,0.005167142,0.11231897,-1.1847732,-8.478235,1.987906
0.2563151,0.0050059315,0.10881471,-1.1478093,-8.213721,1.925885
0.24831945,0.0048497724,0.10542026,-1.1120037,-7.957497,1.8658075
0.24057423,0.0046985056,0.10213215,-1.0773197,-7.709298,1.807612
0.23307152,0.004551975,0.09894699,-1.0437217,-7.468871,1.7512386
0.22580366,0.004410031,0.09586153,-1.0111754,-7.2359695,1.6966298
0.21876322,0.0042725285,0.09287261,-0.97964746,-7.0103555,1.6437297
0.21194299,0.004139327,0.08997719,-0.9491057,-6.791799,1.5924844
0.20533603,0.0040102904,0.087172315,-0.919519,-6.5800767,1.5428414
0.19893564,0.0038852883,0.08445512,-0.8908572,-6.374973,1.4947505
0.19273527,0.0037641928,0.08182284,-0.86309123,-6.1762795,1.4481626
0.18672864,0.0036468809,0.07927282,-0.83619285,-5.9837947,1.4030303
0.18090965,0.003533234,0.076802455,-0.8101347,-5.7973228,1.3593079
0.17527239,0.003423136,0.07440924,-0.7848904,-5.6166744,1.316951
0.16981116,0.003316476,0.07209076,-0.7604343,-5.441667,1.2759167
0.16452041,0.003213146,0.069844656,-0.7367418,-5.2721233,1.2361635
0.15939482,0.0031130412,0.06766866,-0.7137888,-5.1078715,1.1976511
0.15442918,0.0030160605,0.06556058,-0.6915521,-4.9487457,1.1603407
0.14961849,0.0029221058,0.06351827,-0.67000926,-4.794585,1.1241944
0.1449579,0.0028310826,0.061539683,-0.6491385,-4.6452346,1.0891758
0.14044267,0.0027428987,0.059622813,-0.6289188,-4.500542,1.0552496
0.13606828,0.0026574652,0.057765733,-0.6093298,-4.360363,1.0223815
0.13183032,0.002574696,0.055966567,-0.5903517,-4.224556,0.9905386
0.1277245,0.0024945077,0.054223504,-0.57196534,-4.0929832,0.95968854
0.12374669,0.0024168196,0.052534785,-0.55415225,-3.9655128,0.92980033
0.119892895,0.0023415536,0.050898716,-0.5368945,-3.8420165,0.900844
0.11615924,0.0022686338,0.04931365,-0.52017474,-3.7223697,0.8727902
0.11254196,0.002197987,0.047777984,-0.50397617,-3.6064525,0.8456109
0.109037414,0.002129542,0.046290185,-0.4882824,-3.4941483,0.8192787
0.105642095,0.0020632301,0.044848755,-0.47307774,-3.3853438,0.79376715
0.10235258,0.0019989847,0.04345224,-0.45834693,-3.2799299,0.7690506
0.09916557,0.001936741,0.042099245,-0.4440751,-3.177801,0.7451042
0.09607786,0.001876437,0.0407884,-0.43024796,-3.0788538,0.721904
0.093086354,0.0018180116,0.039518405,-0.41685164,-2.9829898,0.69942653
0.09018804,0.0017614065,0.03828797,-0.40387267,-2.8901124,0.67764944
0.08738002,0.0017065649,0.037095867,-0.39129803,-2.8001282,0.6565507
0.08465948,0.0016534317,0.0359409,-0.3791151,-2.7129471,0.63610923
0.08202368,0.0016019534,0.034821913,-0.3673117,-2.6284819,0.6163045
0.07946998,0.0015520786,0.033737775,-0.3558759,-2.5466475,0.59711665
0.07699581,0.0015037574,0.03268741,-0.34479633,-2.4673622,0.5785265
0.074598715,0.0014569411,0.031669755,-0.33406183,-2.390546,0.5605153
0.07227627,0.0014115829,0.030683797,-0.32366166,-2.3161223,0.5430651
0.07002615,0.0013676373,0.029728545,-0.31358537,-2.2440164,0.5261583
0.06784611,0.0013250603,0.028803041,-0.3038229,-2.1741562,0.509778
0.06573396,0.0012838092,0.02790636,-0.29436442,-2.1064715,0.49390784
0.063687585,0.0012438426,0.027037602,-0.2852005,-2.0408945,0.4785319
0.061704934,0.0012051207,0.026195895,-0.27632195,-1.9773595,0.46363476
0.059784018,0.0011676045,0.0253804,-0.26771986,-1.915803,0.4492015
0.057922915,0.0011312565,0.024590297,-0.25938562,-1.8561631,0.43521765
0.056119762,0.0010960401,0.023824796,-0.2513109,-1.7983805,0.42166924
0.054372754,0.0010619204,0.02308313,-0.2434876,-1.7423968,0.4085427
0.052680142,0.0010288631,0.022364557,-0.23590788,-1.6881565,0.39582485
0.05104023,0.000996835,0.021668358,-0.22856416,-1.6356047,0.38350296
0.049451377,0.0009658041,0.020993834,-0.22144909,-1.5846894,0.37156475
0.04791199,0.0009357393,0.02034031,-0.21455555,-1.5353591,0.3599982
0.046420533,0.00090661057,0.019707136,-0.20787662,-1.4875648,0.34879178
0.04497551,0.00087838876,0.019093674,-0.20140563,-1.4412584,0.33793426
0.043575477,0.00085104554,0.01849931,-0.19513611,-1.3963938,0.32741475
0.042219028,0.0008245536,0.01792345,-0.18906178,-1.3529258,0.31722277
0.04090481,0.0007988864,0.017365519,-0.18317656,-1.3108112,0.30734807
0.039631505,0.0007740183,0.016824957,-0.17747456,-1.2700076,0.29778078
0.03839784,0.0007499244,0.016301224,-0.17195006,-1.2304744,0.28851137
0.037202585,0.00072658056,0.015793795,-0.16659756,-1.1921718,0.27953053
0.036044534,0.00070396345,0.015302163,-0.16141167,-1.1550617,0.27082923
0.03492254,0.0006820504,0.014825836,-0.15638724,-1.1191069,0.26239884
0.03383547,0.0006608195,0.014364338,-0.15151922,-1.0842713,0.2542309
0.03278224,0.0006402496,0.013917206,-0.14680274,-1.0505202,0.24631722
0.031761803,0.00062032003,0.013483993,-0.14223309,-1.0178198,0.23864989
0.030773127,0.00060101086,0.013064266,-0.13780569,-0.98613733,0.23122126
0.02981523,0.00058230275,0.012657605,-0.13351612,-0.9554411,0.22402386
0.028887153,0.00056417705,0.012263604,-0.12936008,-0.9257005,0.21705054
0.027987966,0.00054661557,0.011881867,-0.12533341,-0.8968857,0.21029428
0.027116768,0.0005296008,0.011512014,-0.12143209,-0.86896783,0.20374833
0.026272692,0.0005131156,0.011153674,-0.11765221,-0.84191906,0.19740616
0.02545489,0.00049714366,0.010806489,-0.113989994,-0.8157123,0.19126141
