ax,ay,az,gx,gy,gz
-1.0618278,-0.49636814,-0.7827344,15.48105,-45.11132,-4.8273168
-1.1124153,-0.629127,-0.7904844,17.585104,-50.60483,-8.576008
-0.98947805,-0.7179566,-0.57833105,16.241669,-48.72891,-10.41999
-0.6921646,-0.7823516,-0.31018564,15.567795,-44.494736,-10.991863
-0.2525302,-0.8272684,0.015408957,14.338608,-38.063934,-9.83468
0.16624703,-0.860653,0.3574089,12.7738,-30.269867,-7.6616845
0.4853499,-0.8648416,0.62810415,13.0064745,-22.552052,-5.113334
0.68410903,-0.7850638,0.8402147,13.949159,-16.120853,-2.990422
0.8320484,-0.65217,0.9964617,15.976505,-11.062745,-1.1720085
0.97201365,-0.45411628,1.1352643,17.532425,-6.180319,0.4147282
1.0946693,-0.1984379,1.248569,18.168615,-1.3682175,1.4691373
1.1892078,0.093228295,1.3211471,17.723324,3.8607817,1.1743094
1.2380927,0.39728117,1.3287512,16.870087,8.914008,-0.12841964
1.2360587,0.6695499,1.2746422,15.534831,12.886496,-2.0799108
1.2055143,0.89248306,1.1858746,13.69444,15.9624,-4.2715335
1.1597881,1.0655178,1.0645956,11.679956,18.06714,-6.7010584
1.1124969,1.1873072,0.92690355,9.86623,19.70474,-9.6783905
1.0983927,1.2781023,0.79605746,8.22356,21.386297,-12.756875
1.0937815,1.3712022,0.67977345,6.5618525,22.9412,-15.954485
1.0829711,1.458106,0.5713933,4.741889,24.385328,-19.218458
1.0651326,1.5229583,0.46766388,2.5389261,25.70203,-22.377237
1.0272428,1.5633862,0.35647154,0.13933095,26.274996,-25.634483
0.9676996,1.5723593,0.24456966,-2.2716181,26.304132,-28.915348
0.9119071,1.5561113,0.13867888,-4.3236346,25.950226,-32.11106
0.86187494,1.5297611,0.04482826,-6.186564,25.654736,-34.863964
0.79182476,1.5159271,-0.050879266,-8.100939,25.358047,-37.032288
0.68183136,1.5176865,-0.16944115,-10.399217,24.5268,-38.797382
0.5179319,1.4938512,-0.33209658,-12.552086,22.9346,-40.71316
0.3579955,1.4196155,-0.5100755,-14.303534,20.524979,-42.96824
0.23809353,1.294454,-0.68040854,-15.505614,17.760265,-45.02902
0.14739098,1.147495,-0.8430694,-16.236023,14.810394,-46.622124
0.06567138,0.9939143,-1.0028933,-16.859339,11.63492,-47.129105
-0.039970025,0.85760736,-1.1653816,-17.606232,8.174576,-47.077396
-0.14758429,0.7101326,-1.3185703,-18.151064,4.230461,-46.994865
-0.22064938,0.5372333,-1.4390537,-18.375336,0.046109267,-46.919106
-0.24575529,0.34012392,-1.5172023,-18.29334,-4.1270223,-46.5503
-0.23846483,0.13724013,-1.5557356,-18.01696,-7.881533,-45.528366
-0.24580964,-0.06352859,-1.576823,-17.624187,-11.430424,-44.086933
-0.25457466,-0.28168276,-1.5871766,-17.083439,-15.03179,-42.30441
-0.24614353,-0.5126802,-1.5714834,-16.213268,-18.727022,-40.23305
-0.21644971,-0.7444803,-1.5312052,-15.082628,-22.417824,-37.872585
-0.16216068,-0.97644114,-1.4711138,-13.440322,-25.935526,-35.156624
-0.063654,-1.2119387,-1.377445,-11.117537,-29.030678,-32.111538
0.045601588,-1.390621,-1.2491859,-8.402612,-31.71378,-28.826218
0.16608873,-1.5025672,-1.0897152,-5.914549,-33.929977,-25.420376
0.30001178,-1.593349,-0.9231341,-3.7852988,-35.59936,-21.783993
0.43500328,-1.6641982,-0.7576599,-1.6533066,-36.559483,-17.74566
0.56581515,-1.6568516,-0.5910184,0.39418206,-37.04725,-13.858801
0.6943232,-1.608204,-0.43104693,2.4575336,-36.94741,-10.312719
0.81535137,-1.5423206,-0.29003644,4.6567326,-36.354847,-7.101123
0.92697686,-1.4535059,-0.16500814,6.881427,-35.404552,-4.218447
1.0441083,-1.3327671,-0.042876557,8.84028,-33.931576,-1.538826
1.1748269,-1.177465,0.077819414,10.465696,-32.09049,0.93901134
1.3007984,-1.0160589,0.18616201,11.873682,-29.928795,3.1389723
1.4109876,-0.8478017,0.27510437,13.110017,-27.499718,4.8931484
1.4970887,-0.6652115,0.3424568,14.290773,-24.702826,6.113436
1.5504553,-0.4649123,0.38045487,15.263896,-21.696836,6.606836
1.5670891,-0.24376392,0.3877483,15.869804,-18.68944,6.608349
1.5765604,-0.020377496,0.3821047,16.0951,-15.7139845,6.1830783
1.5819491,0.19757944,0.36669436,15.978388,-12.816439,5.4091134
1.5778255,0.41434738,0.34188783,15.606096,-10.062706,4.1866064
1.5657793,0.6243046,0.3029172,14.930442,-7.5378456,2.285175
1.5423881,0.82295465,0.2462661,13.972549,-5.217146,-0.0058348924
1.5110023,1.0085841,0.17599809,12.754486,-3.0533507,-2.5719373
1.4688538,1.1845909,0.09118673,11.216926,-1.1032882,-5.3582325
1.4246123,1.3455348,-0.005788709,9.477065,0.6175436,-8.435496
1.3864555,1.4780041,-0.11142572,7.3600674,1.9376477,-11.824942
1.3528186,1.5537901,-0.2244995,5.0295053,2.8285062,-15.404488
1.3334385,1.5707874,-0.33514577,2.7032194,3.4165168,-18.926085
1.3211162,1.5478675,-0.4436203,0.6026958,3.8758626,-22.283165
1.300544,1.50925,-0.5612803,-1.2179883,4.3257313,-25.52254
1.2476188,1.4644421,-0.7095662,-2.7162614,4.273595,-28.7107
1.1457,1.4141294,-0.88197356,-4.3336225,3.7037468,-31.586117
1.0336273,1.3447003,-1.0599295,-6.104844,2.4499815,-34.132576
0.9484225,1.24283,-1.2214314,-7.8662653,0.60705584,-36.413696
0.8988849,1.1132497,-1.3488833,-9.374959,-1.3088539,-38.36911
0.86095303,0.97746444,-1.4547901,-10.350122,-3.0310338,-39.884468
0.7686378,0.8682993,-1.5622417,-11.378394,-4.9979196,-41.21365
0.6695042,0.7365489,-1.6619786,-13.022352,-7.5519624,-42.2763
0.60885936,0.5414973,-1.7366068,-14.449534,-10.331218,-43.023605
0.5758165,0.30025873,-1.7840952,-15.213385,-12.941913,-43.24493
0.5221483,0.059740666,-1.8237259,-15.218661,-15.4876995,-42.809685
0.42534563,-0.16628098,-1.8657002,-14.736066,-18.24348,-42.150356
0.3352645,-0.41589093,-1.9009204,-13.733596,-21.574776,-41.43541
0.30562812,-0.7117667,-1.9028394,-12.304926,-25.363155,-40.25819
0.34545624,-1.0132234,-1.8513469,-10.396785,-29.047646,-38.392246
0.42487505,-1.2811737,-1.764402,-8.4097395,-32.36552,-35.718124
0.50176257,-1.5137326,-1.681138,-6.338595,-35.382347,-32.503185
0.5658564,-1.7201091,-1.6048822,-4.1285996,-38.184517,-28.845179
0.636312,-1.8884614,-1.5157565,-1.5010799,-40.86318,-25.071964
0.7299995,-2.002287,-1.3949696,1.4197013,-43.303844,-21.252182
0.84454656,-2.0563262,-1.2554035,4.586163,-45.133907,-17.36431
0.96025515,-2.055909,-1.1181602,7.562535,-46.49905,-13.326357
1.0687046,-2.012385,-0.9813475,10.463861,-47.463867,-9.099106
1.1801703,-1.892095,-0.8292452,13.573232,-48.00295,-5.406397
1.3069736,-1.703177,-0.65680295,16.733305,-48.11656,-2.3838072
1.45041,-1.4793894,-0.470668,19.263208,-47.42897,0.15604125
1.6022018,-1.2505294,-0.29696402,21.228817,-46.148808,2.3487535
1.7560868,-1.0389085,-0.1478859,22.691963,-44.369236,4.167272
1.8970684,-0.84678787,-0.027710801,23.752516,-42.05269,5.842736
1.9980414,-0.6538392,0.056702025,24.421316,-39.43156,7.238656
2.0652075,-0.4609915,0.11067012,24.57547,-36.530697,8.116122
2.099793,-0.27538857,0.13515693,24.49803,-33.457996,8.449642
2.1183407,-0.13310157,0.13259245,24.116278,-30.369371,8.507868
2.1282544,-0.03472779,0.112912335,23.63412,-27.200527,8.537582
2.1064975,0.04383514,0.06804386,23.144247,-24.022518,8.48639
2.0427108,0.12158861,-0.0009700704,22.243177,-21.231674,8.288263
1.9364394,0.1999002,-0.08363702,21.069502,-18.808167,7.9764013
1.8140963,0.27529088,-0.16820593,19.707956,-16.76518,7.5962696
1.6841074,0.3441419,-0.25308955,18.103529,-15.134519,7.119542
1.5540087,0.38891622,-0.3383098,16.429424,-13.832769,6.553056
1.4310988,0.40185833,-0.4231084,14.982775,-12.887664,5.985244
1.3212929,0.38842577,-0.49852043,13.821123,-12.248031,5.6331
1.2314737,0.37379223,-0.55040765,12.878471,-11.717804,5.50697
1.1556525,0.3611124,-0.57935226,12.0603895,-11.192745,5.4247437
1.1196336,0.34985733,-0.56129515,11.684495,-10.843893,5.2556667
1.0847399,0.33895394,-0.54380226,11.320346,-10.50594,5.0918727
1.0509363,0.3283912,-0.5268559,10.967571,-10.178546,4.9331956
1.0181885,0.31815833,-0.5104387,10.625815,-9.861376,4.7794743
0.98646325,0.30824497,-0.49453416,10.29473,-9.55411,4.630553
0.9557284,0.29864112,-0.4791262,9.973982,-9.256436,4.4862804
0.9259529,0.289337,-0.46419913,9.663244,-8.968054,4.3465114
0.89710665,0.28032327,-0.4497379,9.3622055,-8.688672,4.2111044
0.86916053,0.2715908,-0.43572792,9.070559,-8.418008,4.0799227
0.84208626,0.26313078,-0.42215502,8.788012,-8.155787,3.9528334
0.8158565,0.25493464,-0.40900555,8.514278,-7.9017467,3.8297086
0.7904449,0.24699417,-0.39626616,8.249083,-7.6556296,3.710424
0.7658258,0.23930131,-0.3839241,7.992158,-7.417188,3.5948594
0.74197435,0.23184833,-0.3719669,7.743244,-7.186182,3.4828985
0.7188666,0.22462773,-0.3603825,7.5020914,-6.962378,3.3744285
0.6964792,0.21763223,-0.34915924,7.268457,-6.7455516,3.26934
0.6747897,0.21085481,-0.33828586,7.042105,-6.5354843,3.1675274
0.6537763,0.20428865,-0.3277514,6.822809,-6.3319645,3.0688884
0.6334178,0.19792713,-0.31754526,6.6103477,-6.134788,2.9733236
0.6136938,0.19176388,-0.3076572,6.404508,-5.9437566,2.880737
0.5945844,0.18579267,-0.2980773,6.2050824,-5.7586784,2.791036
0.5760705,0.18000753,-0.2887959,6.0118713,-5.579367,2.70413
0.5581334,0.17440265,-0.27980366,5.8246803,-5.4056425,2.6199315
0.5407552,0.1689724,-0.27109164,5.643321,-5.237331,2.5383565
0.5239184,0.16371132,-0.262651,5.4676123,-5.074263,2.4593232
0.50760615,0.15861416,-0.25447333,5.2973776,-4.916275,2.3827517
0.49180198,0.15367576,-0.24655038,5.1324453,-4.7632084,2.3085656
0.47649014,0.1488912,-0.23887424,4.972651,-4.61491,2.2366903
0.46165526,0.14425565,-0.2314372,4.817834,-4.471231,2.167054
0.4472824,0.1397645,-0.22423181,4.667839,-4.332027,2.0995865
0.43335724,0.13541324,-0.21725082,4.522516,-4.1971583,2.0342202
0.41986573,0.13119748,-0.21048726,4.3817186,-4.06649,1.9708899
0.40679443,0.12711303,-0.20393434,4.2453065,-3.9398918,1.9095318
0.39413017,0.12315577,-0.19758551,4.1131425,-3.817236,1.8500847
0.38186032,0.11932175,-0.19143437,3.985094,-3.6983995,1.7924888
0.36997253,0.11560711,-0.18547478,3.8610332,-3.5832639,1.7366865
0.35845494,0.11200816,-0.17970079,3.7408357,-3.4717135,1.6826217
0.347296,0.10852127,-0.17410658,3.624381,-3.3636367,1.6302407
0.33648452,0.10514296,-0.16868657,3.5115523,-3.2589254,1.5794905
0.3260097,0.10186984,-0.16343533,3.4022372,-3.1574743,1.5303206
0.31586102,0.09869862,-0.15834758,3.2963254,-3.0591822,1.4826818
0.30602834,0.09562616,-0.15341824,3.1937115,-2.9639504,1.4365262
0.2965018,0.092649356,-0.1486424,3.0942926,-2.8716838,1.3918077
0.28727186,0.089765236,-0.14401525,2.997969,-2.78229,1.3484815
0.27832928,0.0869709,-0.13953216,2.9046445,-2.6956794,1.3065042
0.26966515,0.08426358,-0.13518865,2.8142254,-2.6117651,1.265834
0.26127076,0.08164054,-0.13098037,2.7266216,-2.5304637,1.2264299
0.2531377,0.07909917,-0.1269031,2.641745,-2.4516933,1.1882526
0.24525785,0.07663691,-0.122952774,2.559511,-2.3753753,1.1512638
0.23762333,0.07425132,-0.119125426,2.479837,-2.3014333,1.1154267
0.23022647,0.07193999,-0.115417235,2.4026434,-2.229793,1.080705
0.22305991,0.06970061,-0.11182449,2.3278532,-2.1603835,1.0470645
0.21611644,0.06753095,-0.10834359,2.2553911,-2.0931344,1.0144712
0.20938914,0.06542884,-0.10497105,2.185185,-2.027979,0.98289263
0.20287125,0.06339216,-0.1017035,2.1171644,-1.9648519,0.95229703
0.19655627,0.061418895,-0.098537676,2.0512612,-1.90369,0.922654
0.19043788,0.059507053,-0.095470406,1.9874098,-1.8444321,0.89393365
0.18450996,0.057654727,-0.092498615,1.925546,-1.7870189,0.86610746
0.17876658,0.055860065,-0.08961934,1.8656081,-1.731393,0.83914745
0.173202,0.054121267,-0.08682969,1.8075359,-1.6774987,0.8130267
0.16781062,0.0524366,-0.08412689,1.7512716,-1.625282,0.7877191
0.16258708,0.050804373,-0.08150823,1.6967587,-1.5746909,0.76319927
0.15752614,0.04922296,-0.07897107,1.6439428,-1.5256747,0.73944277
0.15262274,0.04769077,-0.0765129,1.5927709,-1.4781843,0.7164258
0.14787199,0.04620628,-0.07413125,1.5431921,-1.4321722,0.6941253
