ax,ay,az,gx,gy,gz
-2.0145638,1.1654651,-4.371858,-60.48055,-18.643805,-37.620342
-1.706974,0.5324953,-3.7572832,-63.071316,-10.952768,-35.3703
-1.4678396,0.1810539,-3.424654,-57.403206,-0.27285603,-36.64251
-1.2982272,0.23171589,-3.284464,-53.884537,8.759041,-40.641808
-1.3942713,0.4918237,-3.354022,-57.174145,13.076326,-42.534027
-1.6141624,0.7002047,-3.509248,-63.923958,14.982882,-42.363567
-1.9164356,0.81407183,-3.7945242,-69.07827,13.114455,-41.378384
-2.2071712,0.83266133,-4.086128,-71.19696,8.429079,-41.877354
-2.3436363,0.76007265,-4.237326,-69.49181,3.364313,-43.74987
-2.2969148,0.61581653,-4.2155943,-66.23035,-0.44170514,-45.20602
-2.2125084,0.4856214,-4.162092,-63.445766,-3.15595,-46.090454
-2.1814497,0.3394521,-4.144423,-61.17677,-5.8918343,-46.36309
-2.187987,0.18180868,-4.141663,-59.550774,-8.795635,-46.418797
-2.180706,0.02229291,-4.124572,-57.74228,-11.649788,-46.581345
-2.1337855,-0.16160555,-4.111736,-55.662273,-14.921003,-46.580544
-2.0796788,-0.3988548,-4.0771,-53.44523,-18.177498,-46.200123
-2.009187,-0.671947,-4.015928,-50.6564,-21.022743,-45.482403
-1.9360758,-0.9507612,-3.945623,-47.66486,-23.550014,-44.274685
-1.893381,-1.2438,-3.8704283,-44.329144,-26.251884,-42.465324
-1.8336684,-1.518503,-3.7394183,-40.535057,-29.006115,-40.50492
-1.7191771,-1.7498583,-3.5508401,-36.73347,-31.478235,-38.200504
-1.5475012,-1.9399031,-3.3141577,-33.525436,-33.72157,-35.518105
-1.346678,-2.101571,-3.0339773,-30.9275,-35.412624,-32.593143
-1.1532451,-2.24401,-2.7527003,-28.468159,-36.84886,-29.639109
-0.9798115,-2.3961565,-2.48917,-25.687714,-37.908115,-26.710594
-0.82549405,-2.5379689,-2.2621033,-22.488228,-38.741627,-23.661055
-0.68233055,-2.6447744,-2.0475445,-18.892305,-39.34969,-20.468538
-0.5461743,-2.6978946,-1.8334515,-15.112137,-39.710342,-17.271648
-0.40396976,-2.699794,-1.6104472,-11.393994,-39.682423,-14.254306
-0.24515659,-2.6567545,-1.379107,-7.940466,-39.25184,-11.331778
-0.08835323,-2.5859451,-1.1616743,-4.874045,-38.490723,-8.425702
0.041622095,-2.4906535,-0.97423285,-2.092903,-37.530552,-5.601891
0.14681153,-2.375648,-0.8205442,0.58007354,-36.565952,-2.922832
0.24190147,-2.2377074,-0.68394756,3.0825179,-35.478634,-0.30879834
0.3239252,-2.0606692,-0.56037605,5.435055,-34.323612,2.2062373
0.39621735,-1.8491772,-0.44229296,7.7146754,-33.085857,4.518375
0.46266302,-1.5957229,-0.32855004,9.712918,-31.712118,6.378956
0.53334516,-1.3130926,-0.2155928,11.281926,-30.109585,7.70531
0.59833366,-1.0187912,-0.11424428,12.121329,-28.281952,8.449062
0.6310478,-0.728869,-0.04391942,12.465913,-26.542559,8.749411
0.6529143,-0.45128503,0.013101561,12.334996,-24.942936,8.666883
0.6770227,-0.18586496,0.06636642,11.899092,-23.301622,8.318759
0.699069,0.06817028,0.10994985,11.104822,-21.531073,7.729931
0.709683,0.29766896,0.13019684,9.908031,-19.540302,6.817946
0.7017489,0.49743086,0.11342451,8.651182,-17.63442,5.6350565
0.67850995,0.6815209,0.06959013,7.2519016,-15.963248,4.105155
0.63938576,0.8443147,0.0055771717,5.646982,-14.609627,2.3602643
0.59005225,0.9738811,-0.07044663,3.9334967,-13.465876,0.5313573
0.538943,1.0651559,-0.15109871,2.344784,-12.399135,-1.3180022
0.49358064,1.1241106,-0.23470393,0.8043053,-11.351718,-3.1212482
0.43754005,1.1759456,-0.3274977,-0.77910006,-10.557146,-4.8583636
0.3758018,1.2182353,-0.42329985,-2.8935895,-9.983638,-6.3934674
0.3058538,1.2337952,-0.52745336,-5.6005526,-9.676604,-7.678559
0.22087249,1.220763,-0.6388351,-8.473765,-9.732366,-8.830061
0.13779257,1.1820778,-0.74147,-11.112755,-9.868938,-9.979191
0.070872605,1.1318471,-0.83039325,-13.469294,-9.917915,-10.989325
0.00435385,1.0694396,-0.9185733,-15.755957,-10.011241,-11.868318
-0.06916727,0.98421574,-1.0156605,-17.877968,-10.27122,-12.66554
-0.14586984,0.87358975,-1.1220763,-19.495274,-10.904739,-13.4581175
-0.22668721,0.7394683,-1.2329842,-20.58792,-11.851737,-14.248395
-0.29221413,0.5952967,-1.3286126,-21.201902,-12.9596195,-14.979071
-0.33344927,0.4369603,-1.394878,-21.408796,-14.145414,-15.535886
-0.36009726,0.27220345,-1.4285252,-21.355995,-15.351128,-15.854384
-0.37302393,0.108526945,-1.4383104,-21.062962,-16.580132,-15.972933
-0.37903973,-0.048757926,-1.433603,-20.361725,-17.849403,-15.938188
-0.3822494,-0.19624275,-1.4193914,-19.445309,-19.155716,-15.736087
-0.38304257,-0.32660627,-1.394766,-18.495459,-20.486134,-15.337406
-0.38320118,-0.44811985,-1.3594877,-17.519117,-21.814579,-14.778419
-0.37402877,-0.57915413,-1.3100972,-16.21889,-23.071064,-14.021846
-0.33279812,-0.72012115,-1.2320032,-14.532044,-24.170681,-13.13683
-0.26842454,-0.8550224,-1.1243528,-12.584627,-25.136486,-11.995635
-0.18443882,-0.964176,-0.9863486,-10.725137,-25.934414,-10.385803
-0.0880191,-1.0333946,-0.8276935,-9.109287,-26.504389,-8.4435
0.008110886,-1.0701402,-0.66440064,-7.895086,-26.674244,-6.375449
0.088793814,-1.0983934,-0.51936144,-6.714945,-26.681934,-4.357894
0.16623537,-1.1158806,-0.38647312,-5.4285502,-26.6314,-2.3329725
0.24418531,-1.1081393,-0.26187176,-4.110813,-26.468676,-0.2853436
0.3224734,-1.078289,-0.14779846,-2.8764338,-26.108862,1.7534999
0.39232066,-1.0344504,-0.050269146,-1.8304121,-25.608566,3.8070662
0.44420618,-0.96050227,0.029474508,-0.9221308,-24.966663,5.6094446
0.48326412,-0.86934656,0.09804285,-0.1374041,-24.214746,6.9805923
0.50721234,-0.77719265,0.15083405,0.5605596,-23.383295,8.090445
0.51472425,-0.68771845,0.18462577,1.1784825,-22.559355,8.963029
0.5129724,-0.60381895,0.20771313,1.8744134,-21.771473,9.59462
0.50452155,-0.5155373,0.22418568,2.6209462,-21.012657,10.131173
0.48776847,-0.41475475,0.23397696,3.4221752,-20.314499,10.573921
0.45698795,-0.30306643,0.22917591,4.4640903,-19.797619,10.765022
0.44265303,-0.29355976,0.22198705,4.3240595,-19.176601,10.427341
0.42877436,-0.28435567,0.215027,4.1884856,-18.57535,10.1004095
0.4153368,-0.27544412,0.20828818,4.0572205,-17.993208,9.783868
0.40232578,-0.26681545,0.20176326,3.9301224,-17.429546,9.477374
0.3897273,-0.25846034,0.19544522,3.807054,-16.883755,9.180598
0.37752783,-0.25036988,0.18932727,3.6878834,-16.35525,8.893222
0.3657143,-0.24253535,0.18340288,3.5724828,-15.843465,8.614937
0.35427415,-0.23494844,0.17766574,3.4607298,-15.347856,8.345448
0.34319526,-0.2276011,0.17210975,3.3525054,-14.867895,8.084468
0.33246586,-0.22048555,0.16672905,3.2476952,-14.403077,7.8317213
0.3220747,-0.21359432,0.16151796,3.1461892,-13.952911,7.586942
0.31201085,-0.20692015,0.15647101,3.0478802,-13.516925,7.349873
0.30226377,-0.20045605,0.15158293,2.9526658,-13.094662,7.1202664
0.29282326,-0.19419527,0.14684859,2.8604462,-12.685681,6.8978815
0.28367952,-0.1881313,0.14226307,2.7711256,-12.289556,6.682487
0.274823,-0.18225783,0.13782161,2.6846108,-11.905875,6.47386
0.26624462,-0.17656878,0.1335196,2.6008124,-11.534242,6.2717824
0.2579354,-0.17105825,0.1293526,2.5196438,-11.17427,6.076047
0.24988681,-0.16572057,0.12531629,2.4410212,-10.825589,5.8864503
0.24209054,-0.16055022,0.12140653,2.3648634,-10.48784,5.702798
0.2345386,-0.15554191,0.11761928,2.2910922,-10.160674,5.524901
0.2272232,-0.15069047,0.11395068,2.2196317,-9.843758,5.3525763
0.22013688,-0.14599094,0.11039694,2.1504087,-9.536764,5.1856475
0.21327236,-0.14143851,0.10695443,2.0833526,-9.239379,5.0239434
0.20662263,-0.13702853,0.10361965,2.0183947,-8.9513,4.8672996
0.2001809,-0.13275649,0.100389175,1.9554687,-8.672232,4.715555
0.19394062,-0.12861803,0.097259715,1.8945104,-8.40189,4.568556
0.18789542,-0.124608964,0.0942281,1.8354578,-8.14,4.426152
0.18203914,-0.120725185,0.09129122,1.7782508,-7.886295,4.2881994
0.17636587,-0.11696276,0.08844611,1.7228312,-7.6405168,4.1545568
0.1708698,-0.11331787,0.08568988,1.669143,-7.4024167,4.025089
0.16554539,-0.109786816,0.083019726,1.6171315,-7.171753,3.8996646
0.16038723,-0.106366016,0.08043296,1.566744,-6.9482913,3.7781568
0.15539011,-0.10305201,0.07792694,1.5179296,-6.7318063,3.6604424
0.15054898,-0.09984145,0.07549915,1.4706389,-6.5220785,3.5464022
0.14585891,-0.09673109,0.07314712,1.424824,-6.318896,3.435921
0.1413152,-0.093717776,0.07086848,1.3804387,-6.122053,3.328887
0.13691325,-0.090798475,0.06866093,1.3374381,-5.9313517,3.2251925
0.1326486,-0.08797024,0.06652225,1.2957789,-5.746599,3.1247325
0.12851697,-0.08523022,0.064450264,1.255419,-5.567609,3.027406
0.1245142,-0.08257565,0.062442906,1.2163179,-5.394201,2.9331148
0.12063624,-0.08000385,0.060498137,1.178436,-5.2261996,2.8417637
0.11687919,-0.07751224,0.058614004,1.1417352,-5.063437,2.7532609
0.113239266,-0.075098306,0.056788616,1.1061786,-4.9057484,2.6675172
0.10971282,-0.07275962,0.055020124,1.0717305,-4.7529755,2.5844464
0.10629628,-0.07049384,0.05330676,1.038356,-4.6049643,2.503965
0.10298623,-0.06829867,0.051646795,1.0060217,-4.4615664,2.4259918
0.09977934,-0.066171914,0.05003856,0.9746952,-4.3226376,2.3504486
0.09667238,-0.064111434,0.048480447,0.9443449,-4.188038,2.2772598
0.09366223,-0.06211516,0.04697088,0.91494024,-4.057633,2.2063513
0.09074588,-0.060181085,0.045508355,0.88645184,-3.9312906,2.1376524
0.08792039,-0.058307268,0.044091392,0.858851,-3.8088846,2.0710938
0.08518293,-0.05649183,0.042718578,0.83211005,-3.6902924,2.006609
0.082530744,-0.05473295,0.041388527,0.8062022,-3.5753946,1.9441328
0.07996118,-0.05302886,0.04009991,0.78110135,-3.464076,1.8836029
0.07747165,-0.051377848,0.038851433,0.7567824,-3.3562248,1.8249586
0.075059675,-0.049778268,0.037641846,0.733221,-3.251733,1.7681408
0.07272282,-0.048228506,0.03646993,0.7103934,-3.150496,1.7130928
0.070458755,-0.046727017,0.035334516,0.6882768,-3.052412,1.6597593
0.06826519,-0.045272287,0.034234464,0.6668491,-2.957383,1.6080868
0.06613995,-0.043862864,0.033168674,0.6460886,-2.8653133,1.5580237
0.064080894,-0.042497333,0.03213607,0.6259747,-2.776111,1.5095196
0.062085964,-0.041174326,0.031135628,0.6064872,-2.6896863,1.462526
0.060153153,-0.03989252,0.03016634,0.5876065,-2.6059532,1.4169958
0.058280528,-0.03865063,0.029227233,0.56931376,-2.5248275,1.3728833
0.056466214,-0.037447408,0.02831737,0.5515907,-2.4462278,1.3301445
0.0547084,-0.036281656,0.027435837,0.5344194,-2.3700757,1.2887366
0.053005315,-0.0351522,0.026581753,0.5177828,-2.2962947,1.248618
0.051355258,-0.03405791,0.025754264,0.5016642,-2.224811,1.2097485
0.04975658,-0.032997698,0.024952538,0.48604754,-2.155553,1.1720893
0.048207678,-0.03197049,0.024175776,0.47091708,-2.0884516,1.1356026
0.046707,-0.030975267,0.023423199,0.45625767,-2.0234394,1.1002519
0.045253046,-0.03001103,0.022694051,0.44205472,-1.9604512,1.0660019
0.043844357,-0.029076815,0.021987606,0.42829394,-1.8994241,1.0328182
0.04247953,-0.028171683,0.021303155,0.4149616,-1.840297,1.0006677
0.041157193,-0.02729473,0.020640012,0.40204433,-1.7830107,0.96951807
0.03987602,-0.026445081,0.019997515,0.38952923,-1.727508,0.9393382
0.03863474,-0.025621884,0.01937502,0.37740374,-1.673733,0.91009796
0.037432097,-0.024824314,0.018771907,0.36565572,-1.6216323,0.881768
0.036266897,-0.024051575,0.018187568,0.35427347,-1.5711535,0.85432005
0.035137974,-0.02330289,0.01762142,0.34324557,-1.5222462,0.82772654
0.03404419,-0.022577515,0.0170729,0.33256096,-1.4748616,0.80196095
0.03298446,-0.02187472,0.016541451,0.32220897,-1.428952,0.77699745
0.031957723,-0.021193804,0.016026549,0.31217924,-1.3844715,0.7528111
0.030962946,-0.020534085,0.015527677,0.30246177,-1.3413758,0.7293776
0.029999135,-0.019894904,0.015044333,0.29304677,-1.2996217,0.7066737
0.02906533,-0.019275619,0.0145760365,0.28392488,-1.2591674,0.68467647
0.028160593,-0.018675614,0.0141223185,0.27508694,-1.2199724,0.66336405
0.027284019,-0.018094284,0.013682724,0.26652414,-1.1819975,0.6427151
0.026434733,-0.017531054,0.013256813,0.25822788,-1.1452048,0.6227089
0.025611885,-0.016985355,0.012844161,0.2501899,-1.1095574,0.60332555
0.02481465,-0.016456643,0.012444355,0.2424021,-1.0750196,0.58454555
0.024042234,-0.01594439,0.012056994,0.23485675,-1.041557,0.5663501
