ax,ay,az,gx,gy,gz
-1.191829,2.4491131,-4.42004,-16.25742,17.422886,-31.793924
-1.7684355,2.668234,-4.4914913,-17.264948,12.146069,-31.709148
-2.0659306,2.7276208,-4.351402,-10.561211,10.923187,-31.955353
-2.0275128,2.8143756,-4.197564,-1.9990122,11.177741,-37.878876
-1.8285253,2.7566876,-3.994423,4.742013,11.983006,-42.074455
-1.671554,2.7977808,-3.8267117,5.77533,12.676573,-44.03047
-1.5975422,2.9305484,-3.7354074,2.3986413,12.557314,-45.438267
-1.594081,3.061423,-3.7193966,-3.302514,11.102066,-46.37042
-1.5908116,3.1589606,-3.7499318,-10.005812,8.330551,-47.264267
-1.5320514,3.078487,-3.837853,-14.82492,5.541992,-48.68574
-1.510127,2.8560734,-3.972183,-16.248774,2.5143704,-51.11288
-1.5400112,2.6446471,-4.082616,-15.469366,-0.71528506,-53.760807
-1.6075906,2.4943633,-4.152712,-15.330168,-4.3472815,-56.34034
-1.6485361,2.318215,-4.159265,-18.037437,-8.740458,-57.778713
-1.5749754,2.0328746,-4.0800676,-22.621908,-12.748126,-57.99598
-1.4484715,1.6359729,-4.001123,-26.93113,-16.00702,-57.66035
-1.3722073,1.1573958,-3.9612494,-28.719227,-18.65653,-57.370457
-1.3882706,0.6715151,-3.959293,-27.71013,-21.560596,-57.237335
-1.4324554,0.24481288,-3.929712,-25.065521,-25.058683,-56.153324
-1.42356,-0.07767718,-3.8257983,-23.08837,-28.546793,-54.307785
-1.3524387,-0.35867423,-3.680886,-22.559439,-31.443707,-51.77984
-1.2549582,-0.6333165,-3.5390127,-22.722208,-33.752193,-48.874226
-1.1772434,-0.91930085,-3.413168,-22.813328,-35.475418,-45.719822
-1.1347791,-1.2080213,-3.323527,-21.65379,-37.206104,-42.68826
-1.1007211,-1.4725125,-3.2524276,-19.271427,-39.17387,-39.6418
-1.0397696,-1.6810415,-3.17386,-16.258171,-41.36864,-36.49409
-0.9692675,-1.8341768,-3.0544546,-13.311048,-43.631042,-33.25691
-0.87922794,-1.9419296,-2.874379,-10.249176,-45.600037,-30.05054
-0.7521365,-2.0244,-2.6467268,-7.421206,-47.06903,-27.18991
-0.58669025,-2.1227188,-2.3362842,-5.0369544,-47.977898,-23.997082
-0.39967334,-2.192142,-1.981885,-3.251021,-48.197647,-20.073553
-0.18578409,-2.2030408,-1.6280572,-1.981317,-47.95259,-15.879259
0.02751743,-2.150292,-1.293082,-1.0763971,-47.162,-11.626172
0.20442225,-2.0449922,-0.99061155,0.17576832,-45.5417,-7.4859185
0.34999892,-1.8678265,-0.74142134,1.712019,-43.642708,-3.8720374
0.48454058,-1.662458,-0.5216258,3.4000714,-41.606052,-0.7214555
0.60774535,-1.4204154,-0.32201356,4.8874326,-39.476086,2.1106617
0.7237934,-1.140562,-0.13706146,5.6696396,-37.18192,4.6184144
0.82897085,-0.8497908,0.026275463,5.7104864,-34.61476,6.6400537
0.90031165,-0.54995936,0.14060648,5.782869,-32.076923,7.9193406
0.9529434,-0.26741192,0.22266273,6.1104984,-29.669214,8.507707
0.99240357,0.00016499132,0.28110877,6.4605465,-27.398605,8.576912
1.0270602,0.26202232,0.31993634,6.588934,-25.13292,8.278425
1.0568262,0.51455784,0.3381734,6.421119,-22.621138,7.4870124
1.0625376,0.73756427,0.31461167,5.9805937,-20.199385,6.393933
1.0480629,0.9264451,0.2587821,5.2446394,-17.980972,5.08369
1.0188257,1.08258,0.17453615,4.4737377,-16.003622,3.5536084
0.97403866,1.2123774,0.06695974,3.8576548,-14.370372,1.6711849
0.9197932,1.3175457,-0.05393757,3.3515694,-13.166657,-0.5104528
0.86785847,1.3887267,-0.17314799,2.7971773,-12.198763,-2.6577127
0.82051015,1.4379103,-0.28865898,2.0852556,-11.408574,-4.7789664
0.77192914,1.4628832,-0.40536472,1.2286499,-10.712282,-6.857516
0.7165758,1.4662946,-0.5357073,0.3679259,-10.128081,-9.036514
0.6405181,1.4490216,-0.68852586,-0.25135645,-10.075424,-11.513237
0.546551,1.406253,-0.8418232,-0.7282834,-10.564572,-14.013108
0.4659764,1.3513304,-0.960106,-1.1191756,-11.496975,-16.36254
0.41273907,1.2927214,-1.040568,-1.566054,-12.491729,-18.475767
0.38226888,1.2257428,-1.0902003,-2.2448437,-13.330526,-20.268616
0.3532169,1.1384909,-1.1338402,-3.2582245,-14.027612,-21.70811
0.29246154,1.017239,-1.1975904,-4.277355,-14.829143,-22.907602
0.21163063,0.8800585,-1.2704614,-5.234759,-15.929541,-23.983492
0.12990358,0.72937566,-1.3286649,-5.93721,-17.228697,-24.776537
0.07218642,0.57837296,-1.3635148,-6.6211534,-18.626696,-25.315166
0.041613203,0.41994673,-1.3684636,-7.3168745,-19.9587,-25.541964
0.033356857,0.25248128,-1.3392024,-7.884626,-21.044655,-25.548883
0.027373107,0.07766394,-1.3054171,-8.368329,-22.001421,-25.283152
0.015150857,-0.099646926,-1.2799896,-8.747607,-22.988295,-24.774096
-0.0012652376,-0.2760234,-1.2620112,-8.848518,-24.059015,-24.075287
-0.015117489,-0.44388428,-1.2378982,-8.690668,-25.14245,-23.017902
-0.014635439,-0.60169613,-1.1854476,-8.45832,-26.104017,-21.641668
-0.000924104,-0.746927,-1.1154177,-8.297837,-26.953852,-19.977032
0.024509974,-0.87821347,-1.0402396,-8.022365,-27.686237,-18.154156
0.05701009,-0.9928394,-0.9690708,-7.591258,-28.282001,-16.259758
0.0834287,-1.0910988,-0.9093484,-6.914951,-28.784565,-14.267087
0.0986844,-1.1691527,-0.8711325,-6.081034,-29.330597,-12.200631
0.1113207,-1.2298112,-0.83764803,-5.1662426,-29.930218,-9.98933
0.12578927,-1.2726209,-0.79182047,-4.105717,-30.54113,-7.666847
0.15854736,-1.2987835,-0.72464937,-2.8310099,-31.110975,-5.3408995
0.21031141,-1.2966131,-0.631574,-1.2259464,-31.344545,-2.9767904
0.2807674,-1.2392752,-0.5160045,0.1366436,-31.331947,-0.7276915
0.34668022,-1.1566643,-0.39512512,1.2398785,-31.13902,1.3295768
0.4006791,-1.0684353,-0.27694395,2.161564,-30.84855,3.3109636
0.44167972,-0.96542627,-0.1649532,3.0958345,-30.561663,5.1019325
0.49309114,-0.8422697,-0.04677874,3.9233856,-30.049862,6.666579
0.5699076,-0.6988337,0.08489117,4.434874,-29.195868,8.223276
0.6340627,-0.53985584,0.19595982,4.33204,-28.077839,9.645888
0.6617729,-0.38610965,0.26400182,3.9145045,-26.915064,10.810461
0.6585804,-0.25407717,0.290853,3.6519365,-25.819963,11.489915
0.6430423,-0.14828835,0.29703423,4.0235076,-24.997032,11.696097
0.64087856,-0.044514336,0.31126127,4.6070642,-24.223198,11.717844
0.648526,0.065269455,0.33105135,5.1395793,-23.40319,11.595489
0.6514531,0.17517358,0.34661287,5.443089,-22.504063,11.431168
0.6358502,0.27289486,0.34474683,5.6357226,-21.63532,11.147842
0.60997653,0.34205303,0.32557288,5.996056,-20.887655,10.800916
0.5762244,0.3774622,0.2894872,6.6390176,-20.364073,10.485943
0.5447263,0.40246546,0.2482553,7.357119,-20.05554,10.282082
0.51603526,0.42264694,0.2084805,7.850292,-19.85597,10.244939
0.49990666,0.40943718,0.2019645,7.604933,-19.235374,9.924735
0.4842861,0.39664352,0.19565372,7.367302,-18.634329,9.614617
0.4691572,0.38425255,0.18954158,7.1371503,-18.0522,9.3142605
0.4545042,0.3722513,0.18362169,6.9142385,-17.488382,9.023352
0.44031176,0.36062732,0.17788789,6.6983333,-16.942287,8.741587
0.4265652,0.34936854,0.17233422,6.489211,-16.413347,8.468674
0.41325027,0.33846322,0.16695492,6.2866545,-15.901016,8.20433
0.40035316,0.32790014,0.16174443,6.0904546,-15.404762,7.948282
0.38786057,0.31766838,0.15669738,5.9004087,-14.924073,7.700264
0.37575966,0.3077574,0.15180854,5.716321,-14.458455,7.4600224
0.36403793,0.29815698,0.14707293,5.538002,-14.007427,7.2273088
0.3526834,0.2888573,0.14248563,5.3652687,-13.570528,7.0018854
0.34168437,0.2798488,0.13804199,5.1979437,-13.147309,6.7835197
0.33102965,0.2711223,0.13373743,5.0358567,-12.737337,6.5719895
0.3207083,0.26266885,0.12956756,4.878841,-12.340193,6.3670783
0.3107098,0.2544798,0.12552813,4.726737,-11.955472,6.1685767
0.301024,0.24654685,0.121615015,4.579389,-11.582781,5.976282
0.29164094,0.23886189,0.11782423,4.436648,-11.221741,5.789999
0.28255117,0.2314171,0.11415192,4.298368,-10.871985,5.609538
0.27374542,0.22420496,0.11059435,4.164408,-10.533157,5.4347157
0.2652147,0.21721809,0.10714792,4.0346336,-10.204915,5.2653546
0.25695047,0.21044944,0.10380912,3.908912,-9.886923,5.1012826
0.24894427,0.20389214,0.10057458,3.7871158,-9.578861,4.942334
0.241188,0.19753955,0.09744102,3.6691222,-9.2804165,4.7883477
0.23367386,0.19138525,0.09440526,3.5548115,-8.991287,4.6391683
0.2263942,0.18542303,0.09146425,3.4440684,-8.711182,4.4946437
0.2193417,0.17964683,0.088615015,3.3367808,-8.4398155,4.3546295
0.21250923,0.17405085,0.085854664,3.2328403,-8.176916,4.218983
0.20588988,0.16862942,0.08318042,3.132142,-7.9222174,4.087568
0.199477,0.16337709,0.080589585,3.0345848,-7.6754627,3.9602518
0.19326411,0.15828857,0.07807955,2.94007,-7.4364033,3.8369062
0.18724495,0.15335871,0.07564778,2.8485022,-7.2047987,3.7174067
0.18141346,0.14858256,0.07329184,2.7597895,-6.980415,3.6016333
0.17576377,0.14395532,0.07100934,2.6738427,-6.7630267,3.489469
0.1702902,0.13947232,0.06879799,2.5905747,-6.5524154,3.3808014
0.16498725,0.13512905,0.066655576,2.5099025,-6.348368,3.2755208
0.15984957,0.13092116,0.06457993,2.4317443,-6.150681,3.1735215
0.154872,0.12684439,0.06256897,2.3560224,-5.9591546,3.074701
0.15004955,0.122894675,0.06062068,2.2826598,-5.773597,2.9789603
0.14537738,0.119068034,0.0587331,2.2115831,-5.593821,2.8862026
0.14085077,0.115360625,0.05690433,2.1427214,-5.4196467,2.7963352
0.1364652,0.11176872,0.05513254,2.076005,-5.250899,2.7092676
0.13221626,0.10828872,0.05341595,2.011367,-5.0874085,2.6249127
0.1280997,0.10491714,0.05175284,1.9487429,-4.9290113,2.5431857
0.12411135,0.10165058,0.050141532,1.8880694,-4.7755485,2.4640045
0.120247245,0.098485775,0.04858042,1.829286,-4.626866,2.3872898
0.11650351,0.09541955,0.04706793,1.7723335,-4.4828143,2.3129647
0.11287637,0.09244882,0.04560255,1.717155,-4.3432493,2.2409544
0.10936221,0.08957063,0.04418281,1.663695,-4.2080317,2.1711872
0.105957486,0.08678207,0.042807292,1.6119001,-4.077025,2.1035926
0.1026588,0.08408036,0.041474607,1.5617181,-3.9500988,2.0381033
0.09946285,0.081462786,0.04018343,1.5130991,-3.8271248,1.9746534
0.09636642,0.07892673,0.038932458,1.465994,-3.7079809,1.9131795
0.09336642,0.076469645,0.037720446,1.4203558,-3.592547,1.8536199
0.09045984,0.07408907,0.03654617,1.3761388,-3.4807076,1.795915
0.08764376,0.071782626,0.035408463,1.3332987,-3.3723507,1.7400069
0.08491537,0.069548,0.034306183,1.2917925,-3.267368,1.6858398
0.08227194,0.06738296,0.033238225,1.2515788,-3.1656542,1.6333592
0.07971081,0.06528533,0.032203518,1.2126172,-3.0671074,1.5825127
0.07722943,0.06325301,0.031201031,1.1748686,-2.971629,1.5332495
0.07482531,0.06128397,0.030229755,1.1382954,-2.8791234,1.48552
0.07249604,0.059376232,0.02928872,1.1028609,-2.7894979,1.4392767
0.07023929,0.057527896,0.028376983,1.0685297,-2.702663,1.3944731
0.068052806,0.055737104,0.027493633,1.0352674,-2.6185315,1.3510643
0.06593439,0.054002065,0.026637785,1.0030406,-2.5370193,1.309007
0.06388193,0.052321043,0.025808582,0.971817,-2.4580448,1.2682593
0.061893374,0.050692357,0.025005195,0.94156563,-2.381529,1.22878
0.05996672,0.049114376,0.024226818,0.91225606,-2.3073955,1.1905298
0.05810005,0.04758552,0.023472674,0.8838589,-2.2355697,1.1534704
0.056291487,0.046104264,0.022742009,0.85634583,-2.16598,1.1175648
0.054539233,0.044669118,0.02203409,0.82968926,-2.098557,1.0827769
0.052841526,0.04327865,0.02134821,0.8038626,-2.0332327,1.0490721
0.051196672,0.04193147,0.02068368,0.7788399,-1.9699421,1.0164165
0.049603023,0.040626228,0.02003984,0.7545962,-1.9086218,0.9847775
0.048058983,0.03936162,0.01941604,0.7311072,-1.8492104,0.95412344
0.04656301,0.038136374,0.018811662,0.70834935,-1.7916484,0.92442364
0.04511361,0.036949273,0.018226096,0.68630004,-1.7358785,0.89564836
0.043709323,0.035799127,0.017658759,0.6649371,-1.6818445,0.8677689
0.042348757,0.034684785,0.017109083,0.6442391,-1.6294926,0.8407573
0.04103054,0.033605132,0.01657652,0.62418556,-1.5787704,0.8145865
0.039753363,0.032559086,0.016060533,0.6047562,-1.5296272,0.78923047
0.03851594,0.031545606,0.015560608,0.58593166,-1.4820137,0.7646637
0.037317038,0.03056367,0.015076247,0.56769305,-1.4358824,0.74086165
