ax,ay,az,gx,gy,gz
1.8445623,-0.07000063,-4.7809525,1.6645606,-32.515747,-14.26013
2.3722198,-0.6431901,-4.96775,-10.412238,-40.927895,-11.827703
2.5023847,-1.1527613,-5.256741,-16.120564,-46.43952,-9.188827
2.4028986,-1.6424351,-5.825493,-13.384456,-52.343666,-8.313927
2.2091622,-2.0868838,-6.4690137,-4.7945685,-59.152626,-8.166749
2.0186565,-2.2641428,-7.035318,5.67541,-66.65584,-8.704137
1.8445783,-2.3364851,-7.502276,13.498375,-73.56315,-9.421892
1.7246206,-2.463849,-7.9190745,19.717522,-81.39223,-9.142928
1.7594026,-2.7135625,-8.16494,23.854939,-89.77384,-5.9123964
1.9048327,-2.9601338,-8.1608715,26.828037,-97.75826,0.37906775
1.9962581,-2.9880106,-7.882177,29.580307,-104.728424,6.645948
1.9623777,-2.8183742,-7.419519,32.074673,-110.73946,11.994341
1.9017416,-2.5326312,-6.7660413,33.173058,-115.92916,16.801573
1.8915511,-2.1844702,-5.96606,32.859173,-120.15208,20.855473
1.9564102,-1.7647913,-5.020298,30.717386,-122.55733,24.20511
2.058604,-1.23858,-3.8924992,27.67019,-122.77787,26.579138
2.1358173,-0.7637157,-2.801916,24.203392,-121.04865,27.656137
2.182479,-0.38822374,-1.8473148,21.02452,-117.78569,27.640903
2.2094011,-0.07636708,-1.058249,18.11945,-113.35153,27.049341
2.214009,0.18121867,-0.43571594,14.994164,-108.14146,26.258774
2.1832185,0.3421966,-0.028152136,11.866409,-102.54693,25.244595
2.1376958,0.43715325,0.23828183,9.397666,-96.87689,24.089756
2.064415,0.5065231,0.38686925,7.787983,-91.40602,22.496296
1.9665738,0.5590392,0.44263405,6.9473186,-86.36783,20.641241
1.871354,0.6139543,0.44478363,6.424384,-81.80982,18.795565
1.7845292,0.69338083,0.4010894,6.057472,-77.69347,16.863417
1.7116965,0.8209706,0.32958227,5.6363125,-74.0028,14.823443
1.6460592,0.98721087,0.22936444,5.041834,-70.78411,12.586634
1.5780587,1.1668212,0.105109416,4.5093126,-67.93828,9.815702
1.5084193,1.3554817,-0.03383148,3.4972847,-65.55014,6.516401
1.433648,1.5470471,-0.19374146,1.8711576,-63.689774,3.0008788
1.3760872,1.7058548,-0.34027338,-0.43514723,-62.215862,-0.29509544
1.3080086,1.8202796,-0.45916384,-3.1779578,-61.027893,-3.7127764
1.2212006,1.8467877,-0.55818033,-5.8305764,-60.20565,-7.339988
1.13327,1.7910675,-0.6455913,-7.955498,-59.75195,-11.181642
1.090047,1.6428852,-0.6789742,-9.402032,-59.698242,-14.938669
1.1114527,1.4429984,-0.62106913,-11.160996,-59.550274,-17.658638
1.1679041,1.185023,-0.5100358,-12.751155,-59.179237,-19.838531
1.2554137,0.8742059,-0.36706126,-13.621959,-58.264446,-21.613503
1.336026,0.55512565,-0.22379442,-13.659477,-56.745487,-22.695646
1.3704566,0.29024056,-0.101680204,-13.553848,-55.02686,-23.255074
1.3731306,0.06370627,-0.00035597087,-13.255944,-53.20623,-23.45211
1.3516833,-0.12709779,0.07607494,-12.76938,-51.21437,-23.212858
1.2996353,-0.26842296,0.12012507,-12.355609,-49.246548,-22.531897
1.2350364,-0.36203563,0.14756142,-12.132492,-47.311398,-21.538189
1.1681763,-0.417947,0.15723713,-11.768157,-45.374634,-20.524633
1.0936502,-0.45042834,0.14766803,-11.222938,-43.557793,-19.62661
1.0180697,-0.46042863,0.12603748,-10.791953,-41.94244,-18.752508
0.95710665,-0.4630052,0.10690925,-10.421928,-40.5062,-17.821815
0.91556996,-0.45978406,0.09128234,-9.97751,-39.180458,-16.950611
0.88195837,-0.45058382,0.069484994,-9.36514,-37.97223,-15.93631
0.8490021,-0.44106624,0.042753536,-8.688261,-36.964127,-14.846314
0.8358396,-0.42536265,0.03380865,-8.281788,-35.835297,-13.436855
0.8344479,-0.39657834,0.032218404,-8.578831,-34.20478,-11.739299
0.8229709,-0.37124968,0.0322443,-9.196435,-32.341724,-10.517375
0.7958117,-0.3589979,0.031180192,-8.89294,-31.2744,-10.170287
0.76964283,-0.34719288,0.030154884,-8.600511,-30.245995,-9.835855
0.7444194,-0.3358144,0.029166622,-8.318647,-29.254747,-9.513505
0.72009957,-0.32484347,0.028213762,-8.046881,-28.29901,-9.202703
0.69664395,-0.31426242,0.02729476,-7.7847714,-27.377232,-8.9029455
0.67401534,-0.30405447,0.026408164,-7.531904,-26.487955,-8.613758
0.6521789,-0.29420385,0.025552604,-7.287889,-25.629812,-8.334693
0.63110167,-0.2846957,0.024726791,-7.0523577,-24.801502,-8.065331
0.61075246,-0.275516,0.023929503,-6.8249626,-24.001806,-7.8052735
0.59110194,-0.26665148,0.023159588,-6.6053743,-23.229565,-7.5541444
0.5721222,-0.25808954,0.022415955,-6.3932815,-22.483685,-7.311588
0.5537868,-0.24981828,0.021697568,-6.18839,-21.763126,-7.0772657
0.53607076,-0.2418264,0.021003446,-5.9904184,-21.066908,-6.8508587
0.51895016,-0.23410316,0.020332657,-5.7991014,-20.39409,-6.6320615
0.5024025,-0.22663833,0.019684311,-5.6141863,-19.743786,-6.420586
0.48640612,-0.21942222,0.019057566,-5.4354315,-19.115149,-6.216156
0.47094053,-0.21244556,0.01845162,-5.262609,-18.507372,-6.0185094
0.45598617,-0.20569952,0.017865703,-5.095499,-17.919683,-5.8273964
0.4415244,-0.19917567,0.017299086,-4.933893,-17.351355,-5.642578
0.42753735,-0.19286598,0.016751068,-4.777592,-16.80168,-5.463827
0.41400796,-0.18676277,0.016220981,-4.6264057,-16.269993,-5.2909245
0.40091997,-0.18085866,0.01570819,-4.4801517,-15.755651,-5.1236634
0.38825777,-0.17514662,0.01521208,-4.3386555,-15.258043,-4.9618435
0.3760064,-0.16961992,0.014732067,-4.2017508,-14.77658,-4.8052735
0.36415154,-0.16427208,0.014267589,-4.0692763,-14.3106985,-4.6537714
0.35267946,-0.15909693,0.013818109,-3.9410796,-13.85986,-4.507161
0.341577,-0.1540885,0.01338311,-3.817013,-13.423547,-4.365274
0.33083147,-0.14924109,0.012962096,-3.6969352,-13.001262,-4.2279487
0.32043076,-0.14454924,0.012554592,-3.5807104,-12.592526,-4.09503
0.31036314,-0.14000764,0.01216014,-3.4682083,-12.196882,-3.9663682
0.30061746,-0.13561127,0.011778301,-3.3593032,-11.813888,-3.8418205
0.29118285,-0.13135523,0.011408649,-3.2538745,-11.44312,-3.7212484
0.28204894,-0.12723485,0.011050779,-3.151806,-11.084169,-3.6045194
0.27320576,-0.1232456,0.010704299,-3.0529861,-10.736643,-3.4915054
0.2646436,-0.11938315,0.010368832,-2.9573073,-10.400162,-3.3820834
0.2563533,-0.1156433,0.010044015,-2.8646655,-10.074363,-3.276135
0.24832581,-0.112022035,0.009729495,-2.774961,-9.758893,-3.1735456
0.24055257,-0.10851546,0.009424937,-2.6880975,-9.453414,-3.0742054
0.23302525,-0.10511981,0.009130013,-2.6039822,-9.157599,-2.978008
0.22573583,-0.10183149,0.008844412,-2.5225253,-8.871135,-2.884851
0.21867658,-0.098647,0.008567828,-2.4436405,-8.593716,-2.7946355
0.21184006,-0.09556298,0.00829997,-2.3672445,-8.325048,-2.7072663
0.20521903,-0.092576176,0.008040556,-2.2932568,-8.06485,-2.622651
0.19880657,-0.08968345,0.007789313,-2.2215993,-7.812848,-2.5407012
0.19259593,-0.08688178,0.0075459783,-2.1521976,-7.568778,-2.4613307
0.18658064,-0.084168226,0.0073102973,-2.0849786,-7.332385,-2.3844569
0.18075445,-0.08153998,0.0070820246,-2.019873,-7.1034226,-2.3099995
0.1751113,-0.0789943,0.0068609235,-1.9568123,-6.881654,-2.2378812
0.16964531,-0.07652854,0.0066467645,-1.8957317,-6.6668477,-2.1680272
0.16435085,-0.07414017,0.006439326,-1.8365679,-6.458782,-2.1003654
0.15922247,-0.071826704,0.006238394,-1.7792598,-6.257243,-2.0348258
0.15425485,-0.06958577,0.006043761,-1.7237484,-6.062022,-1.9713409
0.14944293,-0.067415066,0.005855228,-1.6699766,-5.872919,-1.9098455
0.14478171,-0.06531235,0.0056726,-1.617889,-5.6897397,-1.8502764
0.14026646,-0.06327548,0.0054956907,-1.5674325,-5.5122957,-1.7925725
0.13589254,-0.06130236,0.0053243185,-1.5185554,-5.340406,-1.7366748
0.13165547,-0.059390984,0.005158309,-1.4712075,-5.173895,-1.6825261
0.12755094,-0.057539392,0.0049974923,-1.4253408,-5.012592,-1.6300712
0.12357477,-0.055745702,0.0048417044,-1.3809083,-4.8563333,-1.5792565
0.119722895,-0.05400809,0.0046907864,-1.3378649,-4.7049594,-1.5300305
0.115991406,-0.05232478,0.0045445855,-1.2961667,-4.5583167,-1.482343
0.11237651,-0.050694067,0.0044029523,-1.2557714,-4.416256,-1.4361454
0.108874545,-0.049114298,0.004265744,-1.216638,-4.2786326,-1.3913912
0.105481945,-0.047583867,0.0041328208,-1.1787268,-4.145308,-1.3480345
0.10219528,-0.04610122,0.004004048,-1.1419994,-4.016146,-1.3060317
0.09901123,-0.044664863,0.0038792957,-1.1064186,-3.8910167,-1.2653402
0.09592655,-0.04327334,0.003758437,-1.0719484,-3.769793,-1.2259189
0.09293815,-0.041925244,0.0036413502,-1.038554,-3.6523526,-1.1877277
0.09004299,-0.040619213,0.003527917,-1.0062015,-3.5385766,-1.1507283
0.08723816,-0.03935393,0.0034180228,-0.97485834,-3.4283502,-1.1148832
0.084520824,-0.03812811,0.0033115565,-0.944493,-3.3215623,-1.0801563
0.081888236,-0.03694053,0.003208411,-0.9150747,-3.218105,-1.0465125
0.07933775,-0.035789985,0.0031084819,-0.8865739,-3.1178741,-1.0139179
0.076866806,-0.034675315,0.003011669,-0.85896176,-3.020769,-0.9823397
0.07447289,-0.033595398,0.0029178748,-0.8322106,-2.926691,-0.9517461
0.07215361,-0.03254915,0.0028270045,-0.8062934,-2.8355463,-0.92210627
0.06990663,-0.031535517,0.002738967,-0.78118414,-2.747243,-0.89339036
0.06772969,-0.03055348,0.0026536738,-0.7568575,-2.6616917,-0.86556953
0.0656206,-0.029602049,0.0025710387,-0.73328906,-2.578807,-0.83861583
0.063577235,-0.02868027,0.0024909792,-0.7104551,-2.4985056,-0.81250215
0.06159755,-0.027787216,0.0024134142,-0.6883328,-2.4207063,-0.78720224
0.05967955,-0.026921988,0.0023382665,-0.66689974,-2.3453314,-0.76269066
0.05782131,-0.02608372,0.0022654599,-0.64613456,-2.272305,-0.7389428
0.05602097,-0.02527157,0.002194922,-0.6260163,-2.2015538,-0.7159349
0.05427672,-0.024484722,0.0021265815,-0.6065249,-2.1330068,-0.69364375
0.052586805,-0.023722386,0.00206037,-0.58764064,-2.0665953,-0.672047
0.050949533,-0.022983799,0.0019962213,-0.56934464,-2.0022526,-0.6511231
0.049363263,-0.022268217,0.0019340705,-0.5516186,-1.9399142,-0.6308509
0.047826402,-0.021574926,0.0018738557,-0.53444463,-1.8795176,-0.61121017
0.04633741,-0.020903228,0.0018155165,-0.51780564,-1.821002,-0.5921812
0.044894792,-0.02025245,0.0017589942,-0.50168484,-1.7643089,-0.5737449
0.043497104,-0.01962194,0.0017042323,-0.48606616,-1.7093816,-0.5558828
0.042142946,-0.019011067,0.0016511759,-0.47093388,-1.6561649,-0.53857696
0.040830962,-0.01841922,0.0015997718,-0.45627284,-1.6046056,-0.5218101
0.039559834,-0.0178458,0.0015499685,-0.4420684,-1.5546517,-0.5055654
0.038328286,-0.01729024,0.0015017162,-0.42830628,-1.5062536,-0.48982653
0.03713509,-0.016751979,0.0014549664,-0.4149727,-1.4593625,-0.47457775
0.03597905,-0.016230477,0.0014096722,-0.4020543,-1.4139315,-0.45980385
0.03485901,-0.015725216,0.0013657885,-0.3895382,-1.3699152,-0.44548994
0.03377384,-0.015235687,0.0013232713,-0.37741178,-1.3272694,-0.43162176
0.032722462,-0.0147614,0.0012820779,-0.36566296,-1.2859516,-0.41818538
0.03170382,-0.01430188,0.001242167,-0.35427997,-1.2459202,-0.40516734
0.03071689,-0.013856669,0.0012034988,-0.34325135,-1.2071352,-0.39255464
0.02976069,-0.0134253185,0.0011660346,-0.33256614,-1.1695578,-0.38033465
0.028834263,-0.013007399,0.0011297368,-0.3222136,-1.1331503,-0.3684951
0.027936678,-0.012602489,0.0010945691,-0.31218338,-1.0978763,-0.3570242
0.027067037,-0.0122101875,0.0010604963,-0.30246544,-1.0637006,-0.3459104
0.026224473,-0.011830098,0.0010274843,-0.29305005,-1.0305889,-0.3351426
0.02540814,-0.011461843,0.0009955001,-0.28392777,-0.9985079,-0.32471004
0.02461722,-0.011105052,0.0009645116,-0.2750895,-0.9674258,-0.3146023
0.023850923,-0.010759369,0.0009344878,-0.2665264,-0.93731135,-0.3048092
0.023108484,-0.010424447,0.00090539875,-0.25822985,-0.9081344,-0.295321
0.022389157,-0.010099952,0.00087721524,-0.25019163,-0.8798657,-0.28612816
0.021692224,-0.009785559,0.00084990915,-0.24240361,-0.85247713,-0.27722153
0.021016987,-0.009480954,0.0008234531,-0.23485805,-0.82594115,-0.26859215
0.02036277,-0.009185831,0.0007978207,-0.22754739,-0.8002313,-0.2602314
0.01972892,-0.0088998955,0.00077298615,-0.22046432,-0.7753217,-0.25213096
0.0191148,-0.008622861,0.0007489248,-0.21360174,-0.7511876,-0.24428266
0.018519798,-0.00835445,0.00072561245,-0.2069528,-0.72780484,-0.23667869
0.01794332,-0.0080943955,0.0007030258,-0.20051083,-0.70514995,-0.22931142
0.017384786,-0.0078424355,0.0006811422,-0.1942694,-0.6832003,-0.2221735
0.016843641,-0.0075983196,0.0006599399,-0.18822226,-0.6619339,-0.21525776
0.016319338,-0.0073618023,0.0006393976,-0.18236336,-0.6413295,-0.20855732
0.01581136,-0.007132648,0.00061949476,-0.17668685,-0.62136656,-0.20206545
0.015319192,-0.006910627,0.0006002115,-0.17118704,-0.602025,-0.19577567
