ax,ay,az,gx,gy,gz
-2.549114,0.73546124,-7.2382474,12.373749,4.660951,-18.69926
-2.9211802,0.64042455,-8.0871935,12.032719,-5.3534083,-17.234478
-3.5467713,0.65159816,-8.84948,8.73587,-31.277,-20.87608
-4.1967916,0.6641817,-9.656248,4.2963157,-57.19454,-23.550095
-4.534821,0.5473396,-10.200177,-0.8386834,-81.0744,-25.490795
-4.432909,0.24129258,-10.5331135,-4.457338,-99.16156,-26.676233
-4.084382,-0.36134365,-10.718072,-4.3351154,-112.95464,-26.884726
-3.6920056,-0.98523057,-10.775869,0.13671225,-123.50356,-24.365288
-3.397451,-1.3274271,-10.758121,3.5523362,-133.51857,-20.473206
-3.1678905,-1.5198171,-10.655626,5.7458806,-143.48196,-16.578266
-2.9438536,-1.6293393,-10.42807,8.318331,-153.13278,-13.164553
-2.568583,-1.5615076,-9.967489,9.347488,-161.96194,-8.980562
-2.0400794,-1.351511,-9.280423,8.138219,-168.7163,-4.2288136
-1.4727466,-1.0632675,-8.425986,5.575285,-173.13687,-0.17233303
-0.9887157,-0.8534964,-7.5705066,2.605155,-175.11882,2.5021539
-0.58065253,-0.75545657,-6.7423334,-0.6886805,-175.3632,4.719368
-0.2209299,-0.7393414,-5.979587,-4.0599246,-174.33813,7.1163707
0.13789244,-0.72087884,-5.266448,-7.3792725,-172.41144,9.568988
0.4984153,-0.71484536,-4.597837,-10.247591,-169.60448,11.498306
0.7973508,-0.7606545,-4.0289936,-12.052579,-166.22067,12.538871
1.0525188,-0.849873,-3.5399528,-12.907041,-162.65114,13.026093
1.3202153,-0.9334296,-3.0694282,-13.206469,-158.92033,13.686755
1.6262494,-0.9610385,-2.5971773,-12.99987,-154.31256,14.185824
1.9730703,-0.95431054,-2.1139615,-12.277016,-148.90056,14.190512
2.3323727,-0.9238285,-1.6360579,-11.319308,-142.39758,14.14282
2.6774664,-0.8827166,-1.1875678,-10.233565,-135.13297,14.112646
2.9768307,-0.83477545,-0.7848196,-9.036268,-127.16303,14.048814
3.2128642,-0.77362275,-0.44645327,-7.435469,-118.616066,13.669658
3.3838336,-0.69763124,-0.164882,-5.845745,-109.89394,13.036288
3.522566,-0.6346781,0.08340041,-4.2698507,-100.925804,12.326402
3.6311324,-0.59017044,0.2959666,-2.611728,-91.66768,11.31288
3.7168183,-0.56790656,0.46751317,-0.89616483,-81.955124,10.139817
3.7708535,-0.5704716,0.59455824,0.7689416,-71.684296,8.981667
3.7761395,-0.5838111,0.6361866,3.097973,-61.32222,7.855742
3.7291045,-0.58416796,0.6330337,5.404861,-51.893806,6.495861
3.6885312,-0.5812117,0.6274776,7.655259,-42.902893,5.075556
3.6592367,-0.557073,0.6122549,9.565732,-34.18159,3.6970234
3.629779,-0.5153263,0.58526313,10.9304,-25.56628,2.2518663
3.5805283,-0.4635793,0.5097204,12.087253,-17.325075,0.58304924
3.4859865,-0.4145966,0.38716224,12.859365,-9.87791,-1.3330706
3.3840318,-0.37257645,0.2501542,13.23571,-3.1140099,-3.2559502
3.2894027,-0.3307301,0.09938265,13.450588,3.2024512,-5.035156
3.1899629,-0.26690966,-0.06257081,13.191513,8.855324,-6.8290057
3.0870805,-0.18102936,-0.250401,12.622901,13.823646,-8.70645
2.9929252,-0.08309572,-0.44464213,11.674799,18.210535,-10.657632
2.9107094,0.022060813,-0.64370203,10.333737,22.159008,-12.673382
2.8343701,0.1323027,-0.84908223,8.397056,25.744492,-14.605987
2.7571874,0.23789535,-1.0645041,5.879627,28.855667,-16.405664
2.657489,0.34710324,-1.3041023,3.1091986,31.390732,-18.326824
2.5352805,0.44321907,-1.5623157,0.3405144,33.262882,-20.538424
2.39392,0.52253824,-1.8141804,-2.4067929,34.47953,-22.917059
2.235209,0.58850265,-2.0479994,-5.3311048,34.99388,-25.353743
2.054703,0.6674604,-2.2601347,-8.425607,34.520138,-28.319708
1.8477192,0.76796496,-2.4499605,-11.6250925,33.258213,-31.988293
1.6378317,0.86267805,-2.612453,-15.045287,31.32746,-36.315086
1.4228662,0.93812984,-2.7648385,-18.792784,28.722511,-41.12111
1.20127,0.97068006,-2.9289973,-22.925467,25.188953,-46.29378
1.0201255,0.892134,-3.0898793,-27.084852,20.384848,-50.727497
0.93756557,0.6475656,-3.195275,-30.57481,15.250347,-53.451042
0.8886228,0.36820284,-3.2652977,-33.33836,10.194906,-54.44757
0.8358188,0.10210137,-3.324763,-35.746746,5.016389,-54.56043
0.79464746,-0.19236317,-3.3678918,-37.562637,-0.13706785,-54.319344
0.7675762,-0.5293009,-3.3892577,-38.157497,-5.1626415,-53.48501
0.7477599,-0.89890283,-3.3836713,-37.765522,-10.193699,-52.075336
0.75343025,-1.2702615,-3.3424022,-36.462063,-15.252311,-50.069935
0.81236875,-1.6109948,-3.2522912,-34.24281,-19.871738,-47.52545
0.895201,-1.8996514,-3.1325824,-31.06221,-23.720137,-44.85805
0.973572,-2.137546,-2.9994502,-26.77064,-26.798092,-42.16945
1.0758804,-2.2794254,-2.828157,-22.24321,-29.487995,-39.002033
1.1923351,-2.339646,-2.6400192,-17.709621,-31.77065,-35.59613
1.3144937,-2.3436055,-2.449776,-13.239616,-33.518635,-32.272594
1.4350469,-2.316242,-2.2681348,-8.85584,-34.581795,-29.055466
1.5490112,-2.239802,-2.0911007,-4.7080784,-35.059383,-25.73539
1.6552892,-2.071336,-1.9056576,-0.85760415,-35.122456,-22.582739
1.7509507,-1.854736,-1.7179387,2.4932938,-34.560867,-19.912523
1.8225962,-1.637344,-1.5480392,5.423601,-33.355167,-17.615562
1.8555813,-1.4223654,-1.4170974,7.8299546,-31.73731,-15.536303
1.841098,-1.2101486,-1.3342525,9.599008,-30.093033,-13.825417
1.7923744,-1.0105602,-1.2911092,10.732864,-28.827593,-12.233594
1.7492949,-0.8337001,-1.2516007,11.331623,-27.735905,-10.627869
1.7107567,-0.6797516,-1.2109737,11.597619,-26.604458,-9.06246
1.6662511,-0.5384441,-1.1763147,11.555322,-25.319258,-7.6915703
1.61053,-0.41357106,-1.1606698,11.577742,-24.010101,-7.017584
1.5489261,-0.30458856,-1.1584796,11.376861,-22.975122,-6.605066
1.4969615,-0.22420035,-1.1560452,10.948467,-22.259018,-6.1731787
1.4582139,-0.16817473,-1.1484448,10.430274,-21.646322,-5.666927
1.4264151,-0.12909605,-1.1340256,9.890302,-20.898022,-5.142375
1.3869094,-0.0996696,-1.1211324,9.379021,-19.980185,-4.5694222
1.3369663,-0.05258714,-1.0933177,8.794091,-19.041803,-4.0682874
1.272408,0.0063494626,-1.0674527,8.067075,-18.163864,-3.839406
1.1971806,0.05561493,-1.0385243,7.2579746,-17.426603,-3.9179914
1.1258414,0.08308947,-1.0071937,6.3235307,-16.84076,-3.9825926
1.0625838,0.08962891,-0.9791092,5.26774,-16.411045,-3.7929742
1.0196018,0.072899416,-0.9484711,4.24726,-16.101881,-3.4221673
0.99609053,0.044561382,-0.912201,3.3831587,-15.708924,-3.0287325
0.9649406,0.043167852,-0.8836745,3.2773602,-15.217672,-2.9340177
0.9347735,0.041818283,-0.856048,3.1748993,-14.741919,-2.8422909
0.90555733,0.04051126,-0.82929236,3.0756683,-14.281163,-2.7534556
0.8772614,0.039245408,-0.8033795,2.9795632,-13.83492,-2.6674185
0.84985614,0.038019396,-0.7782823,2.886483,-13.402723,-2.5840893
0.8233129,0.036831953,-0.75397444,2.7963305,-12.98412,-2.5033815
0.79760396,0.035681833,-0.7304307,2.7090118,-12.578676,-2.4252105
0.77270275,0.034567844,-0.70762664,2.6244361,-12.185969,-2.3494952
0.7485833,0.033488832,-0.68553853,2.5425162,-11.805593,-2.2761574
0.72522086,0.03244368,-0.6641436,2.463167,-11.437152,-2.2051208
0.7025911,0.03143131,-0.64341974,2.3863065,-11.080269,-2.1363125
0.68067086,0.03045068,-0.62334555,2.3118558,-10.734573,-2.0696614
0.65943754,0.029500779,-0.6039005,2.239738,-10.399712,-2.0050988
0.6388693,0.028580634,-0.5850645,2.1698794,-10.075338,-1.9425586
0.6189451,0.0276893,-0.5668183,2.1022081,-9.761123,-1.8819768
0.5996446,0.026825866,-0.54914325,2.0366552,-9.456742,-1.8232912
0.58094794,0.025989449,-0.5320212,1.9731531,-9.161885,-1.7664418
0.56283617,0.025179194,-0.5154348,1.9116375,-8.876252,-1.7113708
0.5452907,0.024394277,-0.499367,1.8520457,-8.59955,-1.6580218
0.5282938,0.023633897,-0.48380154,1.7943166,-8.331499,-1.6063406
0.5118281,0.022897283,-0.46872255,1.738392,-8.071825,-1.5562747
0.49587688,0.022183685,-0.45411474,1.6842146,-7.8202653,-1.507773
0.48042396,0.021492379,-0.43996322,1.6317297,-7.576564,-1.4607866
0.46545365,0.020822663,-0.4262537,1.580884,-7.340473,-1.4152676
0.45095077,0.020173859,-0.41297224,1.531626,-7.111755,-1.3711699
0.4369007,0.01954531,-0.40010545,1.4839057,-6.890177,-1.3284489
0.42328915,0.01893638,-0.38764027,1.437675,-6.675515,-1.2870615
0.4101024,0.018346455,-0.37556407,1.392887,-6.467552,-1.2469655
0.39732713,0.017774936,-0.36386472,1.3494966,-6.266079,-1.2081208
0.38495043,0.017221248,-0.35253036,1.30746,-6.070891,-1.1704879
0.3729598,0.016684832,-0.34154958,1.2667345,-5.881792,-1.134029
0.36134318,0.016165147,-0.33091128,1.2272793,-5.6985908,-1.0987072
0.3500888,0.01566167,-0.32060474,1.1890546,-5.521103,-1.064487
0.3391854,0.015173891,-0.3106196,1.1520218,-5.3491497,-1.0313338
0.32862192,0.014701321,-0.3009458,1.1161437,-5.1825576,-0.9992143
0.31838778,0.014243484,-0.29157355,1.0813841,-5.0211596,-0.9680962
0.30847266,0.013799919,-0.28249347,1.047708,-4.8647923,-0.9379481
0.2988666,0.01337018,-0.27369642,1.0150816,-4.7132993,-0.90873975
0.28955996,0.012953834,-0.26517355,0.98347217,-4.566528,-0.8804417
0.28054333,0.012550464,-0.2569163,0.9528478,-4.4243307,-0.8530256
0.2718077,0.012159664,-0.24891637,0.9231777,-4.2865644,-0.8264639
0.26334426,0.0117810415,-0.24116571,0.8944322,-4.1530914,-0.80072975
0.25514454,0.011414216,-0.23365656,0.86658233,-4.023777,-0.7757975
0.24720027,0.0110588195,-0.22638136,0.83960015,-3.8984914,-0.75164205
0.23950352,0.010714496,-0.21933281,0.8134586,-3.7771091,-0.7282391
0.23204653,0.010380898,-0.21250385,0.7881315,-3.6595082,-0.7055653
0.22482185,0.010057692,-0.20588763,0.76359326,-3.5455706,-0.6835978
0.21782221,0.009744555,-0.1994775,0.73981947,-3.4351823,-0.66231453
0.2110406,0.009441171,-0.19326702,0.71678615,-3.3282325,-0.64169425
0.20447022,0.009147236,-0.18724997,0.6944702,-3.2246137,-0.6217162
0.19810447,0.008862456,-0.18142036,0.67284936,-3.1242223,-0.60236037
0.19193698,0.008586546,-0.17577228,0.6519019,-3.0269573,-0.58360744
0.18596157,0.008319228,-0.17030011,0.6316068,-2.9327216,-0.56543845
0.18017225,0.0080602355,-0.16499837,0.6119437,-2.8414207,-0.54783535
0.17456323,0.0078093084,-0.15986171,0.592893,-2.752963,-0.5307804
0.16912887,0.0075661954,-0.15488502,0.57443553,-2.66726,-0.51425654
0.16386372,0.007330653,-0.15006332,0.5565528,-2.5842257,-0.49824727
0.15876253,0.0071024443,-0.14539175,0.53922695,-2.503777,-0.4827365
0.15382019,0.0068813423,-0.14086564,0.5224406,-2.4258335,-0.4677087
0.14903173,0.0066671246,-0.13648047,0.5061769,-2.3503168,-0.45314884
0.14439237,0.006459577,-0.13223182,0.49041963,-2.2771513,-0.43904233
0.13989747,0.006258492,-0.12811548,0.47515297,-2.206264,-0.425375
0.13554251,0.0060636676,-0.12412729,0.46036163,-2.137584,-0.41213328
0.13132316,0.005874909,-0.12026328,0.44603083,-2.071042,-0.3993038
0.12723516,0.0056920275,-0.11651957,0.43214622,-2.0065722,-0.38687375
0.123274446,0.0055148397,-0.11289242,0.4186939,-1.9441093,-0.37483072
0.11943704,0.0053431685,-0.1093782,0.4056604,-1.8835913,-0.36316264
0.1157191,0.0051768417,-0.105973385,0.39303267,-1.8249573,-0.3518578
0.11211692,0.0050156936,-0.102674566,0.38079807,-1.7681488,-0.34090492
0.10862688,0.004859562,-0.09947845,0.36894438,-1.7131088,-0.33029306
0.10524549,0.0047082915,-0.09638184,0.3574597,-1.6597823,-0.32001153
0.101969376,0.00456173,-0.093381636,0.34633255,-1.608116,-0.3100501
0.09879524,0.0044197314,-0.09047483,0.33555183,-1.5580581,-0.3003988
0.09571993,0.004282153,-0.08765851,0.3251067,-1.5095587,-0.29104793
0.09274035,0.004148858,-0.08492987,0.31498677,-1.462569,-0.28198814
0.08985353,0.0040197126,-0.08228618,0.30518186,-1.4170423,-0.27321044
0.08705658,0.003894587,-0.07972478,0.2956822,-1.3729327,-0.26470596
0.0843467,0.003773357,-0.07724312,0.28647825,-1.3301961,-0.25646624
0.08172117,0.003655901,-0.07483871,0.2775608,-1.2887901,-0.24848302
0.07917738,0.003542101,-0.072509155,0.268921,-1.2486731,-0.2407483
0.07671277,0.0034318438,-0.07025211,0.2605501,-1.2098048,-0.23325437
0.07432489,0.0033250188,-0.06806534,0.2524398,-1.1721464,-0.22599372
0.07201134,0.003221519,-0.06594663,0.24458198,-1.1356604,-0.2189591
0.06976981,0.0031212412,-0.06389388,0.23696876,-1.1003102,-0.21214345
0.06759805,0.003024085,-0.061905023,0.22959252,-1.0660603,-0.20553997
