ax,ay,az,gx,gy,gz
-1.7791071,2.4054763,-3.819126,78.403435,161.57782,-32.682117
-2.3903632,2.6020303,-4.621436,83.65104,154.1536,-52.5312
-2.738942,2.4973147,-5.0811605,76.10574,137.55237,-60.48651
-2.8860855,2.3532908,-5.538177,64.108765,122.10761,-60.11281
-3.0275383,2.19006,-5.99195,50.71299,108.01024,-56.248375
-3.2225618,2.0295248,-6.5825915,39.179173,93.91328,-52.262985
-3.5630288,1.8463308,-7.2740207,30.790924,77.86969,-48.906757
-3.96792,1.6900867,-7.9414287,25.25712,57.284687,-46.918003
-4.231454,1.5323443,-8.375792,20.92851,37.408836,-45.30065
-4.3195257,1.4225947,-8.644241,17.01826,18.905594,-43.203987
-4.30362,1.3573399,-8.801575,13.517986,2.0498562,-41.22935
-4.233007,1.2643512,-8.8921585,11.14395,-13.376028,-39.827953
-4.1146007,1.1541744,-8.892065,10.686044,-27.736155,-39.497513
-3.9149363,1.0053667,-8.808655,11.038508,-41.778324,-39.203636
-3.5938442,0.84804434,-8.573618,10.698288,-55.065994,-37.532433
-3.15433,0.7138426,-8.183156,9.308849,-65.979515,-34.20901
-2.7447798,0.5793139,-7.7681484,8.111617,-74.73435,-30.939579
-2.3771098,0.45214343,-7.3372445,8.400764,-81.60475,-28.899723
-1.8829975,0.36530212,-6.7351494,8.852251,-86.628075,-26.941088
-1.3153164,0.35027876,-6.015052,8.818096,-89.70507,-24.760565
-0.7769296,0.3584315,-5.2557216,7.6128716,-90.92931,-22.48223
-0.35020527,0.29364482,-4.5543823,6.22958,-90.42005,-20.390663
-0.020337664,0.12888473,-3.9325275,5.419878,-87.81545,-18.066206
0.23907244,-0.0709919,-3.3975327,5.3282533,-84.42782,-15.204434
0.43315,-0.18982899,-2.9290788,5.766961,-81.054955,-12.485621
0.56974757,-0.22878763,-2.5008476,6.69795,-77.91988,-10.692567
0.7061011,-0.2454122,-2.0878656,7.9628544,-74.7082,-9.62022
0.87739587,-0.24284196,-1.6728021,9.288329,-70.67427,-8.563109
1.0600989,-0.20434964,-1.2856662,10.312934,-66.16409,-7.6292214
1.2241848,-0.16259491,-0.954124,11.564924,-61.202732,-6.9775367
1.3613433,-0.12355742,-0.6652912,12.792217,-56.099804,-6.668352
1.4850649,-0.092244826,-0.4047878,14.094585,-50.755054,-6.5783334
1.5983608,-0.058297504,-0.1675938,15.421126,-44.88394,-6.7743015
1.7077328,-0.035628323,0.044542808,16.629295,-38.310047,-7.351523
1.8010253,-0.049312737,0.22157128,17.554998,-31.230707,-8.016516
1.8733519,-0.09508015,0.35241336,18.425688,-23.62996,-8.417899
1.9006085,-0.13150005,0.3897662,19.988785,-16.320904,-8.625851
1.8892996,-0.14624311,0.39646444,21.878595,-9.85799,-9.051667
1.9257617,-0.12794212,0.43609843,23.740587,-3.394927,-9.66448
1.985336,-0.097192444,0.47141734,25.276146,3.4201207,-10.3176365
2.0373151,-0.060219508,0.46665928,26.208399,10.429566,-10.951756
2.064817,0.025520165,0.395324,26.323566,16.60611,-11.992957
2.0659258,0.117352925,0.3007942,26.149303,22.25334,-13.541557
2.0528078,0.20943157,0.1598961,25.545603,27.457375,-15.147788
2.0248487,0.28785357,-0.018044982,24.68568,32.157497,-16.770964
1.9945521,0.35200697,-0.21994035,23.69424,36.582115,-18.251867
1.9583949,0.42376542,-0.4452281,22.579367,40.533497,-19.825489
1.9143772,0.5122962,-0.6899354,20.911074,43.491222,-21.638731
1.8563015,0.6070685,-0.9553623,18.964111,45.45655,-23.552116
1.787533,0.70799994,-1.2143466,16.487688,46.55382,-25.594826
1.7125729,0.8080688,-1.4716405,13.531332,47.03606,-27.893515
1.6297233,0.88968873,-1.7216207,10.586275,46.91389,-30.294273
1.5421723,0.9729832,-1.9593588,7.543174,45.86658,-32.705727
1.4349942,1.0650882,-2.173858,4.1312475,44.219128,-35.0448
1.3073866,1.1644019,-2.3824344,0.013173977,41.89492,-37.48496
1.1863909,1.2254742,-2.5823755,-4.263515,38.955322,-40.046757
1.1039395,1.25946,-2.7419786,-8.524748,35.75159,-42.597458
1.062746,1.2421737,-2.8630424,-12.958072,32.20355,-44.42191
0.98692834,1.1335745,-2.9678774,-17.553593,28.170446,-45.211926
0.8573561,0.9780206,-3.0675867,-22.31982,23.413857,-44.971867
0.7008124,0.77838385,-3.1597524,-26.689993,18.305569,-44.09592
0.5317681,0.5641912,-3.235668,-29.87302,13.61931,-44.03171
0.35189253,0.31536728,-3.2869675,-31.035957,9.153184,-45.559628
0.22759582,0.012649865,-3.2959325,-31.877298,4.2843843,-46.570293
0.16023587,-0.3121383,-3.2491531,-32.888077,-0.8198212,-46.126472
0.13328877,-0.64783436,-3.1603346,-33.838886,-5.7595854,-44.543476
0.12808774,-0.9708836,-3.031587,-33.961315,-10.328203,-42.54674
0.14999862,-1.252886,-2.8646402,-33.017418,-14.057169,-40.578392
0.19716983,-1.5209701,-2.6838875,-31.013636,-17.251453,-38.62357
0.26808083,-1.7593255,-2.500956,-28.354855,-20.066381,-36.368286
0.3820328,-1.9237676,-2.2942536,-25.498991,-22.542643,-33.642063
0.53557277,-2.0101955,-2.0556195,-22.650549,-24.385592,-30.61817
0.70181966,-2.0264473,-1.8078535,-19.733463,-25.012497,-27.705858
0.83861387,-1.9928466,-1.5958724,-16.668568,-24.875439,-25.081097
0.93939704,-1.9148577,-1.4069111,-13.574714,-24.350376,-22.938864
1.0211232,-1.8114151,-1.2483732,-10.667096,-23.344185,-20.944006
1.0780858,-1.6821369,-1.1178317,-8.114826,-22.287834,-18.962132
1.1168668,-1.537262,-1.0047071,-6.1467767,-21.150192,-16.902071
1.1273787,-1.3936166,-0.9337498,-4.5526385,-19.797152,-14.876128
1.115985,-1.2474002,-0.8975316,-3.0543602,-18.474438,-13.069708
1.0915388,-1.0870658,-0.872123,-1.6967651,-17.44057,-11.817702
1.0757186,-0.93957835,-0.84029245,-0.47130525,-16.497654,-10.988393
1.0694358,-0.8026839,-0.8099572,0.48819065,-15.487121,-10.535189
1.0634803,-0.690051,-0.7929191,1.1828102,-14.361255,-10.121457
1.0464675,-0.5885348,-0.78814596,1.6174033,-13.183255,-9.6232
1.0103103,-0.48439234,-0.80305684,1.7774413,-12.238392,-9.096788
0.9638835,-0.37999654,-0.8284762,1.6067294,-11.817896,-8.679135
0.9363458,-0.29784316,-0.84317297,1.1772436,-11.5850525,-8.395405
0.9356452,-0.25069255,-0.83818233,0.8724181,-10.967295,-8.141744
0.92431146,-0.21613474,-0.83739316,0.7513406,-9.965582,-7.8732033
0.88620883,-0.19091277,-0.85642725,0.6914652,-8.98038,-7.563473
0.858458,-0.18493451,-0.829609,0.6698126,-8.699167,-7.3266296
0.831586,-0.17914557,-0.80364007,0.64884573,-8.426861,-7.097287
0.80556417,-0.17353979,-0.77849275,0.6285422,-8.163169,-6.8752003
0.7803648,-0.16811118,-0.7541402,0.60888034,-7.9078116,-6.6601324
0.7559611,-0.16285399,-0.7305566,0.58983934,-7.660517,-6.451856
0.73232734,-0.15776265,-0.70771706,0.5713991,-7.4210253,-6.25015
0.70943856,-0.1528318,-0.6855975,0.5535401,-7.189082,-6.054803
0.68727076,-0.14805627,-0.6641747,0.5362436,-6.964445,-5.8656087
0.66580075,-0.14343105,-0.6434261,0.5194916,-6.746879,-5.6823697
0.645006,-0.13895132,-0.62333024,0.5032665,-6.536156,-5.5048943
0.62486494,-0.13461241,-0.60386604,0.48755145,-6.332057,-5.3329973
0.60535663,-0.1304098,-0.5850133,0.47233006,-6.13437,-5.166501
0.5864608,-0.12633915,-0.5667525,0.4575866,-5.9428897,-5.0052323
0.56815803,-0.12239624,-0.54906476,0.4433058,-5.757418,-4.8490243
0.5504293,-0.118576996,-0.53193176,0.42947292,-5.5777645,-4.6977158
0.53325635,-0.11487749,-0.515336,0.41607374,-5.403743,-4.551151
0.51662153,-0.11129392,-0.4992602,0.40309444,-5.2351747,-4.4091787
0.50050783,-0.107822604,-0.483688,0.39052168,-5.0718865,-4.271654
0.4848987,-0.10445998,-0.4686034,0.37834263,-4.9137115,-4.138436
0.4697781,-0.10120261,-0.45399094,0.36654478,-4.7604876,-4.009387
0.45513064,-0.09804716,-0.43983573,0.3551161,-4.6120577,-3.8843763
0.44094136,-0.09499041,-0.4261233,0.3440449,-4.468271,-3.7632759
0.4271958,-0.09202925,-0.41283965,0.3333199,-4.3289804,-3.6459625
0.41387993,-0.089160666,-0.39997128,0.3229302,-4.1940446,-3.5323162
0.40098026,-0.08638173,-0.38750508,0.3128652,-4.063326,-3.4222221
0.3884836,-0.08368963,-0.3754284,0.3031147,-3.9366913,-3.315568
0.37637737,-0.08108162,-0.363729,0.29366878,-3.814013,-3.2122455
0.36464924,-0.07855507,-0.35239497,0.28451788,-3.6951659,-3.1121497
0.35328728,-0.076107405,-0.34141487,0.2756527,-3.58003,-3.0151799
0.34228006,-0.07373616,-0.33077756,0.26706433,-3.4684885,-2.921237
0.3316164,-0.07143893,-0.32047224,0.258744,-3.3604283,-2.8302267
0.32128555,-0.06921339,-0.31048855,0.25068334,-3.255741,-2.7420564
0.31127703,-0.06705729,-0.3008164,0.24287419,-3.1543198,-2.6566374
0.3015808,-0.06496846,-0.291446,0.23530868,-3.0560632,-2.5738833
0.292187,-0.06294479,-0.2823679,0.22797917,-2.9608712,-2.4937108
0.2830862,-0.060984243,-0.27357292,0.22087826,-2.8686485,-2.4160388
0.27426922,-0.059084833,-0.26505226,0.21399881,-2.779302,-2.340789
0.2657272,-0.05724465,-0.25679728,0.20733388,-2.6927414,-2.267886
0.25745147,-0.055461846,-0.24879968,0.20087674,-2.6088796,-2.1972556
0.24943377,-0.05373462,-0.2410514,0.19462092,-2.5276322,-2.1288273
0.24166599,-0.052061237,-0.23354468,0.18856011,-2.4489176,-2.0625322
0.23414035,-0.050440013,-0.22627193,0.18268822,-2.3726566,-1.9983035
0.22684926,-0.04886932,-0.21922585,0.17699933,-2.2987726,-1.9360766
0.21978538,-0.047347575,-0.21239938,0.17148775,-2.227191,-1.875789
0.21294165,-0.04587325,-0.20578562,0.1661479,-2.15784,-1.8173802
0.20631115,-0.04444487,-0.19937795,0.16097446,-2.09065,-1.7607914
0.19988726,-0.043060992,-0.19316994,0.15596221,-2.0255537,-1.7059658
0.19366351,-0.041720234,-0.18715534,0.15110613,-1.9624854,-1.6528484
0.18763366,-0.040421244,-0.18132813,0.14640133,-1.9013821,-1.6013857
0.18179166,-0.03916272,-0.17568244,0.14184311,-1.8421823,-1.5515263
0.17613164,-0.037943404,-0.17021264,0.13742687,-1.7848266,-1.5032201
0.17064793,-0.03676207,-0.1649132,0.1331482,-1.7292575,-1.4564186
0.16533503,-0.03561753,-0.15977885,0.12900281,-1.6754193,-1.411075
0.1601876,-0.034508638,-0.15480441,0.12498652,-1.623258,-1.3671435
0.15520051,-0.033434287,-0.14998491,0.12109534,-1.5727214,-1.3245804
0.15036874,-0.032393392,-0.1453155,0.117325336,-1.5237586,-1.283343
0.14568743,-0.03138492,-0.14079152,0.11367275,-1.4763207,-1.2433897
0.14115192,-0.03040785,-0.13640843,0.11013391,-1.4303602,-1.2046808
0.13675764,-0.029461207,-0.13216183,0.10670528,-1.385831,-1.1671772
0.13250022,-0.028544044,-0.12804747,0.103383414,-1.3426883,-1.1308416
0.12837535,-0.027655441,-0.124061234,0.10016499,-1.3008893,-1.0956374
0.12437895,-0.026794508,-0.12019912,0.097046785,-1.2603917,-1.0615295
0.12050698,-0.025960384,-0.116457276,0.09402568,-1.2211552,-1.0284836
0.11675557,-0.025152232,-0.112831935,0.09109864,-1.1831403,-0.99646676
0.11312097,-0.024369244,-0.10931948,0.08826274,-1.1463091,-0.96544677
0.10959954,-0.023610635,-0.10591638,0.085515134,-1.1106248,-0.9353926
0.106187746,-0.022875644,-0.102619246,0.08285309,-1.0760515,-0.9062742
0.102882184,-0.022163538,-0.09942477,0.08027392,-1.0425546,-0.87806237
0.09967954,-0.021473603,-0.09632975,0.077775046,-1.0101007,-0.8507289
0.0965766,-0.02080515,-0.09333109,0.07535398,-0.9786571,-0.8242465
0.09357027,-0.020157507,-0.09042579,0.07300829,-0.94819254,-0.7985886
0.09065754,-0.019530028,-0.087610945,0.070735626,-0.91867644,-0.77372944
0.08783549,-0.018922083,-0.08488373,0.06853372,-0.89007926,-0.7496443
0.08510129,-0.018333066,-0.082241416,0.066400364,-0.86237234,-0.7263089
0.08245222,-0.017762385,-0.07968137,0.064333424,-0.835528,-0.7037
0.07988562,-0.017209472,-0.077201016,0.062330827,-0.8095194,-0.681795
0.07739892,-0.016673772,-0.07479788,0.060390577,-0.7843205,-0.66057193
0.07498963,-0.016154747,-0.07246956,0.05851073,-0.759906,-0.6400095
0.07265535,-0.01565188,-0.07021373,0.056689404,-0.7362516,-0.62008727
0.07039373,-0.015164669,-0.068028115,0.054924775,-0.71333355,-0.6007852
0.068202525,-0.014692624,-0.06591054,0.053215083,-0.69112897,-0.582084
0.06607953,-0.014235275,-0.06385889,0.05155861,-0.6696156,-0.56396496
0.064022616,-0.013792163,-0.061871104,0.049953707,-0.648772,-0.54641
0.06202974,-0.013362844,-0.059945196,0.048398763,-0.6285772,-0.52940154
0.0600989,-0.01294689,-0.058079243,0.046892222,-0.60901105,-0.51292247
0.05822817,-0.012543884,-0.056271378,0.04543258,-0.59005404,-0.49695644
0.056415666,-0.012153424,-0.054519787,0.044018377,-0.5716871,-0.48148742
0.05465959,-0.011775118,-0.052822724,0.042648192,-0.5538919,-0.46649992
0.052958176,-0.011408589,-0.05117849,0.041320663,-0.53665066,-0.45197895
