ax,ay,az,gx,gy,gz
-1.6836517,0.50000453,-5.58096,22.472023,25.912054,61.59056
-1.6385533,0.22079274,-6.0588756,19.035255,21.185,58.534233
-1.4754988,-0.24482238,-6.398886,21.128641,16.52818,55.555214
-1.3027873,-0.6113429,-6.723039,28.298166,11.002827,55.50718
-1.2752062,-0.7693188,-7.1186337,35.05849,4.327936,57.139866
-1.3271359,-0.7520551,-7.5163665,40.6806,-4.590139,59.905724
-1.371362,-0.5921927,-7.806764,45.632862,-15.495053,62.16642
-1.3264538,-0.26455808,-7.8877225,50.498405,-26.625256,63.236156
-1.1536052,0.2746962,-7.763299,54.24246,-36.964527,62.48784
-0.898154,0.9686694,-7.4311705,56.364475,-45.37939,60.38749
-0.6893896,1.6665859,-7.008058,57.42068,-52.39608,57.197147
-0.52488965,2.4328678,-6.4521065,57.227295,-58.1779,52.732162
-0.36656982,3.2686133,-5.7342076,55.19858,-62.67364,46.91463
-0.1939342,4.1231985,-4.8698015,49.400497,-64.95168,39.89646
-0.046610437,4.8675323,-3.8956382,41.338684,-65.32201,32.856052
0.045483038,5.4218864,-2.97721,31.615446,-64.07568,25.639818
0.09949669,5.7164035,-2.1754327,21.00562,-61.650955,18.436922
0.18403195,5.758298,-1.5224208,10.297019,-58.244198,11.38688
0.35676673,5.541111,-1.0374094,0.208825,-53.964336,4.7520914
0.62488866,5.031497,-0.70964223,-8.522835,-48.931335,-0.504655
0.874923,4.381332,-0.5110573,-15.29994,-42.795975,-4.0130773
1.0351251,3.683646,-0.4480545,-19.792341,-36.17876,-6.151851
1.0992215,3.00506,-0.49452114,-22.364065,-29.718975,-7.2471294
1.0750357,2.368563,-0.63111365,-22.85073,-24.010511,-6.837367
0.9592298,1.8028773,-0.8594472,-22.07456,-19.468918,-5.3768144
0.82307625,1.3351971,-1.1216518,-20.481201,-15.993074,-3.024549
0.67741007,0.96222854,-1.4169554,-18.237083,-13.538822,-0.20884264
0.51682925,0.6623898,-1.740547,-15.213581,-12.285086,2.8055851
0.3480692,0.43564162,-2.0746562,-11.241385,-12.662838,5.8940597
0.18452494,0.29929492,-2.4093924,-6.9983683,-14.361733,9.066168
0.03777015,0.23972805,-2.7091372,-2.6312332,-17.4221,12.103159
-0.07025004,0.2706628,-2.9376824,2.0255208,-21.364746,14.603252
-0.12698933,0.39962292,-3.0870922,6.7613854,-25.585577,16.290514
-0.1347918,0.61257845,-3.1636117,10.905794,-29.844448,17.166174
-0.09685793,0.9426161,-3.1290245,14.229743,-33.86694,17.573277
-0.046218716,1.3752557,-3.012449,16.34549,-37.55224,17.052032
0.0029586172,1.8558925,-2.8387895,16.88614,-40.73275,15.518297
0.029493934,2.3090634,-2.647941,15.9448595,-43.58084,13.405525
0.036533806,2.7197258,-2.4546025,13.467833,-46.118187,10.645667
0.050957758,3.0622473,-2.2516406,10.138747,-48.30847,7.6094794
0.081516854,3.3474302,-2.0465846,5.9752145,-50.112835,4.277782
0.12716216,3.5594842,-1.8511382,1.432426,-51.43074,0.42208284
0.18611473,3.6701295,-1.674365,-2.920265,-52.249767,-3.994497
0.26021385,3.688007,-1.5153883,-6.937593,-52.626358,-8.733873
0.36531416,3.5929093,-1.3551755,-10.933173,-52.696346,-13.125865
0.47219396,3.4236457,-1.1930263,-15.01152,-52.37316,-16.820478
0.5746651,3.1872237,-1.0415348,-18.761524,-51.781,-20.063547
0.6924897,2.878158,-0.89256096,-21.69771,-50.72514,-22.965538
0.8299075,2.512627,-0.7335597,-23.588253,-48.691883,-24.973099
0.95315355,2.1255176,-0.5746642,-24.982025,-46.037365,-26.092283
1.0462357,1.7492723,-0.43376288,-25.82335,-43.08689,-26.453562
1.0111221,1.6905636,-0.41920504,-24.956675,-41.64082,-25.565733
0.97734344,1.6340866,-0.40520057,-24.122942,-40.249718,-24.711655
0.94483435,1.5797325,-0.39172253,-23.320549,-38.910904,-23.889677
0.9135342,1.5273997,-0.37874568,-22.547993,-37.621876,-23.098269
0.8833863,1.4769934,-0.36624655,-21.803879,-36.380302,-22.335993
0.85433763,1.428425,-0.35420313,-21.086895,-35.184,-21.601513
0.8263386,1.3816113,-0.3425949,-20.395817,-34.03092,-20.893568
0.7993425,1.3364748,-0.33140248,-19.729496,-32.919144,-20.210987
0.77330565,1.292942,-0.32060778,-19.08685,-31.846874,-19.552658
0.74818695,1.2509444,-0.3101937,-18.466866,-30.812414,-18.917543
0.7239475,1.2104169,-0.3001442,-17.868584,-29.814169,-18.30466
0.70055085,1.1712984,-0.29044408,-17.291103,-28.850628,-17.713087
0.67796236,1.1335312,-0.28107902,-16.733572,-27.920372,-17.141949
0.6561494,1.0970606,-0.2720355,-16.19518,-27.022055,-16.590418
0.63508105,1.0618349,-0.2633007,-15.675169,-26.1544,-16.057714
0.614728,1.0278053,-0.25486243,-15.172811,-25.316204,-15.5430975
0.5950623,0.994925,-0.24670918,-14.687421,-24.506319,-15.045862
0.57605773,0.9631499,-0.23883,-14.218347,-23.723658,-14.56534
0.5576891,0.9324381,-0.23121445,-13.764968,-22.967184,-14.100897
0.53993237,0.9027495,-0.22385263,-13.3266945,-22.235914,-13.651927
0.52276486,0.87404597,-0.21673511,-12.902964,-21.52891,-13.217855
0.5061649,0.84629136,-0.20985286,-12.49324,-20.845276,-12.798133
0.49011168,0.81945086,-0.20319729,-12.0970125,-20.184158,-12.392236
0.4745854,0.7934915,-0.19676019,-11.713791,-19.544744,-11.999661
0.45956722,0.76838154,-0.19053374,-11.343109,-18.926254,-11.619934
0.44503897,0.7440908,-0.18451042,-10.984521,-18.32794,-11.252594
0.43098336,0.72059023,-0.17868306,-10.637598,-17.749092,-10.897204
0.4173838,0.6978522,-0.17304476,-10.301931,-17.189024,-10.553347
0.40422437,0.6758501,-0.16758893,-9.977129,-16.647081,-10.220617
0.39148986,0.6545584,-0.16230929,-9.662813,-16.122639,-9.898631
0.37916562,0.6339527,-0.15719974,-9.358624,-15.615093,-9.587018
0.36723763,0.61400944,-0.15225446,-9.064216,-15.123864,-9.285424
0.35569236,0.5947061,-0.14746787,-8.779254,-14.648398,-8.993508
0.34451687,0.5760211,-0.14283457,-8.503419,-14.188161,-8.710941
0.3336987,0.55793345,-0.13834943,-8.236403,-13.742639,-8.437409
0.32322586,0.5404232,-0.13400745,-7.977911,-13.311338,-8.172609
0.31308684,0.52347106,-0.12980388,-7.727658,-12.893785,-7.9162483
0.3032705,0.5070585,-0.12573408,-7.485369,-12.489521,-7.668047
0.29376617,0.49116755,-0.12179364,-7.250782,-12.098106,-7.4277344
0.2845635,0.47578102,-0.11797829,-7.023641,-11.719116,-7.1950502
0.27565268,0.46088237,-0.114283904,-6.803702,-11.352142,-6.9697437
0.267024,0.44645554,-0.110706516,-6.5907283,-10.996791,-6.7515726
0.25866836,0.43248516,-0.107242316,-6.3844924,-10.652681,-6.5403037
0.2505768,0.4189563,-0.103887595,-6.184775,-10.3194475,-6.3357124
0.24274072,0.40585464,-0.10063881,-5.991364,-9.996737,-6.137581
0.23515186,0.39316633,-0.097492516,-5.8040547,-9.684207,-5.9457006
0.22780223,0.38087797,-0.09444541,-5.62265,-9.381528,-5.7598686
0.2206841,0.36897668,-0.09149427,-5.446959,-9.088384,-5.5798903
0.21379003,0.35745,-0.08863603,-5.2767987,-8.804467,-5.4055767
0.20711279,0.3462859,-0.08586769,-5.11199,-8.52948,-5.2367463
0.20064546,0.33547273,-0.08318637,-4.9523625,-8.263137,-5.073223
0.1943813,0.32499924,-0.080589294,-4.7977495,-8.005161,-4.914837
0.18831381,0.31485462,-0.078073755,-4.6479907,-7.7552857,-4.7614236
0.18243673,0.30502835,-0.075637154,-4.502932,-7.5132513,-4.6128244
0.176744,0.29551026,-0.073276974,-4.362423,-7.2788086,-4.4688864
0.17122974,0.2862906,-0.07099079,-4.226319,-7.051716,-4.3294606
0.16588828,0.27735984,-0.06877626,-4.09448,-6.8317394,-4.1944046
0.16071412,0.26870883,-0.066631086,-3.966771,-6.618654,-4.0635786
0.155702,0.2603287,-0.06455309,-3.8430607,-6.4122405,-3.936849
0.15084675,0.2522109,-0.06254014,-3.7232227,-6.212288,-3.8140867
0.14614342,0.24434707,-0.060590163,-3.6071343,-6.0185914,-3.6951652
0.14158721,0.23672923,-0.058701187,-3.4946775,-5.8309546,-3.5799637
0.13717347,0.22934963,-0.05687128,-3.385737,-5.6491847,-3.4683647
0.13289772,0.2222007,-0.055098582,-3.2802024,-5.4730973,-3.3602545
0.12875561,0.21527523,-0.053381283,-3.1779659,-5.3025136,-3.255523
0.12474292,0.20856613,-0.051717646,-3.078924,-5.1372595,-3.154064
0.12085557,0.20206662,-0.050105978,-2.982976,-4.977168,-3.0557745
0.11708964,0.1957701,-0.048544645,-2.8900247,-4.8220763,-2.9605546
0.113441296,0.18967018,-0.047032062,-2.7999756,-4.6718273,-2.868308
0.10990685,0.1837607,-0.045566704,-2.712738,-4.5262694,-2.7789414
0.10648273,0.17803569,-0.044147085,-2.6282232,-4.3852544,-2.692364
0.10316547,0.17248933,-0.042771768,-2.5463462,-4.2486405,-2.6084888
0.099951714,0.16711605,-0.041439366,-2.4670238,-4.116289,-2.5272305
0.09683823,0.16191038,-0.040148534,-2.390176,-3.9880672,-2.4485075
0.09382186,0.15686713,-0.03889797,-2.3157258,-3.8638449,-2.3722403
0.09089958,0.15198116,-0.037686408,-2.2435975,-3.7434971,-2.2983518
0.088068426,0.14724757,-0.03651263,-2.1737187,-3.6269023,-2.2267675
0.08532556,0.14266159,-0.035375454,-2.1060188,-3.5139434,-2.1574154
0.082668215,0.13821858,-0.034273732,-2.0404296,-3.4045064,-2.0902257
0.08009371,0.1339141,-0.03320636,-1.9768854,-3.2984815,-2.0251305
0.077599466,0.1297438,-0.03217226,-1.915322,-3.1957614,-1.9620647
0.07518296,0.12570348,-0.031170394,-1.8556775,-3.0962431,-1.9009646
0.07284178,0.1217891,-0.030199753,-1.797892,-2.9998264,-1.8417689
0.07057355,0.1179967,-0.029259361,-1.7419074,-2.9064147,-1.784418
0.06837601,0.11432248,-0.028348275,-1.6876674,-2.815914,-1.7288542
0.06624695,0.11076276,-0.027465578,-1.6351174,-2.7282333,-1.6750219
0.064184226,0.107313946,-0.026610384,-1.5842049,-2.6432846,-1.6228669
0.062185764,0.10397259,-0.025781834,-1.5348786,-2.5609825,-1.5723368
0.060249567,0.10073533,-0.0249791,-1.4870892,-2.4812443,-1.523381
0.058373686,0.09759892,-0.02420137,-1.4407884,-2.4039905,-1.4759502
0.056556243,0.09456021,-0.023447871,-1.3959299,-2.329143,-1.4299971
0.05479541,0.09161616,-0.022717841,-1.3524688,-2.256627,-1.3854754
0.05308943,0.08876381,-0.02201055,-1.3103615,-2.1863701,-1.3423404
0.05143658,0.0860003,-0.02132529,-1.2695657,-2.1183012,-1.3005489
0.049835213,0.08332287,-0.020661373,-1.2300404,-2.0523524,-1.2600591
0.04828372,0.080728814,-0.020018132,-1.1917462,-1.9884576,-1.2208303
0.04678054,0.078215554,-0.019394925,-1.1546446,-1.9265525,-1.1828233
0.04532418,0.07578056,-0.018791126,-1.1186984,-1.8665755,-1.1459998
0.04391317,0.073421404,-0.01820613,-1.0838716,-1.8084662,-1.1103232
0.0425461,0.07113571,-0.017639352,-1.0501294,-1.7521665,-1.0757574
0.0412216,0.068921186,-0.017090222,-1.0174379,-1.6976199,-1.0422682
0.03993834,0.06677562,-0.01655819,-0.9857644,-1.6447718,-1.0098217
0.038695045,0.06469686,-0.016042728,-0.9550771,-1.5935694,-0.9783854
0.03749046,0.06268284,-0.015543315,-0.92534536,-1.5439613,-0.9479281
0.036323383,0.060731523,-0.015059452,-0.8965394,-1.4958978,-0.91841906
0.035192642,0.058840964,-0.014590654,-0.8686303,-1.4493308,-0.88982886
0.03409711,0.05700927,-0.014136452,-0.84159017,-1.4042137,-0.86212885
0.033035688,0.055234604,-0.013696393,-0.81539196,-1.3605013,-0.83529127
0.03200731,0.05351519,-0.013270034,-0.7900094,-1.3181499,-0.8092893
0.031010952,0.05184931,-0.01285695,-0.7654171,-1.277117,-0.78409684
0.030045612,0.050235294,-0.012456726,-0.74159044,-1.2373618,-0.75968874
0.029110327,0.04867153,-0.012068963,-0.7185056,-1.1988441,-0.7360405
0.028204162,0.047156446,-0.011693272,-0.6961395,-1.1615257,-0.7131285
0.027326206,0.045688536,-0.011329277,-0.67446965,-1.1253691,-0.69092983
0.026475584,0.04426632,-0.010976614,-0.65347445,-1.090338,-0.66942227
0.025651442,0.042888384,-0.01063493,-0.6331329,-1.0563976,-0.64858425
0.024852958,0.04155334,-0.010303883,-0.61342454,-1.0235138,-0.62839496
0.02407933,0.040259864,-0.009983142,-0.5943298,-0.9916537,-0.60883415
0.023329787,0.03900665,-0.009672387,-0.57582945,-0.9607854,-0.5898823
0.022603577,0.03779245,-0.009371304,-0.557905,-0.9308781,-0.57152045
0.021899976,0.036616053,-0.009079595,-0.5405386,-0.9019018,-0.55373025
0.021218276,0.035476275,-0.008796967,-0.5237128,-0.8738275,-0.5364938
0.020557798,0.034371976,-0.008523137,-0.50741076,-0.84662724,-0.5197939
0.019917881,0.033302054,-0.008257831,-0.49161625,-0.82027364,-0.50361395
0.019297885,0.03226544,-0.008000785,-0.47631338,-0.79474044,-0.48793763
0.018697187,0.031261094,-0.007751739,-0.46148688,-0.7700021,-0.47274932
0.01811519,0.030288013,-0.0075104465,-0.44712195,-0.74603385,-0.4580338
0.01755131,0.029345224,-0.0072766654,-0.43320414,-0.7228117,-0.44377634
0.017004982,0.028431782,-0.0070501612,-0.4197196,-0.7003124,-0.42996272
