ax,ay,az,gx,gy,gz
-1.2091019,-0.90455365,-2.5972965,-15.03741,19.975636,20.363821
-1.3715286,-1.6661606,-3.329485,-17.294714,7.0554543,23.71871
-1.3846076,-2.3030686,-3.841546,-14.151372,-2.1280982,29.269178
-1.2062389,-2.760842,-4.2154784,-7.444531,-6.5977716,34.55037
-1.0532781,-3.0639381,-4.58652,0.5394387,-9.42662,37.897427
-0.9415264,-3.256082,-4.974177,9.066068,-13.583624,39.827633
-0.85424495,-3.3212967,-5.3017106,18.007921,-19.955593,42.288303
-0.75468695,-3.1444478,-5.5338516,25.808,-26.951075,44.874214
-0.63645077,-2.77969,-5.6460686,32.231865,-33.884556,46.91066
-0.50285256,-2.247448,-5.6217146,37.75887,-40.561302,47.634483
-0.34663022,-1.5692016,-5.452167,42.406414,-46.444798,46.886185
-0.18607256,-0.78303653,-5.151909,44.800056,-51.30377,44.46113
-0.03150591,0.12060219,-4.6602554,45.05939,-54.853313,40.984943
0.12355781,1.0261626,-4.0607033,43.31249,-56.83409,36.80841
0.27515918,1.9397429,-3.372791,39.137276,-57.118137,32.040146
0.40466446,2.8055632,-2.6429398,32.672703,-55.734665,26.670979
0.4619728,3.525907,-1.9722849,23.745863,-53.3086,20.314472
0.4365563,3.9904156,-1.4215614,14.329873,-50.88929,13.779977
0.42426863,4.091629,-1.0174505,5.280141,-48.405037,7.286265
0.48282924,3.9671905,-0.70898294,-3.1521864,-45.592346,1.036959
0.6265792,3.630585,-0.47754773,-10.358884,-42.119175,-4.538516
0.8182992,3.1496487,-0.3104711,-15.794989,-37.396355,-8.791187
0.99858534,2.5846992,-0.22926416,-20.079165,-31.865778,-11.796014
1.1087577,2.0039294,-0.2498195,-23.149282,-26.403706,-13.318355
1.1494238,1.4215002,-0.35430768,-25.187357,-21.815191,-13.664803
1.1469584,0.84400004,-0.5152653,-25.884024,-18.028238,-13.022909
1.1080117,0.30439487,-0.7230536,-24.410734,-14.6413765,-11.359205
1.0141993,-0.14989763,-1.004971,-21.692972,-11.872764,-8.912297
0.8860325,-0.5329123,-1.3361337,-18.019966,-10.09458,-5.6530366
0.7294957,-0.84062696,-1.6921206,-13.472801,-9.658248,-1.8261676
0.5678742,-1.0505747,-2.0413675,-8.369912,-10.438702,2.068912
0.42111373,-1.1377072,-2.3558793,-3.0003393,-12.738339,5.1586013
0.32553983,-1.1065428,-2.594247,2.3812535,-15.721546,7.2067146
0.28650832,-1.0410709,-2.773527,7.6482553,-18.92127,9.048798
0.28411964,-0.93264043,-2.90908,12.207999,-22.393745,11.271536
0.30035812,-0.77041507,-2.9906754,16.037952,-26.123417,13.778847
0.3290139,-0.5195615,-3.0011644,18.931025,-29.870083,15.787826
0.38163248,-0.16163364,-2.9101214,20.9014,-33.21767,16.89485
0.437372,0.21125102,-2.7714672,21.967236,-35.98683,17.398273
0.4763375,0.59353673,-2.6108167,22.195068,-38.380177,17.375849
0.5043122,0.9944225,-2.4213593,21.694233,-40.460003,16.729076
0.52758133,1.4086461,-2.2049005,19.851995,-42.06943,15.286054
0.5375886,1.8103435,-1.9784584,16.793344,-43.375423,13.325207
0.54984194,2.1726646,-1.7493608,12.8449135,-44.306126,10.7154
0.57630813,2.4734743,-1.5253422,8.306486,-44.786964,7.4563785
0.6261288,2.6992974,-1.317526,3.2986956,-44.836205,3.6828387
0.69947076,2.8201966,-1.1392673,-2.11136,-44.35463,-0.41326818
0.7893836,2.8097975,-1.0104355,-7.406351,-43.486496,-4.5272164
0.87600434,2.7033958,-0.9234459,-12.291723,-42.29519,-8.553516
0.94266045,2.519247,-0.8710483,-16.58279,-40.832237,-12.333956
0.9812222,2.2761323,-0.84861803,-20.278532,-39.31305,-15.658355
0.9985662,1.9925644,-0.8419856,-23.162243,-37.98135,-18.295628
1.0224334,1.6860349,-0.8272869,-25.44291,-36.83484,-20.31066
1.0546505,1.376225,-0.79770684,-26.935375,-35.741566,-21.640913
1.0904069,1.081282,-0.75034404,-27.715221,-34.565613,-22.4809
1.128972,0.8058762,-0.6897421,-27.811743,-33.22953,-22.961636
1.1637635,0.5527774,-0.6241155,-27.280556,-31.580877,-22.762539
1.1721939,0.32278475,-0.5697743,-26.488516,-29.69975,-21.92052
1.1562449,0.121057525,-0.52754,-25.69293,-27.726488,-20.06383
1.1160746,-0.036271006,-0.48433086,-24.897799,-25.79155,-17.714457
1.079822,-0.03509284,-0.4685987,-24.08906,-24.953781,-17.13905
1.0448383,-0.03395592,-0.45341724,-23.308634,-24.14534,-16.583788
1.0110711,-0.032858524,-0.43876362,-22.555342,-23.365007,-16.047829
0.9784702,-0.031799037,-0.4246162,-21.82807,-22.611628,-15.530385
0.94698864,-0.030775927,-0.41095448,-21.125767,-21.884115,-15.030706
0.9165817,-0.02978774,-0.39775908,-20.447437,-21.181437,-14.548083
0.8872071,-0.028833102,-0.3850117,-19.792137,-20.502613,-14.081846
0.8588246,-0.02791071,-0.37269488,-19.158972,-19.846718,-13.631357
0.8313962,-0.02701932,-0.36079207,-18.547089,-19.212872,-13.196011
0.80488557,-0.02615776,-0.34928754,-17.95568,-18.600233,-12.775231
0.7792582,-0.025324902,-0.3381663,-17.383976,-18.008005,-12.36847
0.7544812,-0.02451968,-0.3274141,-16.831242,-17.43543,-11.975207
0.7305233,-0.023741078,-0.31701732,-16.296778,-16.88178,-11.594944
0.7073544,-0.02298812,-0.306963,-15.77992,-16.346369,-11.227206
0.6849461,-0.02225988,-0.2972387,-15.280027,-15.828532,-10.871539
0.66327107,-0.021555468,-0.28783262,-14.796493,-15.327641,-10.527511
0.64230317,-0.020874036,-0.2787334,-14.3287325,-14.843089,-10.194706
0.6220174,-0.020214776,-0.26993018,-13.87619,-14.374302,-9.872727
0.6023898,-0.019576903,-0.26141262,-13.438331,-13.920725,-9.561196
0.58339745,-0.018959677,-0.25317073,-13.014643,-13.481827,-9.2597475
0.56501836,-0.018362379,-0.24519493,-12.604635,-13.057101,-8.968032
0.5472314,-0.017784324,-0.23747611,-12.207836,-12.646059,-8.685716
0.53001624,-0.017224856,-0.23000544,-11.823795,-12.248232,-8.412476
0.5133535,-0.016683338,-0.2227745,-11.452077,-11.863171,-8.148003
0.4972245,-0.016159164,-0.21577516,-11.092265,-11.490442,-7.892001
0.48161116,-0.015651751,-0.20899962,-10.7439575,-11.129631,-7.6441846
0.46649623,-0.0151605345,-0.20244035,-10.406768,-10.780337,-7.4042788
0.45186305,-0.014684975,-0.19609015,-10.080325,-10.442178,-7.1720195
0.43769562,-0.014224552,-0.18994205,-9.764273,-10.114779,-6.947152
0.42397848,-0.013778761,-0.18398938,-9.458265,-9.797788,-6.729432
0.41069674,-0.013347123,-0.17822565,-9.161972,-9.490858,-6.5186234
0.39783615,-0.012929169,-0.17264467,-8.875073,-9.193661,-6.3144984
0.38538283,-0.012524452,-0.16724044,-8.59726,-8.905875,-6.116838
0.3733235,-0.012132539,-0.16200718,-8.328237,-8.627194,-5.9254313
0.36164534,-0.011753014,-0.15693933,-8.067716,-8.357321,-5.7400737
0.35033593,-0.011385472,-0.15203151,-7.815421,-8.09597,-5.5605693
0.33938327,-0.011029526,-0.14727852,-7.571086,-7.842864,-5.3867283
0.3287759,-0.010684799,-0.14267536,-7.3344526,-7.5977364,-5.218367
0.31850266,-0.010350932,-0.13821718,-7.1052732,-7.3603306,-5.055309
0.30855277,-0.010027573,-0.13389933,-6.8833075,-7.130397,-4.897383
0.29891586,-0.0097143855,-0.1297173,-6.6683235,-6.9076953,-4.744425
0.28958187,-0.009411043,-0.12566672,-6.460098,-6.6919947,-4.596275
0.28054112,-0.00911723,-0.1217434,-6.258413,-6.4830704,-4.452779
0.27178422,-0.008832642,-0.117943265,-6.0630608,-6.280706,-4.3137884
0.26330212,-0.008556984,-0.11426238,-5.8738394,-6.0846915,-4.1791596
0.25508606,-0.008289972,-0.11069695,-5.6905527,-5.8948255,-4.0487533
0.24712758,-0.008031333,-0.1072433,-5.513012,-5.7109118,-3.9224358
0.2394185,-0.0077807973,-0.10389787,-5.341035,-5.5327616,-3.8000765
0.23195091,-0.00753811,-0.10065724,-5.174445,-5.3601913,-3.68155
0.22471714,-0.0073030214,-0.09751808,-5.0130715,-5.193025,-3.5667348
0.2177098,-0.0070752916,-0.09447718,-4.8567495,-5.031091,-3.4555135
0.2109217,-0.006854688,-0.091531426,-4.7053185,-4.874224,-3.3477721
0.20434596,-0.0066409837,-0.088677816,-4.558624,-4.7222643,-3.243401
0.19797583,-0.006433963,-0.08591344,-4.416517,-4.575056,-3.142294
0.19180486,-0.0062334137,-0.08323549,-4.2788525,-4.43245,-3.0443473
0.18582673,-0.006039133,-0.080641225,-4.14549,-4.2943006,-2.949462
0.18003541,-0.005850922,-0.078128025,-4.0162954,-4.1604676,-2.8575413
0.17442499,-0.005668591,-0.07569334,-3.8911362,-4.0308156,-2.7684922
0.1689898,-0.005491954,-0.07333469,-3.769886,-3.9052129,-2.6822243
0.16372432,-0.0053208326,-0.07104968,-3.6524217,-3.7835321,-2.5986502
0.15862323,-0.0051550535,-0.06883602,-3.5386248,-3.6656501,-2.5176852
0.15368137,-0.004994449,-0.06669145,-3.4283798,-3.5514479,-2.4392471
0.14889371,-0.004838857,-0.064613804,-3.3215752,-3.4408092,-2.3632572
0.14425547,-0.0046881195,-0.06260099,-3.2181034,-3.3336232,-2.2896383
0.13976192,-0.004542085,-0.06065098,-3.1178598,-3.2297812,-2.2183163
0.13540855,-0.004400606,-0.05876179,-3.0207431,-3.1291783,-2.149219
0.13119096,-0.0042635393,-0.05693153,-2.9266555,-3.0317132,-2.082277
0.1271049,-0.0041307476,-0.055158343,-2.8355021,-2.9372878,-2.0174227
0.12314625,-0.0040020966,-0.05344045,-2.7471912,-2.8458068,-1.9545906
0.11931103,-0.0038774568,-0.051776122,-2.6616337,-2.757178,-1.8937175
0.11559537,-0.0037567026,-0.05016368,-2.5787437,-2.6713123,-1.8347423
0.11199555,-0.003639713,-0.0486015,-2.4984374,-2.5881233,-1.7776054
0.108507924,-0.0035263696,-0.047088016,-2.4206343,-2.5075274,-1.7222495
0.105129,-0.003416559,-0.045621704,-2.345256,-2.4294434,-1.6686189
0.10185539,-0.0033101707,-0.044201087,-2.272227,-2.353793,-1.6166598
0.09868378,-0.0032070975,-0.04282474,-2.2014737,-2.2804997,-1.5663197
0.09561101,-0.0031072362,-0.04149128,-2.1329253,-2.2094905,-1.5175483
0.09263398,-0.0030104865,-0.04019937,-2.0665126,-2.1406937,-1.4702965
0.0897497,-0.0029167512,-0.038947713,-2.002169,-2.0740404,-1.4245169
0.08695528,-0.002825936,-0.037735045,-1.93983,-2.0094638,-1.3801636
0.08424791,-0.00273795,-0.03656016,-1.879433,-1.9468988,-1.3371919
0.08162489,-0.002652705,-0.035421874,-1.8209176,-1.8862828,-1.295559
0.07908356,-0.0025701153,-0.034319043,-1.7642249,-1.827555,-1.2552229
0.0766214,-0.0024900981,-0.033250563,-1.709298,-1.7706565,-1.2161431
0.07423592,-0.0024125732,-0.032215364,-1.656082,-1.7155302,-1.1782806
0.071924746,-0.002337463,-0.031212408,-1.6045234,-1.6621207,-1.1415974
0.06968555,-0.0022646917,-0.030240688,-1.5545706,-1.6103748,-1.1060566
0.06751609,-0.0021941871,-0.029299231,-1.5061735,-1.5602404,-1.0716226
0.06541419,-0.0021258781,-0.028387092,-1.4592836,-1.5116673,-1.038261
0.06337775,-0.0020596962,-0.02750336,-1.4138539,-1.4646068,-1.0059385
0.061404724,-0.0019955754,-0.026647147,-1.369839,-1.4190118,-0.9746224
0.059493136,-0.0019334514,-0.025817597,-1.3271946,-1.3748367,-0.9442815
0.057641074,-0.0018732618,-0.025013877,-1.2858781,-1.3320371,-0.9148854
0.055846684,-0.0018149463,-0.024235185,-1.2458482,-1.2905701,-0.88640463
0.054108165,-0.0017584466,-0.023480738,-1.2070646,-1.2503945,-0.85881066
0.05242378,-0.0017037062,-0.022749783,-1.1694887,-1.2114697,-0.8320759
0.050791837,-0.0016506702,-0.022041587,-1.1330827,-1.1737568,-0.8061735
0.04921071,-0.0015992855,-0.02135544,-1.0978104,-1.1372182,-0.7810777
0.047678806,-0.0015495006,-0.020690659,-1.0636362,-1.1018174,-0.75676316
0.0461946,-0.0015012658,-0.020046573,-1.0305259,-1.0675186,-0.7332057
0.044756602,-0.0014545327,-0.019422542,-0.9984466,-1.0342877,-0.7103816
0.043363377,-0.0014092546,-0.018817937,-0.967366,-1.0020914,-0.6882682
0.042013526,-0.0013653862,-0.018232157,-0.937253,-0.97089744,-0.66684324
0.0407057,-0.0013228835,-0.017664615,-0.90807754,-0.94067466,-0.64608526
0.03943859,-0.001281704,-0.01711474,-0.8798104,-0.9113928,-0.6259735
0.038210925,-0.0012418065,-0.016581984,-0.85242325,-0.88302255,-0.60648793
0.037021484,-0.0012031512,-0.016065815,-0.8258887,-0.8555355,-0.587609
0.03586907,-0.0011656992,-0.015565714,-0.80018026,-0.82890415,-0.56931776
0.03475253,-0.0011294131,-0.015081182,-0.7752721,-0.8031019,-0.5515959
0.03367075,-0.0010942566,-0.014611733,-0.75113934,-0.7781029,-0.5344258
0.032622647,-0.0010601946,-0.014156899,-0.72775793,-0.7538821,-0.5177902
0.031607173,-0.0010271929,-0.013716225,-0.7051043,-0.73041534,-0.50167245
0.03062331,-0.0009952186,-0.013289268,-0.68315595,-0.7076791,-0.48605648
0.029670075,-0.0009642397,-0.012875603,-0.6618908,-0.6856506,-0.47092664
0.028746514,-0.00093422516,-0.012474815,-0.6412877,-0.6643079,-0.45626777
0.027851703,-0.0009051449,-0.012086503,-0.6213259,-0.64362955,-0.4420652
0.026984746,-0.00087696995,-0.01171028,-0.6019855,-0.6235949,-0.4283048
0.026144776,-0.000849672,-0.011345767,-0.5832472,-0.6041839,-0.41497272
0.025330955,-0.00082322385,-0.010992602,-0.56509215,-0.5853772,-0.40205565
0.024542468,-0.00079759903,-0.010650431,-0.5475023,-0.5671559,-0.3895407
