ax,ay,az,gx,gy,gz
-1.6227419,-0.33909398,-5.333685,11.097373,56.98506,50.770462
-1.7777166,-0.86840403,-6.2943926,13.603412,49.318203,53.189266
-1.8618314,-1.4522343,-7.054675,17.41276,40.323135,56.671616
-1.8956561,-1.8406867,-7.672894,26.35858,28.643822,60.44444
-2.009768,-2.0165498,-8.250237,36.644714,15.381217,63.607788
-2.1570923,-2.020927,-8.698345,46.933434,0.59366506,65.92948
-2.2098882,-1.7092211,-8.88427,56.26374,-16.20814,66.633484
-2.0379918,-0.8937487,-8.62172,63.198757,-31.582314,64.97891
-1.71477,0.15683705,-8.041862,67.39517,-44.212017,61.09778
-1.260247,1.3556664,-7.180662,68.177315,-53.29999,55.203262
-0.76241374,2.5910354,-6.1051364,65.19975,-58.63291,48.146965
-0.33850452,3.7249804,-4.9405923,57.06907,-59.707508,39.671303
-0.046658356,4.5948677,-3.7769296,46.514835,-57.768642,31.397385
0.13536803,5.1745915,-2.8144238,34.252724,-53.74791,23.31267
0.24484861,5.425446,-2.119179,21.406467,-49.050728,15.843835
0.35042492,5.3761787,-1.6540872,8.741572,-44.327965,8.891866
0.5076352,5.0237346,-1.352387,-3.235141,-39.250977,3.0992084
0.71227646,4.3000917,-1.2102281,-13.339605,-33.481968,-0.74701315
0.883545,3.449704,-1.1880274,-20.906353,-26.90032,-3.0043795
0.9666361,2.5690782,-1.2992637,-24.799768,-20.503344,-4.1851306
0.9224319,1.7298428,-1.5140816,-24.933205,-15.475783,-4.465297
0.7784543,0.9897324,-1.7729788,-22.334373,-12.328812,-2.8937626
0.5645718,0.42462784,-2.062999,-18.259567,-10.7650385,-0.17272806
0.34229007,0.033313453,-2.3493946,-13.395202,-10.74013,3.3251739
0.14402564,-0.20020509,-2.6221602,-8.272041,-12.148633,7.060277
-0.010347861,-0.3239242,-2.8675332,-3.0623314,-14.568118,10.607505
-0.12924886,-0.3530602,-3.0786414,2.4456272,-18.416536,13.76582
-0.19365662,-0.24362494,-3.214139,7.615333,-22.682053,16.361408
-0.21683978,-0.044169117,-3.2853177,11.986994,-26.99365,18.174854
-0.22081374,0.21860147,-3.2958975,15.448035,-31.256165,19.514929
-0.20235041,0.5813298,-3.2210236,17.765736,-35.272533,19.952894
-0.16083327,1.0140449,-3.081581,18.550314,-38.719814,18.820644
-0.11149446,1.4642756,-2.8866172,17.785948,-41.61588,17.107454
-0.06899717,1.8984998,-2.6767256,15.553105,-43.94917,14.858043
-0.03583204,2.3043857,-2.4686964,12.344112,-45.90214,11.953364
-0.010631073,2.6668901,-2.2604594,7.985143,-47.639305,8.282763
0.03629252,2.9462879,-2.04285,2.313562,-48.89163,3.9965527
0.12201182,3.0861962,-1.8229244,-3.8699484,-49.57128,-0.41139993
0.22766156,3.097349,-1.6245236,-10.030956,-49.681393,-4.825929
0.34409925,2.9723544,-1.4512194,-15.618606,-49.235092,-9.039403
0.46400878,2.7410235,-1.2988943,-20.387629,-48.29443,-12.787035
0.5780066,2.4353657,-1.1694037,-23.914661,-46.890457,-15.96711
0.6823392,2.0463982,-1.0660522,-26.43708,-45.405354,-18.552916
0.7889145,1.6275479,-0.9659881,-27.97381,-43.81034,-20.367723
0.8939553,1.2000973,-0.86098576,-28.624695,-41.905228,-21.073317
0.9859398,0.80137354,-0.7547558,-28.728642,-39.5073,-20.621002
1.0609106,0.46369097,-0.6487657,-28.868341,-36.371933,-18.969654
1.0245236,0.44778737,-0.62651443,-27.87822,-35.124454,-18.319036
0.9895931,0.43252033,-0.6051538,-26.927729,-33.926907,-17.69446
0.95604146,0.41785595,-0.58463633,-26.014757,-32.77663,-17.094538
0.9237968,0.4037628,-0.56491816,-25.13735,-31.671164,-16.517986
0.89279246,0.3902118,-0.5459585,-24.293695,-30.608223,-15.963613
0.86296684,0.37717593,-0.52771956,-23.482111,-29.58569,-15.430313
0.8342622,0.36463004,-0.51016617,-22.701033,-28.60159,-14.91706
0.80662507,0.3525507,-0.4932656,-21.949001,-27.654087,-14.422893
0.78000534,0.34091604,-0.47698712,-21.224653,-26.741463,-13.946917
0.75435615,0.3297056,-0.46130222,-20.526716,-25.862116,-13.4882965
0.72963375,0.3189002,-0.44618404,-19.853998,-25.01454,-13.046247
0.70579696,0.30848187,-0.43160743,-19.205378,-24.197327,-12.620031
0.6828072,0.29843375,-0.41754875,-18.579803,-23.409151,-12.2089615
0.660628,0.28873995,-0.4039858,-17.97629,-22.64877,-11.8123865
0.6392253,0.27938548,-0.39089766,-17.393902,-21.915005,-11.429694
0.6185667,0.27035624,-0.37826455,-16.831762,-21.20675,-11.0603075
0.5986217,0.2616389,-0.36606783,-16.289042,-20.522963,-10.70368
0.5793615,0.25322086,-0.35428986,-15.764953,-19.862652,-10.359297
0.5607587,0.24509017,-0.34291396,-15.258755,-19.22488,-10.0266695
0.54278755,0.23723553,-0.33192423,-14.769742,-18.60876,-9.705335
0.52542335,0.22964618,-0.32130572,-14.297247,-18.013453,-9.394854
0.5086428,0.22231193,-0.31104413,-13.840633,-17.438154,-9.094809
0.49242377,0.2152231,-0.3011259,-13.399299,-16.882105,-8.804803
0.4767451,0.20837045,-0.29153812,-12.972668,-16.344584,-8.524461
0.4615867,0.20174518,-0.2822685,-12.560194,-15.824897,-8.25342
0.4469294,0.19533892,-0.27330527,-12.161355,-15.32239,-7.991339
0.43275484,0.18914367,-0.2646373,-11.775653,-14.836434,-7.7378907
0.4190456,0.18315178,-0.25625384,-11.402612,-14.36643,-7.492762
0.40578493,0.17735596,-0.24814472,-11.041778,-13.911806,-7.2556543
0.3929569,0.17174923,-0.24030015,-10.692715,-13.472014,-7.0262823
0.3805462,0.1663249,-0.23271078,-10.355008,-13.046529,-6.804372
0.36853817,0.16107656,-0.22536765,-10.028258,-12.63485,-6.5896616
0.35691878,0.15599808,-0.21826218,-9.712085,-12.236494,-6.381901
0.34567454,0.15108359,-0.21138614,-9.406119,-11.851001,-6.180848
0.3347926,0.14632742,-0.20473163,-9.110011,-11.477926,-5.986273
0.3242605,0.14172417,-0.19829106,-8.823423,-11.116848,-5.797953
0.31406635,0.13726863,-0.19205716,-8.546031,-10.767355,-5.6156764
0.3041987,0.13295579,-0.18602294,-8.277524,-10.429055,-5.4392376
0.2946466,0.12878084,-0.18018164,-8.017602,-10.101573,-5.2684402
0.28539938,0.12473918,-0.1745268,-7.7659764,-9.784544,-5.103095
0.27644688,0.12082633,-0.1690522,-7.5223713,-9.47762,-4.94302
0.26777932,0.11703801,-0.16375183,-7.286519,-9.180465,-4.788039
0.25938728,0.1133701,-0.15861994,-7.0581636,-8.892754,-4.6379848
0.2512616,0.10981862,-0.15365094,-6.8370566,-8.614176,-4.4926934
0.24339357,0.10637975,-0.1488395,-6.62296,-8.34443,-4.352009
0.23577471,0.103049785,-0.14418043,-6.415644,-8.083228,-4.2157793
0.2283969,0.09982517,-0.13966878,-6.214887,-7.8302894,-4.08386
0.22125226,0.09670248,-0.1352997,-6.0204754,-7.585345,-3.9561102
0.21433324,0.093678385,-0.13106859,-5.8322024,-7.348135,-3.8323941
0.2076325,0.090749696,-0.12697096,-5.649869,-7.1184087,-3.7125812
0.20114297,0.08791333,-0.12300251,-5.4732833,-6.895924,-3.5965452
0.19485787,0.085166305,-0.11915906,-5.30226,-6.680447,-3.484164
0.18877059,0.08250575,-0.11543658,-5.1366196,-6.471753,-3.3753202
0.18287478,0.079928875,-0.11183119,-4.976189,-6.269623,-3.2699
0.1771643,0.077433005,-0.10833913,-4.8208017,-6.073847,-3.1677935
0.17163323,0.07501554,-0.104956776,-4.670296,-5.884221,-3.0688949
0.16627581,0.072673984,-0.10168062,-4.524516,-5.700549,-2.9731014
0.16108651,0.0704059,-0.09850728,-4.383311,-5.5226407,-2.880314
0.15606,0.06820896,-0.095433466,-4.2465343,-5.3503127,-2.790437
0.15119106,0.0660809,-0.09245602,-4.114046,-5.1833878,-2.7033777
0.14647469,0.06401952,-0.08957188,-3.9857094,-5.021693,-2.6190467
0.14190607,0.06202272,-0.08677808,-3.861393,-4.8650637,-2.537357
0.13748048,0.06008844,-0.08407176,-3.7409692,-4.713339,-2.4582255
0.13319343,0.058214705,-0.08145016,-3.6243145,-4.566363,-2.3815708
0.12904054,0.0563996,-0.07891058,-3.5113103,-4.423986,-2.3073146
0.12501752,0.05464127,-0.076450445,-3.4018407,-4.2860627,-2.2353811
0.121120326,0.052937925,-0.074067235,-3.2957942,-4.152452,-2.165697
0.11734496,0.05128783,-0.07175853,-3.193063,-4.023019,-2.0981913
0.11368759,0.049689304,-0.069521986,-3.0935426,-3.8976305,-2.0327957
0.110144496,0.048140727,-0.06735532,-2.9971318,-3.77616,-1.9694431
0.10671208,0.046640527,-0.065256335,-2.9037328,-3.6584842,-1.9080696
0.103386864,0.04518718,-0.06322291,-2.8132505,-3.5444834,-1.848613
0.10016548,0.043779213,-0.061252974,-2.7255938,-3.4340425,-1.7910129
0.09704466,0.0424152,-0.059344538,-2.6406736,-3.3270495,-1.735211
0.09402126,0.041093767,-0.057495676,-2.558404,-3.223396,-1.681151
0.091092214,0.03981357,-0.055704508,-2.4787018,-3.1229775,-1.628778
0.088254556,0.03857332,-0.053969234,-2.4014869,-3.0256922,-1.5780393
0.08550543,0.037371766,-0.052288096,-2.3266807,-2.9314423,-1.5288835
0.082842074,0.03620769,-0.0506594,-2.254208,-2.8401322,-1.481261
0.080261774,0.035079923,-0.049081504,-2.183996,-2.7516701,-1.4351239
0.07776195,0.03398733,-0.047552817,-2.1159735,-2.6659667,-1.3904257
0.07534008,0.032928802,-0.046071798,-2.050072,-2.582936,-1.3471212
0.07299371,0.031903278,-0.044636954,-1.9862252,-2.502494,-1.3051671
0.0707205,0.030909728,-0.043246843,-1.9243691,-2.4245598,-1.2645208
0.06851815,0.029947149,-0.04190007,-1.864441,-2.349055,-1.2251415
0.06638444,0.029014573,-0.04059527,-1.8063811,-2.275904,-1.1869898
0.06431724,0.028111063,-0.039331138,-1.7501307,-2.2050326,-1.150027
0.062314466,0.027235713,-0.038106404,-1.6956333,-2.13637,-1.1142163
0.0603741,0.02638764,-0.036919836,-1.6428341,-2.069847,-1.0795215
0.058494195,0.025565991,-0.03577024,-1.5916803,-2.005397,-1.0459079
0.056672867,0.024769945,-0.034656465,-1.5421202,-1.9429551,-1.0133415
0.054908283,0.0239987,-0.033577394,-1.4941043,-1.8824587,-0.9817898
0.053198677,0.023251485,-0.032531936,-1.4475843,-1.823847,-0.9512211
0.051542327,0.022527546,-0.03151905,-1.4025135,-1.7670612,-0.9216047
0.049937576,0.02182616,-0.030537715,-1.3588468,-1.7120445,-0.89291084
0.04838281,0.02114662,-0.02958695,-1.3165402,-1.6587414,-0.8651108
0.046876475,0.020488247,-0.028665798,-1.2755514,-1.6070987,-0.8381767
0.045417055,0.01985038,-0.027773337,-1.2358394,-1.5570644,-0.8120815
0.04400309,0.019232381,-0.026908675,-1.1973642,-1.5085886,-0.7867991
0.04263317,0.01863363,-0.026070941,-1.1600872,-1.4616224,-0.76230407
0.041305903,0.018053524,-0.025259295,-1.1239712,-1.416119,-0.73857194
0.040019978,0.017491486,-0.024472928,-1.08898,-1.3720326,-0.71557885
0.038774095,0.016946949,-0.02371105,-1.0550784,-1.3293192,-0.6933018
0.037567012,0.016419372,-0.022972897,-1.0222325,-1.2879359,-0.6717185
0.036397517,0.01590822,-0.022257729,-0.9904095,-1.2478412,-0.65080726
0.035264436,0.015412987,-0.02156483,-0.9595774,-1.2089951,-0.63054717
0.034166638,0.014933174,-0.020893509,-0.9297053,-1.1713586,-0.610918
0.033103023,0.014468301,-0.020243088,-0.9007634,-1.1348939,-0.5919
0.03207253,0.014017903,-0.019612921,-0.8727226,-1.0995647,-0.5734741
0.031074116,0.013581528,-0.019002376,-0.84555495,-1.0653355,-0.555622
0.030106792,0.013158741,-0.01841084,-0.8192332,-1.032172,-0.5383257
0.029169584,0.012749117,-0.01783772,-0.7937309,-1.000041,-0.52156794
0.028261557,0.012352246,-0.017282445,-0.76902264,-0.9689105,-0.50533193
0.0273818,0.011967732,-0.016744457,-0.74508363,-0.9387492,-0.48960137
0.026529433,0.011595189,-0.01622322,-0.72189,-0.90952694,-0.4743606
0.025703602,0.011234244,-0.01571821,-0.69941837,-0.88121444,-0.4595943
0.024903482,0.010884536,-0.015228923,-0.6776464,-0.85378337,-0.44528773
0.024128273,0.010545717,-0.014754868,-0.65655226,-0.8272063,-0.43142655
0.023377197,0.010217445,-0.0142955715,-0.6361148,-0.80145663,-0.4179969
0.022649502,0.009899393,-0.013850574,-0.6163136,-0.7765086,-0.40498537
0.021944463,0.009591241,-0.01341943,-0.5971288,-0.7523373,-0.39237887
0.021261374,0.009292684,-0.013001707,-0.5785413,-0.7289184,-0.38016483
0.020599548,0.00900342,-0.01259699,-0.5605324,-0.70622855,-0.36833104
0.019958325,0.008723162,-0.012204871,-0.54308414,-0.68424505,-0.35686564
0.019337064,0.0084516285,-0.011824958,-0.5261791,-0.6629459,-0.34575716
0.018735142,0.008188548,-0.011456873,-0.50980026,-0.64230984,-0.33499447
0.01815196,0.007933656,-0.011100246,-0.49393132,-0.6223162,-0.32456684
0.01758693,0.0076866997,-0.010754721,-0.47855636,-0.6029449,-0.31446382
0.01703949,0.0074474304,-0.010419952,-0.46366003,-0.58417666,-0.3046753
0.016509091,0.0072156102,-0.010095604,-0.4492274,-0.56599265,-0.2951915
0.015995204,0.006991006,-0.009781352,-0.43524405,-0.54837465,-0.2860029
0.015497314,0.006773393,-0.009476883,-0.421696,-0.53130513,-0.27710035
0.015014922,0.0065625547,-0.0091818925,-0.4085697,-0.514767,-0.26847494
