ax,ay,az,gx,gy,gz
-1.2791024,-2.0491095,-7.4609766,76.405235,-26.966608,78.292534
-1.4515347,-1.8432236,-8.055618,93.68468,-33.893196,78.03832
-1.6349201,-1.4702178,-8.582179,101.02355,-40.8105,78.95407
-1.746572,-1.0681905,-8.890838,106.38519,-50.617863,80.18544
-1.7419211,-0.46557465,-8.929543,109.347534,-62.030373,81.65746
-1.5764443,0.3629629,-8.717295,110.27121,-73.22901,81.8204
-1.2960645,1.2939781,-8.291925,107.32087,-82.67399,78.879875
-0.9611574,2.3551018,-7.5571675,103.38353,-89.4426,73.95291
-0.6535442,3.460568,-6.643581,98.17649,-93.52244,66.70228
-0.36224082,4.585059,-5.5748997,91.582466,-95.17463,57.731125
-0.041911032,5.689246,-4.399267,82.738335,-94.518005,48.042236
0.26392505,6.6745586,-3.2105892,69.310646,-90.60795,38.381947
0.44839397,7.3486333,-2.1875384,53.875355,-85.36507,29.198568
0.5515898,7.670649,-1.4165733,38.201435,-79.72167,19.945553
0.6939278,7.6587973,-0.8479327,23.212011,-73.63267,11.023308
0.93623984,7.370544,-0.45477343,8.866584,-66.46101,3.340371
1.1916319,6.8468513,-0.25666755,-4.825625,-57.85397,-1.9867741
1.3486522,6.076187,-0.2991524,-16.784857,-48.964413,-5.676241
1.387878,5.1754365,-0.51218927,-25.626204,-40.710667,-8.2109375
1.3195466,4.1713147,-0.84427446,-31.088173,-33.982525,-9.513216
1.1982375,3.1788683,-1.2200814,-33.03847,-29.142435,-9.56941
1.0595633,2.295528,-1.5799134,-31.507664,-26.052721,-8.208095
0.906814,1.5876596,-1.920978,-27.842829,-23.906805,-5.986652
0.7138131,1.0613341,-2.253921,-22.71662,-23.119373,-3.0293765
0.5113068,0.71129966,-2.5586452,-17.004326,-23.845879,0.1421312
0.3395217,0.5084097,-2.8091185,-10.814189,-26.125519,3.2593846
0.22080672,0.44436267,-3.0002084,-4.402047,-29.450794,5.915833
0.16920105,0.5242101,-3.117068,1.6168358,-33.099216,7.8067317
0.15304342,0.6642018,-3.1746848,7.242969,-36.938526,9.289391
0.16194668,0.8710361,-3.17014,12.1226635,-40.71692,10.587153
0.17565723,1.1520349,-3.1121948,15.889985,-44.25301,11.485892
0.18311727,1.4873523,-3.0177066,17.990152,-47.513714,11.497859
0.17827009,1.8968296,-2.861718,18.791962,-50.585472,10.451485
0.2027295,2.3411982,-2.6512709,18.085129,-53.178608,8.238285
0.26138112,2.7509017,-2.4059772,16.008024,-55.140575,5.4864135
0.32066903,3.102698,-2.1535976,12.516454,-56.388206,2.7205942
0.35506207,3.3885708,-1.9215728,7.467606,-57.104137,-0.6972834
0.3982986,3.5323176,-1.7142142,1.9422811,-57.60233,-4.4211564
0.47463357,3.5464222,-1.521974,-3.7072608,-57.803604,-8.288302
0.59165734,3.4220102,-1.3364769,-9.162349,-57.464252,-11.875244
0.7246169,3.190873,-1.1633605,-13.981707,-56.3494,-14.972158
0.8448704,2.8882692,-1.0162404,-17.644402,-54.665237,-17.651325
0.95454174,2.515343,-0.88924736,-20.489607,-52.751717,-19.81478
1.054726,2.1149056,-0.771118,-22.554739,-50.56609,-21.201902
1.1270125,1.7107531,-0.663556,-23.820417,-48.11903,-21.89328
1.1763221,1.323891,-0.56401294,-24.44764,-45.3758,-21.936325
1.2083764,0.97445524,-0.4702326,-24.52231,-42.044224,-21.166538
1.1669316,0.9410335,-0.45410463,-23.681248,-40.6022,-20.440573
1.1271459,0.90894955,-0.43862224,-22.87385,-39.21789,-19.743664
1.0889305,0.87813205,-0.42375094,-22.098322,-37.88823,-19.074265
1.0522038,0.84851503,-0.409459,-21.353006,-36.61036,-18.43094
1.01689,0.82003736,-0.39571682,-20.636362,-35.381653,-17.812365
0.98291856,0.79264224,-0.38249704,-19.946959,-34.19965,-17.217304
0.95022404,0.76627684,-0.36977416,-19.28347,-33.06208,-16.644611
0.9187454,0.7408919,-0.3575244,-18.644653,-31.96681,-16.093214
0.88842547,0.7164414,-0.3457256,-18.029354,-30.91186,-15.562116
0.85921115,0.6928824,-0.334357,-17.43649,-29.895376,-15.050382
0.8310523,0.6701747,-0.32339916,-16.865046,-28.915619,-14.5571375
0.80390227,0.64828044,-0.31283388,-16.314072,-27.97096,-14.081563
0.7777169,0.6271641,-0.30264398,-15.782678,-27.059868,-13.622887
0.7524549,0.6067924,-0.29281342,-15.27002,-26.1809,-13.180385
0.7280772,0.5871338,-0.28332698,-14.775309,-25.332705,-12.753372
0.70454705,0.5681587,-0.27417037,-14.297797,-24.513996,-12.341207
0.6818297,0.5498391,-0.26533005,-13.8367815,-23.72357,-11.943278
0.6598923,0.53214836,-0.25679326,-13.391593,-22.960281,-11.559011
0.63870376,0.51506156,-0.24854785,-12.9616,-22.223047,-11.187862
0.6182346,0.4985549,-0.24058239,-12.546207,-21.510843,-10.829313
0.5984568,0.48260573,-0.23288597,-12.144844,-20.822695,-10.482876
0.5793438,0.46719268,-0.22544825,-11.756972,-20.157677,-10.148082
0.56087035,0.45229536,-0.21825941,-11.382079,-19.514912,-9.8244915
0.5430123,0.43789437,-0.21131009,-11.019676,-18.893562,-9.511682
0.52574694,0.42397127,-0.20459135,-10.669299,-18.29283,-9.209252
0.5090523,0.4105084,-0.19809471,-10.330504,-17.711954,-8.91682
0.49290746,0.39748895,-0.19181205,-10.002868,-17.150213,-8.634019
0.47729263,0.38489687,-0.18573564,-9.6859865,-16.60691,-8.360502
0.46218875,0.37271687,-0.17985806,-9.379475,-16.081387,-8.095935
0.44757766,0.36093423,-0.17417222,-9.082963,-15.573009,-7.8399987
0.43344185,0.34953487,-0.16867137,-8.796097,-15.081168,-7.592389
0.4197647,0.3385054,-0.16334899,-8.518538,-14.605286,-7.3528132
0.40653023,0.32783288,-0.15819886,-8.249963,-14.144805,-7.120991
0.39372307,0.31750497,-0.15321504,-7.9900594,-13.699193,-6.8966546
0.38132852,0.3075098,-0.14839177,-7.7385297,-13.267938,-6.6795454
0.3693325,0.29783598,-0.14372358,-7.4950867,-12.850548,-6.4694166
0.35772136,0.2884726,-0.13920517,-7.259455,-12.44655,-6.2660303
0.34648213,0.27940908,-0.1348315,-7.0313706,-12.055492,-6.069158
0.33560225,0.27063537,-0.13059765,-6.810579,-11.676938,-5.8785806
0.32506967,0.2621417,-0.12649897,-6.5968347,-11.310469,-5.6940866
0.3148728,0.25391877,-0.122530915,-6.3899035,-10.955679,-5.515473
0.30500045,0.24595755,-0.11868915,-6.189558,-10.612181,-5.342544
0.29544193,0.23824938,-0.1149695,-5.9955807,-10.2796,-5.175112
0.28618678,0.23078589,-0.11136792,-5.8077607,-9.957578,-5.0129943
0.2772251,0.22355902,-0.10788053,-5.625896,-9.645765,-4.8560166
0.26854724,0.21656105,-0.10450359,-5.449791,-9.343827,-4.7040105
0.2601439,0.20978446,-0.10123348,-5.279257,-9.051442,-4.5568137
0.25200617,0.20322207,-0.09806673,-5.1141133,-8.768298,-4.414269
0.2441254,0.19686687,-0.09499998,-4.954184,-8.494095,-4.2762256
0.23649326,0.19071218,-0.092029974,-4.7993,-8.228542,-4.142537
0.2291017,0.18475151,-0.08915359,-4.6492987,-7.97136,-4.0130625
0.22194298,0.17897858,-0.086367816,-4.5040226,-7.7222795,-3.8876667
0.21500957,0.17338736,-0.083669715,-4.3633184,-7.481039,-3.7662175
0.20829424,0.16797201,-0.08105649,-4.227041,-7.247386,-3.6485887
0.20179002,0.1627269,-0.07852541,-4.0950465,-7.021078,-3.5346572
0.19549012,0.15764655,-0.07607384,-3.9671988,-6.80188,-3.424305
0.18938804,0.15272573,-0.07369925,-3.8433654,-6.589564,-3.3174176
0.18347743,0.14795932,-0.071399175,-3.723418,-6.38391,-3.2138846
0.17775223,0.1433424,-0.06917124,-3.6072328,-6.1847076,-3.1135988
0.17220649,0.13887024,-0.06701315,-3.4946902,-5.99175,-3.016457
0.16683456,0.13453823,-0.0649227,-3.3856742,-5.8048387,-2.9223595
0.1616309,0.1303419,-0.06289772,-3.2800732,-5.6237826,-2.8312097
0.15659018,0.12627698,-0.060936153,-3.1777787,-5.4483957,-2.7429137
0.15170723,0.122339286,-0.059035983,-3.0786862,-5.2784986,-2.6573815
0.14697708,0.11852481,-0.057195272,-2.9826944,-5.113918,-2.5745256
0.14239487,0.114829645,-0.055412136,-2.889705,-4.954485,-2.4942615
0.13795596,0.111250035,-0.05368476,-2.7996235,-4.8000374,-2.4165072
0.13365583,0.10778233,-0.052011386,-2.7123582,-4.6504183,-2.341184
0.12949008,0.104423,-0.05039031,-2.6278203,-4.5054755,-2.2682145
0.1254545,0.10116864,-0.048819885,-2.5459237,-4.3650613,-2.1975253
0.12154498,0.098015934,-0.04729852,-2.4665854,-4.229034,-2.129044
0.117757566,0.094961695,-0.04582467,-2.3897252,-4.0972543,-2.0627017
0.11408841,0.09200283,-0.04439684,-2.3152647,-3.96959,-1.998431
0.1105338,0.08913633,-0.043013584,-2.243129,-3.845911,-1.9361666
0.107090145,0.086359315,-0.041673508,-2.173245,-3.7260926,-1.8758458
0.10375396,0.08366896,-0.04037525,-2.1055417,-3.6100135,-1.8174075
0.10052188,0.08106255,-0.039117504,-2.039951,-3.4975564,-1.7607926
0.09739063,0.07853746,-0.037898995,-1.9764067,-3.3886077,-1.7059441
0.09435706,0.07609113,-0.0367185,-1.9148446,-3.2830577,-1.6528065
0.0914181,0.07372111,-0.035574824,-1.8552027,-3.1808,-1.6013263
0.0885708,0.071425,-0.03446681,-1.7974207,-3.081731,-1.5514516
0.08581229,0.069200486,-0.033393353,-1.7414405,-2.9857514,-1.503132
0.083139785,0.06704534,-0.032353364,-1.6872058,-2.892764,-1.456319
0.080550596,0.06495737,-0.031345796,-1.6346618,-2.802676,-1.4109654
0.07804212,0.062934496,-0.030369636,-1.5837557,-2.7153962,-1.3670257
0.07561184,0.06097467,-0.029423904,-1.5344365,-2.6308367,-1.3244556
0.07325729,0.059075925,-0.028507648,-1.4866544,-2.548913,-1.2832122
0.07097613,0.05723636,-0.027619947,-1.4403614,-2.4695423,-1.2432542
0.06876606,0.055454116,-0.02675991,-1.395511,-2.392645,-1.2045414
0.06662485,0.053727407,-0.02592667,-1.3520582,-2.3181436,-1.1670349
0.064550355,0.052054502,-0.025119394,-1.3099592,-2.2459638,-1.130697
0.062540494,0.050433718,-0.02433727,-1.269172,-2.1760328,-1.0954913
0.06059325,0.04886343,-0.02357951,-1.2296554,-2.1082804,-1.0613824
0.05870667,0.04734206,-0.02284536,-1.1913699,-2.0426388,-1.028336
0.05687886,0.04586808,-0.022134077,-1.154277,-1.979042,-0.99631923
0.055107985,0.044440016,-0.021444952,-1.1183395,-1.9174262,-0.96529967
0.05339227,0.043056432,-0.02077729,-1.0835215,-1.8577297,-0.93524635
0.051729996,0.041715946,-0.020130426,-1.049788,-1.7998924,-0.90612906
0.05011949,0.04041721,-0.019503707,-1.017105,-1.7438567,-0.87791866
0.048559148,0.03915892,-0.018896509,-0.98544,-1.689566,-0.85058683
0.047047395,0.03793982,-0.01830822,-0.95476115,-1.6369662,-0.8241063
0.045582727,0.036758684,-0.017738251,-0.9250377,-1.5860045,-0.79845035
0.044163667,0.03561433,-0.017186033,-0.8962399,-1.5366298,-0.77359337
0.0427888,0.034505613,-0.016651012,-0.8683389,-1.4887927,-0.74951047
0.041456744,0.033431422,-0.016132649,-0.8413067,-1.4424452,-0.7261775
0.040166166,0.03239068,-0.01563043,-0.8151162,-1.3975409,-0.70357114
0.038915776,0.031382345,-0.015143848,-0.7897413,-1.3540348,-0.68166864
0.037704322,0.030405404,-0.014672416,-0.7651565,-1.3118834,-0.6604482
0.036530584,0.029458884,-0.014215664,-0.7413372,-1.2710445,-0.6398884
0.035393395,0.028541835,-0.013773134,-0.7182595,-1.2314771,-0.61996883
0.034291614,0.02765334,-0.013344381,-0.6959004,-1.1931418,-0.60066944
0.033224136,0.026792508,-0.012928979,-0.6742374,-1.1559999,-0.58197093
0.03218989,0.025958477,-0.012526508,-0.6532489,-1.1200145,-0.56385463
0.03118785,0.025150413,-0.01213657,-0.6329138,-1.0851495,-0.5463023
0.030217005,0.024367506,-0.011758771,-0.61321187,-1.0513699,-0.5292965
0.029276384,0.023608973,-0.011392734,-0.5941233,-1.018642,-0.5128201
0.02836505,0.022874057,-0.011038093,-0.575629,-0.986933,-0.49685672
0.027482085,0.02216202,-0.010694494,-0.5577105,-0.95621115,-0.48139027
0.026626611,0.02147215,-0.01036159,-0.54034984,-0.9264458,-0.46640533
0.025797768,0.020803759,-0.010039051,-0.52352965,-0.897607,-0.4518869
0.024994727,0.020156173,-0.009726552,-0.5072331,-0.8696661,-0.43782043
0.024216687,0.019528748,-0.009423783,-0.49144384,-0.842595,-0.4241919
0.02346287,0.018920856,-0.009130439,-0.47614613,-0.8163666,-0.41098762
0.022732517,0.018331887,-0.008846226,-0.46132466,-0.79095477,-0.3981944
0.022024902,0.017761255,-0.008570862,-0.4469646,-0.766334,-0.38579944
0.021339314,0.017208384,-0.00830407,-0.43305156,-0.7424797,-0.37379032
0.020675069,0.016672727,-0.008045582,-0.4195716,-0.7193679,-0.36215508
0.0200315,0.016153742,-0.0077951415,-0.4065113,-0.69697565,-0.35088202
0.019407967,0.015650915,-0.007552497,-0.39385757,-0.67528045,-0.3399599
0.018803844,0.015163739,-0.007317406,-0.38159773,-0.6542606,-0.32937774
0.018218527,0.014691729,-0.0070896335,-0.36971954,-0.6338951,-0.31912503
0.01765143,0.014234412,-0.0068689506,-0.3582111,-0.6141635,-0.30919147
0.017101986,0.013791332,-0.006655138,-0.3470609,-0.59504616,-0.29956713
