ax,ay,az,gx,gy,gz
0.39545813,9.05281,-0.70000637,-22.638388,23.360212,-13.982854
0.55819154,9.734725,-0.8134025,-31.103592,21.128817,-26.572134
0.7381331,10.199527,-0.76544386,-39.3367,17.870716,-39.78053
1.0142435,10.62879,-0.68699676,-53.808086,16.484196,-52.858265
1.3070003,10.889278,-0.7402705,-70.29945,16.133936,-63.50376
1.5635096,10.972639,-0.8807267,-86.09903,16.393103,-73.34747
1.8498905,10.872924,-1.0548929,-100.25814,17.747,-82.90628
2.1562772,10.596721,-1.2651451,-112.22627,19.597301,-92.40682
2.4755337,10.198317,-1.482222,-123.241554,21.895464,-102.42528
2.8331468,9.58156,-1.7050921,-132.8591,24.253618,-112.484665
3.193269,8.762364,-1.90889,-140.66566,26.369324,-122.134674
3.532,7.7460704,-2.0816367,-146.56203,28.109676,-130.37947
3.8288562,6.588061,-2.224362,-151.45859,29.159,-136.084
4.1061115,5.29057,-2.3214042,-154.98907,29.334295,-138.9909
4.405497,3.7220895,-2.3139527,-156.8171,29.288536,-139.34805
4.7420316,2.043394,-2.2116675,-156.05237,29.685143,-137.24081
5.099549,0.35267052,-2.0093086,-152.10272,31.185595,-132.66333
5.4139967,-1.1744609,-1.726293,-145.30081,34.173798,-125.77438
5.613161,-2.396427,-1.4119929,-136.10634,38.651546,-116.87738
5.711671,-3.2784958,-1.1041646,-126.58968,43.48222,-107.173615
5.868379,-3.9776137,-0.8211341,-117.2358,48.977673,-97.016556
6.109928,-4.5598893,-0.59699506,-108.04473,55.858997,-86.51185
6.3727226,-5.03971,-0.48310763,-98.72273,64.05138,-75.76959
6.607175,-5.387873,-0.49172935,-89.06796,74.006966,-64.17839
6.7285147,-5.529839,-0.6820325,-79.54658,84.422516,-52.472908
6.7419667,-5.5151243,-0.98999107,-70.25601,94.69765,-41.077007
6.6844683,-5.369591,-1.362546,-61.46694,104.60084,-30.422056
6.570571,-5.1190186,-1.7834877,-53.58164,114.1382,-20.658525
6.380764,-4.8021536,-2.2550163,-47.342083,122.76979,-11.568232
6.0882564,-4.4227734,-2.7687254,-41.75061,130.14093,-3.3985412
5.7160087,-3.9964576,-3.2856362,-37.02862,135.77473,3.8073041
5.268469,-3.5365303,-3.7942648,-33.3713,139.11618,10.067186
4.749102,-3.0690677,-4.287389,-30.57016,139.7799,15.094336
4.19598,-2.610793,-4.7565207,-28.812408,136.5159,18.366886
3.7191627,-2.1996145,-5.186173,-27.800154,130.85164,20.346281
3.3372912,-1.8477217,-5.5858455,-27.319714,123.39306,21.332193
3.0317132,-1.5429218,-5.960784,-27.168245,114.59845,21.416454
2.7849972,-1.2753074,-6.3167186,-27.227283,104.70223,20.81681
2.5963125,-1.0304788,-6.6442113,-27.369175,93.7938,19.562614
2.4595454,-0.79366153,-6.9583764,-27.854761,82.26496,17.923313
2.3422554,-0.56691784,-7.267957,-28.592026,70.17321,15.807082
2.2254503,-0.3496857,-7.5862064,-29.626617,57.120667,13.210482
2.103926,-0.14394723,-7.902825,-31.368568,42.922173,10.257783
1.9733574,0.04256095,-8.211095,-34.369602,26.737377,6.79173
1.8912327,0.2147459,-8.444582,-37.853645,9.621314,3.020599
1.9695162,0.40299496,-8.538734,-42.296642,-7.354129,-0.6327487
2.2368245,0.5121346,-8.495564,-48.968555,-23.435558,-3.3938272
2.6651077,0.36145955,-8.346658,-57.343517,-38.135284,-5.0526137
3.2468905,-0.08744275,-8.063379,-63.699753,-49.052364,-6.237134
3.9580417,-0.7050325,-7.5956197,-66.75693,-56.11785,-8.165381
4.6137323,-1.3284129,-7.065237,-66.6401,-59.772953,-10.876941
5.124552,-1.873543,-6.530523,-64.72308,-61.241047,-12.988482
5.4753084,-2.3023727,-6.019977,-62.37125,-61.719467,-13.684171
5.678367,-2.6305633,-5.5488453,-59.125202,-61.53428,-13.324429
5.7397733,-2.8531623,-5.12803,-54.473278,-60.777702,-13.097358
5.7422233,-2.994766,-4.728877,-48.937153,-59.4568,-12.902802
5.7275825,-3.05837,-4.349769,-42.976685,-57.465523,-12.8157015
5.7125206,-3.0782511,-4.00694,-37.185566,-54.74408,-12.757736
5.6856494,-3.0869656,-3.7161179,-32.321743,-51.131123,-12.456597
5.500452,-2.9864144,-3.5950735,-31.268934,-49.465637,-12.050851
5.3217845,-2.8894088,-3.4782972,-30.253248,-47.858883,-11.659411
5.149372,-2.7957993,-3.365609,-29.273117,-46.308372,-11.281675
4.9829535,-2.7054439,-3.2568386,-28.327063,-44.811768,-10.917072
4.8222837,-2.6182098,-3.1518254,-27.413689,-43.366863,-10.565063
4.66713,-2.5339708,-3.0504177,-26.531672,-41.971565,-10.22514
4.517273,-2.4526074,-2.9524715,-25.679764,-40.623898,-9.89682
4.3725033,-2.3740063,-2.8578508,-24.85678,-39.32198,-9.579646
4.2326236,-2.29806,-2.7664258,-24.061592,-38.06404,-9.273186
4.0974455,-2.2246664,-2.6780741,-23.293133,-36.848385,-8.977027
3.966791,-2.1537287,-2.5926788,-22.550388,-35.673405,-8.690778
3.8404891,-2.0851545,-2.5101283,-21.832388,-34.53757,-8.414065
3.7183783,-2.0188558,-2.4303174,-21.138214,-33.439426,-8.146535
3.6003041,-1.9547486,-2.3531444,-20.466988,-32.377586,-7.887848
3.486119,-1.892753,-2.2785137,-19.817867,-31.350716,-7.637682
3.3756824,-1.8327924,-2.2063324,-19.190058,-30.357557,-7.3957276
3.2688591,-1.7747939,-2.1365135,-18.58279,-29.396894,-7.1616907
3.1655211,-1.7186875,-2.068972,-17.995335,-28.467575,-6.935289
3.0655448,-1.6644064,-2.003628,-17.42699,-27.568487,-6.7162523
2.9688125,-1.6118865,-1.9404039,-16.877087,-26.69857,-6.504323
2.8752108,-1.5610665,-1.8792263,-16.34498,-25.85681,-6.2992525
2.7846313,-1.5118873,-1.8200239,-15.830054,-25.042227,-6.1008034
2.6969702,-1.4642925,-1.7627289,-15.331718,-24.25389,-5.908748
2.6121273,-1.418228,-1.707276,-14.849405,-23.490896,-5.7228675
2.530007,-1.3736415,-1.6536025,-14.382567,-22.752386,-5.542951
2.4505167,-1.3304832,-1.601648,-13.930682,-22.03753,-5.3687973
2.373568,-1.2887046,-1.5513546,-13.493245,-21.34553,-5.200212
2.2990758,-1.2482599,-1.5026668,-13.069772,-20.67562,-5.037008
2.2269578,-1.2091041,-1.4555308,-12.659796,-20.027061,-4.879006
2.157135,-1.1711946,-1.409895,-12.262868,-19.399145,-4.7260323
2.0895317,-1.13449,-1.3657095,-11.878556,-18.791185,-4.577921
2.024074,-1.0989505,-1.3229268,-11.506444,-18.202526,-4.434511
1.960692,-1.0645378,-1.2815005,-11.14613,-17.63253,-4.295648
1.8993173,-1.0312151,-1.2413862,-10.797227,-17.080585,-4.1611834
1.8398842,-0.9989464,-1.202541,-10.459362,-16.546104,-4.0309725
1.7823296,-0.96769774,-1.1649235,-10.132176,-16.028515,-3.904877
1.7265923,-0.93743575,-1.1284939,-9.815321,-15.527268,-3.782763
1.6726135,-0.9081285,-1.0932136,-9.508463,-15.041836,-3.664502
1.6203363,-0.8797451,-1.0590453,-9.211277,-14.571706,-3.5499685
1.5697057,-0.85225576,-1.0259534,-8.923453,-14.1163845,-3.4390428
1.5206687,-0.8256316,-0.99390304,-8.644688,-13.675395,-3.3316085
1.4731742,-0.799845,-0.9628608,-8.374692,-13.248276,-3.2275534
1.4271727,-0.7748689,-0.9327944,-8.113182,-12.834583,-3.1267693
1.3826163,-0.75067747,-0.90367246,-7.859888,-12.433887,-3.0291514
1.3394588,-0.72724557,-0.875465,-7.6145473,-12.045772,-2.9345987
1.2976557,-0.704549,-0.8481426,-7.376905,-11.669835,-2.8430128
1.2571638,-0.6825643,-0.82167727,-7.146717,-11.305691,-2.7542999
1.2179414,-0.6612689,-0.7960416,-6.923745,-10.952963,-2.6683679
1.179948,-0.6406408,-0.7712093,-6.707761,-10.611288,-2.585129
1.1431447,-0.6206588,-0.7471549,-6.4985423,-10.280316,-2.5044973
1.1074939,-0.60130256,-0.72385365,-6.2958746,-9.959708,-2.4263904
1.072959,-0.5825522,-0.7012817,-6.0995507,-9.649135,-2.3507285
1.0395046,-0.5643885,-0.6794161,-5.9093695,-9.348279,-2.2774339
1.0070968,-0.546793,-0.6582344,-5.725137,-9.056835,-2.2064319
0.9757023,-0.52974766,-0.63771516,-5.546666,-8.774504,-2.1376503
0.9452893,-0.5132352,-0.6178373,-5.3737745,-8.500999,-2.071019
0.9158268,-0.49723884,-0.5985807,-5.2062864,-8.236043,-2.00647
0.8872849,-0.4817423,-0.57992584,-5.0440316,-7.979365,-1.943938
0.8596346,-0.46672985,-0.5618537,-4.886845,-7.7307053,-1.8833594
0.83284783,-0.45218626,-0.54434603,-4.734568,-7.4898114,-1.8246727
0.80689746,-0.4380968,-0.527385,-4.5870457,-7.25644,-1.7678186
0.7817573,-0.42444718,-0.5109535,-4.444129,-7.030354,-1.7127393
0.7574018,-0.41122362,-0.4950348,-4.305673,-6.811325,-1.6593794
0.7338065,-0.39841276,-0.47961298,-4.1715384,-6.5991316,-1.6076846
0.71094733,-0.38600165,-0.46467236,-4.041589,-6.393559,-1.557603
0.6888014,-0.37397772,-0.45019785,-3.9156938,-6.1944003,-1.5090837
0.6673463,-0.3623289,-0.43617487,-3.793726,-6.001454,-1.4620781
0.6465603,-0.35104337,-0.42258924,-3.6755621,-5.8145256,-1.4165385
0.62642264,-0.3401098,-0.40942731,-3.5610833,-5.633427,-1.3724191
0.60691285,-0.32951716,-0.39667583,-3.4501743,-5.4579754,-1.3296756
0.5880114,-0.31925482,-0.3843219,-3.3427234,-5.2879944,-1.2882646
0.56969917,-0.30931237,-0.3723531,-3.2386224,-5.1233125,-1.2481447
0.55195785,-0.2996799,-0.36075744,-3.1377664,-4.963764,-1.2092755
0.5347695,-0.29034767,-0.3495232,-3.040054,-4.8091893,-1.1716177
0.51811683,-0.28130627,-0.3386391,-2.9453874,-4.6594315,-1.1351337
0.50198317,-0.27254665,-0.3280942,-2.8536708,-4.5143414,-1.0997868
0.48635226,-0.26406002,-0.31787792,-2.7648122,-4.3737726,-1.0655413
0.47120842,-0.25583783,-0.30797997,-2.6787229,-4.2375836,-1.0323629
0.45653647,-0.24787183,-0.29839042,-2.5953157,-4.1056385,-1.0002183
0.4423216,-0.24015403,-0.28909963,-2.514507,-3.9778042,-0.9690752
0.42854962,-0.23267666,-0.28009832,-2.436216,-3.8539524,-0.9389024
0.41520664,-0.22543223,-0.2713774,-2.3603642,-3.733959,-0.9096695
0.40227935,-0.21841349,-0.2629282,-2.286875,-3.6177034,-0.8813473
0.3897547,-0.21161336,-0.25474212,-2.215675,-3.5050695,-0.8539073
0.37762022,-0.20502506,-0.24681106,-2.146693,-3.3959436,-0.827322
0.36586365,-0.19864196,-0.23912703,-2.0798595,-3.2902167,-0.80156475
0.35447326,-0.19245766,-0.23168232,-2.0151074,-3.187783,-0.7766097
0.34343764,-0.18646598,-0.22446947,-1.9523721,-3.0885394,-0.7524319
0.33274567,-0.18066089,-0.21748126,-1.8915906,-2.9923863,-0.7290071
0.3223867,-0.1750366,-0.21071067,-1.8327019,-2.899228,-0.7063118
0.31235033,-0.16958743,-0.20415093,-1.7756472,-2.8089707,-0.68432325
0.3026265,-0.16430797,-0.19779547,-1.7203691,-2.721524,-0.6630194
0.29320544,-0.15919292,-0.1916379,-1.6668124,-2.6368005,-0.64237905
0.28407776,-0.15423714,-0.18567209,-1.6149235,-2.5547152,-0.6223813
0.27523428,-0.14943567,-0.17989203,-1.5646502,-2.4751856,-0.60300636
0.2666662,-0.1447837,-0.17429197,-1.5159423,-2.3981326,-0.58423465
0.2583649,-0.14027658,-0.16886625,-1.4687511,-2.323479,-0.56604743
0.25032204,-0.1359098,-0.16360949,-1.4230291,-2.2511494,-0.54842645
0.2425296,-0.13167898,-0.15851638,-1.3787308,-2.181072,-0.5313542
0.2349798,-0.1275799,-0.15358186,-1.3358117,-2.1131766,-0.5148134
0.22766505,-0.123608425,-0.14880097,-1.2942288,-2.0473948,-0.49878767
0.22057804,-0.1197606,-0.14416893,-1.2539407,-1.9836613,-0.48326084
0.21371168,-0.116032586,-0.1396811,-1.2149068,-1.921912,-0.46821743
0.20705909,-0.112420626,-0.13533299,-1.1770881,-1.8620851,-0.45364237
0.2006136,-0.10892112,-0.13112025,-1.1404469,-1.8041208,-0.43952107
0.19436878,-0.10553056,-0.12703866,-1.1049465,-1.7479612,-0.42583942
0.18831839,-0.102245554,-0.12308414,-1.0705512,-1.6935498,-0.41258368
0.18245634,-0.099062815,-0.11925274,-1.0372267,-1.6408323,-0.39974064
0.1767768,-0.09597916,-0.11554061,-1.0049396,-1.5897561,-0.3872974
0.17127405,-0.09299151,-0.11194404,-0.97365767,-1.54027,-0.37524155
0.16594262,-0.09009686,-0.108459435,-0.9433496,-1.4923242,-0.363561
0.16077717,-0.08729233,-0.10508332,-0.913985,-1.4458712,-0.35224408
0.1557725,-0.0845751,-0.10181229,-0.8855346,-1.4008642,-0.34127945
0.15092364,-0.08194246,-0.098643094,-0.85796976,-1.3572583,-0.33065617
0.14622572,-0.07939177,-0.09557255,-0.8312631,-1.31501,-0.32036358
0.14167406,-0.07692049,-0.0925976,-0.8053878,-1.2740767,-0.3103914
0.13726407,-0.07452613,-0.08971525,-0.78031796,-1.2344177,-0.30072963
0.13299137,-0.07220632,-0.08692263,-0.75602853,-1.1959932,-0.29136863
0.12885168,-0.06995871,-0.084216945,-0.73249525,-1.158765,-0.28229904
0.12484085,-0.06778107,-0.08159548,-0.7096945,-1.1226954,-0.2735118
0.12095487,-0.06567122,-0.07905562,-0.68760353,-1.0877488,-0.26499808
