ax,ay,az,gx,gy,gz
3.4500315,-0.5963691,3.5536685,20.031092,-43.724033,-5.3818674
3.9312482,-0.5995285,4.0150466,20.17113,-39.26381,-3.10823
4.528702,-0.5712423,4.450982,19.234552,-28.369947,2.9851377
5.0928116,-0.3892909,4.8725452,19.53137,-16.747963,6.243738
5.4927917,-0.22467874,5.1820135,19.254276,-4.7968364,6.408739
5.7637334,-0.17806375,5.346012,17.38105,7.2592416,6.7824583
5.895937,-0.26397645,5.3458676,15.649476,18.366814,7.9574666
5.9283667,-0.41905087,5.2574153,15.753719,28.85238,8.967006
5.920905,-0.53652954,5.104808,16.603798,38.797253,10.072371
5.8832226,-0.5876146,4.921664,17.169403,48.449257,11.458791
5.8084884,-0.60425353,4.6964355,17.452364,57.639088,12.866427
5.700496,-0.6119855,4.439834,17.515741,66.17152,14.103206
5.569946,-0.6123875,4.163674,17.545183,74.229485,15.140222
5.4140234,-0.5955421,3.8564997,17.423925,81.50965,16.033499
5.2626634,-0.5683568,3.5389023,17.784334,87.97572,16.578522
5.117382,-0.5181589,3.2377977,18.468752,93.96819,16.935326
4.9541435,-0.42894384,2.928486,19.060205,99.418396,17.127512
4.7496977,-0.32308885,2.598142,19.510864,103.79169,17.062267
4.518548,-0.20761615,2.2588172,19.6893,107.27815,16.872438
4.296376,-0.091100015,1.9387257,19.574923,110.09865,16.516832
4.0812016,0.025402576,1.6386311,19.369228,112.42114,15.849024
3.8810863,0.14131387,1.3643881,19.079905,114.3377,15.03921
3.7005296,0.2698048,1.117453,18.397337,115.90667,14.403247
3.5521395,0.437382,0.8941535,17.277523,117.20663,13.820209
3.425336,0.6130129,0.6885511,15.7185,118.269966,13.142242
3.3052378,0.76932293,0.48255748,14.083284,119.18337,12.03435
3.1717215,0.8984462,0.25699148,12.476298,119.849266,10.376705
3.0022826,0.99113846,0.0031451546,10.767121,119.70528,8.386602
2.7919896,1.036651,-0.26527837,9.005028,118.78994,6.435265
2.5788164,1.0692475,-0.51963145,7.161842,117.256584,4.5537057
2.3746898,1.0966953,-0.75968754,5.2676954,115.29217,2.6133878
2.1809003,1.1073682,-0.989675,3.4366174,112.99758,0.50539213
1.9921268,1.094827,-1.2095616,1.6527115,110.231606,-1.5813411
1.7935243,1.0573604,-1.4151115,-0.10557478,107.09055,-3.471945
1.5802212,0.9960256,-1.6073024,-1.5947647,103.46736,-5.193083
1.3594756,0.91864026,-1.7818272,-2.8173325,99.375015,-6.7384315
1.1344903,0.83431,-1.9375862,-3.7865179,94.739204,-8.164166
0.9173808,0.7469612,-2.0695605,-4.372633,89.42863,-9.442041
0.73725516,0.672686,-2.1607041,-4.966638,83.91133,-10.412588
0.57642967,0.5975183,-2.2290199,-5.566147,78.31442,-11.091958
0.4256176,0.5223366,-2.2831104,-5.998835,72.500175,-11.704668
0.29312366,0.43235996,-2.3198383,-6.2718916,66.473114,-12.245938
0.19045779,0.3033358,-2.3380864,-6.059709,60.254715,-12.628707
0.13005868,0.123515286,-2.3271847,-5.2669106,54.239494,-12.876457
0.098205775,-0.08647333,-2.2994924,-3.7815795,48.61325,-12.957713
0.08481991,-0.30694503,-2.2636483,-1.6182736,43.44767,-12.685596
0.0761281,-0.49554214,-2.2299383,1.2815944,38.408802,-12.08341
0.07663818,-0.629388,-2.1770873,4.7503204,33.19989,-11.128887
0.12639421,-0.6673218,-2.0677779,8.111436,28.128696,-10.098116
0.2167025,-0.6550714,-1.9170458,10.963232,23.516369,-9.00042
0.32915932,-0.6340906,-1.7450689,13.224301,19.559235,-7.7478747
0.4387332,-0.6261334,-1.5742371,15.177151,16.213186,-6.328417
0.536291,-0.617844,-1.4100664,17.204626,13.479605,-4.983297
0.6314459,-0.5707159,-1.2431519,19.094992,11.25278,-3.7151468
0.7181593,-0.50281364,-1.0840348,20.638044,9.47476,-2.5083017
0.7953773,-0.42543155,-0.9306102,21.876553,8.165042,-1.3660476
0.8628415,-0.34284735,-0.78830403,22.861158,7.2783747,-0.3537333
0.92049414,-0.25177658,-0.6588085,23.46814,6.7697935,0.5579989
0.97170377,-0.14864622,-0.54254395,23.71639,6.5466347,1.4091378
1.0164359,-0.04172122,-0.43773952,23.66159,6.6157007,2.1723793
1.0560176,0.0710807,-0.34176284,23.3272,6.9123063,2.7838135
1.088933,0.18333556,-0.26106825,22.688118,7.4318557,3.308595
1.1061608,0.2847392,-0.20160057,21.911476,8.148355,3.4797974
1.113217,0.38280126,-0.16085717,21.05932,8.977881,3.4561691
1.1142074,0.48534712,-0.13213013,20.002739,9.869242,3.2782078
1.1097697,0.5846815,-0.1139201,18.715685,10.826214,2.9495325
1.0966053,0.67545164,-0.10921161,17.231745,11.817195,2.5263855
1.0699376,0.7583893,-0.11797031,15.548015,12.72979,1.8461213
1.031647,0.82036686,-0.14307386,13.663563,13.54544,1.114661
0.98775,0.86576205,-0.17680782,11.676737,14.228698,0.33175313
0.9442648,0.8988193,-0.21489431,9.693923,14.8367195,-0.6038507
0.8997744,0.9184748,-0.25918895,7.712868,15.409049,-1.5471995
0.8496416,0.9332254,-0.30976743,5.7546535,15.836492,-2.5020106
0.78672963,0.94717306,-0.36946318,3.9325514,16.122072,-3.6770341
0.7122292,0.9584136,-0.43309164,2.040727,16.214605,-4.842472
0.6322869,0.96640664,-0.4972329,0.058215022,16.06076,-5.925345
0.55147535,0.97290605,-0.5597242,-1.8731178,15.70547,-7.127256
0.47285053,0.97136146,-0.6207826,-3.8380113,15.109202,-8.386457
0.39813364,0.9562669,-0.6789449,-5.8123274,14.351252,-9.606728
0.32101113,0.93049985,-0.7350986,-7.69005,13.40038,-10.916423
0.24880457,0.8885213,-0.7898802,-9.587887,12.282149,-12.137709
0.18115944,0.82755893,-0.8425821,-11.522579,10.971302,-13.106369
0.118111454,0.74791974,-0.889846,-13.383555,9.472198,-13.790423
0.054980177,0.6389577,-0.9319779,-14.925767,7.8753543,-14.414143
-0.013512529,0.5170849,-0.9732003,-16.012053,6.0995436,-14.952691
-0.079061665,0.39490104,-1.0080177,-16.712858,4.165855,-15.393538
-0.13815598,0.27482858,-1.0355409,-17.128859,2.0984948,-15.665152
-0.18921863,0.159336,-1.0525883,-17.338247,-0.19014937,-15.629418
-0.2179315,0.0464532,-1.0495913,-17.359152,-2.591565,-15.422598
-0.22279127,-0.067918725,-1.0271964,-17.174746,-4.9338903,-15.103763
-0.21371315,-0.18661697,-0.99248064,-16.760994,-7.113898,-14.726225
-0.19668725,-0.3184927,-0.9528532,-16.07368,-9.117754,-14.288008
-0.17137323,-0.46954367,-0.9155451,-14.953433,-10.9148445,-13.643956
-0.1456397,-0.6537101,-0.89722234,-13.047374,-12.614995,-13.111966
-0.12193947,-0.85151315,-0.8908652,-10.130442,-14.244206,-12.728517
-0.08804237,-1.0055124,-0.8654139,-6.458141,-15.8143425,-12.204504
-0.029641371,-1.0823725,-0.80306214,-2.6440873,-17.10025,-11.263872
0.03695146,-1.0805482,-0.72157884,0.7120588,-17.973627,-9.883601
0.09441614,-1.0070069,-0.63578784,3.4513843,-18.563925,-8.607831
0.13332766,-0.9359367,-0.5565709,5.757478,-19.017433,-7.297867
0.16576815,-0.8573885,-0.4777531,7.750825,-19.37853,-5.9185433
0.20393375,-0.76488453,-0.39844638,9.475669,-19.604374,-4.601626
0.24939221,-0.66226786,-0.31907108,10.849081,-19.584942,-3.286056
0.30462933,-0.5356854,-0.23650698,11.92026,-19.341316,-2.107058
0.35919413,-0.39650333,-0.15668988,12.578761,-18.874859,-1.0984143
0.41129857,-0.2579735,-0.08056203,12.826184,-18.198269,-0.22615877
0.45952317,-0.12809217,-0.012062327,12.667843,-17.331516,0.5559157
0.5025244,-0.015289184,0.04608658,12.034688,-16.30535,1.2563647
0.5440227,0.061448593,0.085259214,11.265258,-15.278951,1.9558326
0.5824127,0.122965835,0.1170615,10.468525,-14.044866,2.566753
0.60213864,0.17716289,0.13324355,9.59205,-12.621025,3.0577052
0.5979875,0.221308,0.1308663,8.670693,-11.163693,3.3696342
0.57934445,0.21440844,0.12678638,8.400373,-10.815651,3.2645814
0.56128436,0.20772463,0.122834034,8.138506,-10.478493,3.162814
0.5437889,0.20124978,0.119005255,7.8848257,-10.151874,3.0642278
0.52684027,0.19497728,0.11529613,7.639074,-9.835464,2.9687228
0.5104212,0.18890078,0.111702904,7.4010005,-9.528939,2.876202
0.49451503,0.1830141,0.108221926,7.1703644,-9.23199,2.7865715
0.47910562,0.17731126,0.10484967,6.9469314,-8.944316,2.6997402
0.4641774,0.1717865,0.1015827,6.7304754,-8.665624,2.6156201
0.4497152,0.16643421,0.09841773,6.5207767,-8.395633,2.5341263
0.43570444,0.161249,0.09535155,6.317623,-8.1340685,2.4551764
0.4221309,0.1562256,0.09238106,6.12081,-7.8806677,2.37869
0.40898094,0.15135895,0.08950326,5.930138,-7.635174,2.3045905
0.39624122,0.14664413,0.08671524,5.7454147,-7.3973384,2.2328026
0.3838989,0.14207639,0.084014185,5.566454,-7.1669226,2.1632543
0.37194154,0.13765112,0.081397384,5.3930745,-6.943693,2.095875
0.36035708,0.13336384,0.07886219,5.2251024,-6.7274256,2.030597
0.34913385,0.12921026,0.07640605,5.062368,-6.517902,1.9673547
0.33826056,0.12518619,0.07402649,4.9047074,-6.314911,1.9060841
0.32772624,0.12128756,0.07172111,4.751962,-6.118248,1.8467237
0.31752032,0.117510475,0.0694876,4.603978,-5.927716,1.7892137
0.3076325,0.113851115,0.06732371,4.460607,-5.7431226,1.7334963
0.29805288,0.11030581,0.065227255,4.3217044,-5.5642824,1.6795155
0.2887718,0.10687099,0.06319614,4.187131,-5.391016,1.627217
0.27977994,0.10354321,0.06122832,4.056751,-5.2231493,1.5765482
0.27106827,0.100319125,0.059321817,3.9304333,-5.060513,1.5274583
0.26262805,0.0971955,0.05747472,3.8080518,-4.902944,1.479898
0.25445077,0.09416919,0.05568517,3.6894832,-4.7502847,1.4338194
0.24652827,0.091237165,0.05395137,3.5746086,-4.602381,1.3891765
0.23885258,0.08839648,0.05227159,3.4633124,-4.4590855,1.3459243
0.23141599,0.08564429,0.050644133,3.3554835,-4.3202534,1.3040193
0.22421105,0.082977824,0.04906737,3.2510133,-4.1857457,1.2634199
0.21723053,0.08039442,0.047539722,3.1497972,-4.055428,1.2240849
0.21046743,0.07789148,0.046059653,3.0517337,-3.9291694,1.1859752
0.20391497,0.07546649,0.044625685,2.9567246,-3.806843,1.1490524
0.1975666,0.07311703,0.043236375,2.8646743,-3.6883266,1.1132795
0.19141592,0.070840746,0.041890334,2.7754908,-3.5735009,1.0786207
0.1854568,0.068635345,0.04058621,2.6890848,-3.4622514,1.0450413
0.17968325,0.06649862,0.039322704,2.6053696,-3.3544664,1.0125076
0.17408949,0.06442844,0.03809854,2.5242612,-3.2500377,0.980987
0.16866992,0.062422723,0.036912497,2.4456787,-3.1488612,0.950448
0.16341911,0.06047946,0.035763387,2.369543,-3.050835,0.9208599
0.15833181,0.058596708,0.034650058,2.295778,-2.955861,0.8921931
0.15340291,0.056772582,0.033571392,2.2243102,-2.8638446,0.8644189
0.14862747,0.055005252,0.032526314,2.1550674,-2.774693,0.8375096
0.14400074,0.05329295,0.031513777,2.0879805,-2.6883175,0.8114381
0.13951805,0.05163396,0.030532766,2.0229826,-2.6046312,0.78617835
0.13517493,0.050026625,0.0295823,1.9600083,-2.5235505,0.76170504
0.13096704,0.04846933,0.028661424,1.8989947,-2.4449942,0.7379937
0.12689015,0.046960525,0.02776922,1.8398806,-2.3688838,0.71502066
0.12294019,0.04549869,0.026904792,1.7826071,-2.295143,0.6927628
0.11911321,0.044082373,0.026067277,1.7271166,-2.2236977,0.6711979
0.115405366,0.042710144,0.025255837,1.6733537,-2.154477,0.6503044
0.111812964,0.04138064,0.024469659,1.6212646,-2.0874112,0.6300613
0.108332396,0.040092524,0.023707956,1.5707971,-2.0224333,0.6104485
0.10496019,0.03884451,0.022969967,1.5219008,-1.9594783,0.5914462
0.10169296,0.03763535,0.022254951,1.4745266,-1.898483,0.57303554
0.09852745,0.036463827,0.021562196,1.4286274,-1.8393868,0.555198
0.095460474,0.03532878,0.020891007,1.384157,-1.7821302,0.53791577
0.09248898,0.034229066,0.020240711,1.3410709,-1.7266561,0.5211715
0.089609995,0.033163585,0.01961066,1.2993262,-1.6729089,0.50494856
0.086820625,0.032131273,0.019000223,1.258881,-1.6208348,0.48923057
0.08411809,0.0311311,0.018408788,1.2196947,-1.5703819,0.4740019
0.08149969,0.03016206,0.017835764,1.1817285,-1.5214995,0.45924732
0.078962795,0.029223187,0.017280579,1.1449441,-1.4741387,0.44495204
0.07650487,0.028313538,0.016742676,1.1093047,-1.4282523,0.43110177
0.074123465,0.027432207,0.016221518,1.0747747,-1.3837944,0.41768262
0.07181619,0.026578313,0.015716583,1.0413197,-1.3407203,0.4046812
0.069580734,0.025750997,0.015227365,1.0089061,-1.2989872,0.3920845
