ax,ay,az,gx,gy,gz
0.5527323,-0.41364014,0.90455365,19.975636,-30.85119,-9.488268
0.7772758,-0.69969183,1.146335,16.884968,-26.504768,-9.1841545
1.0240854,-0.96381795,1.4422468,13.755763,-20.996479,-9.233872
1.238516,-1.1227427,1.6877284,13.406481,-15.438005,-9.229497
1.4199374,-1.1656092,1.9381657,13.519049,-9.947321,-8.39597
1.5935467,-1.1936418,2.1431801,14.049436,-4.66483,-6.804459
1.7341977,-1.2903192,2.3379772,16.312742,-0.017940456,-4.5788474
1.9204094,-1.4150652,2.6389494,19.808165,5.322592,-1.9632611
2.1435275,-1.407188,2.9775798,22.384596,10.838108,0.70720536
2.3926492,-1.2940925,3.3050346,24.438042,17.008703,2.817535
2.6162627,-1.1184466,3.5872824,25.796406,23.688547,4.120354
2.7936294,-0.9602309,3.7960072,26.260996,30.739447,4.801278
2.9494226,-0.9066612,3.924754,26.778389,37.924084,5.3019753
3.0674806,-0.90938926,3.9760473,28.154222,44.69484,5.6095514
3.178438,-0.9070288,3.9791543,29.72795,51.269485,6.205401
3.2843091,-0.8696974,3.9392724,30.756655,57.65146,7.260233
3.3751476,-0.81408274,3.8652463,31.668945,64.0602,8.001643
3.4243977,-0.75335324,3.7398999,32.606205,70.36001,8.278959
3.4389534,-0.70901597,3.5732675,33.881622,76.39092,8.060456
3.4158046,-0.6796157,3.366174,35.607502,81.850395,7.4371305
3.3587487,-0.6518554,3.1351583,37.574066,86.678024,6.591444
3.2865245,-0.6160557,2.90121,39.162136,90.769844,5.900965
3.2346535,-0.5574764,2.6828687,40.211933,94.46414,5.4174843
3.19407,-0.47971305,2.4819205,40.956146,97.999146,4.6030664
3.1504269,-0.39666417,2.2727282,41.708015,101.29136,3.303346
3.1039803,-0.3154092,2.056758,42.199974,104.16008,1.756607
3.0611603,-0.24735479,1.8275356,42.179623,106.629234,0.15500972
3.007735,-0.21182969,1.5609928,42.114956,108.436646,-1.4605188
2.9408681,-0.1831134,1.2916285,42.017677,109.75708,-3.1691859
2.8607702,-0.13841435,1.0287119,41.563236,110.57812,-4.939054
2.7809317,-0.07958801,0.77783227,40.5901,110.942856,-6.7845416
2.7146926,-0.0064457883,0.5463996,38.913704,111.19697,-8.917441
2.6349838,0.073493324,0.2851687,37.114548,110.92863,-11.293891
2.5368283,0.13943665,0.016740115,35.10613,110.10261,-13.87921
2.4472423,0.19293454,-0.2533484,32.751976,108.82759,-16.405003
2.3751352,0.2158076,-0.5198899,30.05693,107.094925,-18.659533
2.310454,0.21759254,-0.78238124,27.421886,104.72494,-20.650103
2.2464569,0.22717486,-1.0212083,24.866539,102.08629,-22.544834
2.1763391,0.24619947,-1.2343856,22.364285,99.34458,-24.418274
2.0882032,0.26835102,-1.4408582,19.857035,96.41945,-26.310688
1.9808824,0.27355194,-1.6464752,17.18683,93.12961,-28.036406
1.8536879,0.24623427,-1.8419554,14.356826,89.20002,-29.491606
1.7064453,0.17535502,-2.0252328,12.023142,84.8908,-30.880236
1.5529327,0.079230584,-2.1971679,10.35481,80.08835,-32.260254
1.4046361,-0.036420565,-2.3470361,8.911413,74.81776,-33.301594
1.267352,-0.1818343,-2.466505,7.488251,69.16788,-33.773266
1.1527468,-0.3608743,-2.5404208,6.3133883,63.298134,-33.25431
1.0634782,-0.54608697,-2.562597,5.640486,57.428158,-32.0405
0.9848062,-0.7097029,-2.5523825,5.61258,51.528835,-30.677559
0.9290398,-0.8647584,-2.5012076,6.521134,45.64512,-29.238056
0.91706526,-0.97873104,-2.40184,7.875988,39.94119,-27.570543
0.9524372,-1.0510657,-2.2508843,8.953389,34.880703,-25.508322
1.0155622,-1.1271985,-2.0548215,9.853231,30.687513,-23.145254
1.0653377,-1.2335992,-1.8685232,11.082646,27.218363,-20.55631
1.0952077,-1.3677464,-1.7056503,12.921441,24.266413,-17.707787
1.1110084,-1.4857347,-1.5594987,15.333102,21.739384,-14.464615
1.1193277,-1.5139902,-1.4232467,18.024105,19.374733,-11.305561
1.128264,-1.428781,-1.284249,20.421862,17.155527,-8.536695
1.1373701,-1.2970647,-1.1413116,22.386742,15.189295,-6.2079887
1.1506803,-1.1586608,-1.0034534,23.959757,13.501688,-4.2443376
1.1686534,-1.0263715,-0.8746464,25.326618,12.1452055,-2.530334
1.1949714,-0.8774603,-0.75128806,26.400448,11.340444,-1.1353822
1.2220873,-0.6816295,-0.6421079,27.11738,10.802332,-0.21892288
1.2448487,-0.47186273,-0.5455017,27.39431,10.448122,0.16206837
1.2654451,-0.2668526,-0.46144634,27.210037,10.259255,0.1293771
1.2824165,-0.07683574,-0.3923975,26.473518,10.259087,-0.20010638
1.2931392,0.08849467,-0.3430308,25.32583,10.433008,-0.9585191
1.2950863,0.22389582,-0.31826895,23.939644,10.642068,-2.007608
1.295307,0.33334774,-0.30612427,22.473326,10.894784,-3.278751
1.291694,0.42067483,-0.30522746,20.94708,11.20132,-4.721449
1.2779808,0.4959544,-0.31531343,19.33761,11.499584,-6.2559843
1.2514957,0.56126404,-0.33937275,17.767967,11.59969,-7.943378
1.2295377,0.63718,-0.36050922,16.114527,11.640282,-9.700962
1.2162002,0.7235036,-0.38079092,14.261982,11.685372,-11.634905
1.1979785,0.7994222,-0.4120964,12.075783,11.624568,-13.733515
1.1667457,0.8439332,-0.46038345,9.543945,11.239337,-15.825257
1.1292608,0.8449469,-0.5247984,6.791761,10.633182,-17.78509
1.0826994,0.7965005,-0.6017722,4.350791,10.019773,-19.656088
1.0370492,0.732113,-0.6760908,2.0911,9.537971,-21.321955
0.99199367,0.6640713,-0.74545026,-0.045421056,9.171833,-22.712608
0.93903637,0.5956748,-0.8211707,-1.9052845,8.72329,-24.006441
0.87616897,0.5257042,-0.9000236,-3.4977093,8.012518,-25.220152
0.80704916,0.44549417,-0.9800849,-4.9448757,6.996264,-26.385246
0.73954993,0.3472345,-1.0533645,-6.2419853,5.590468,-27.441969
0.67616063,0.22821209,-1.114243,-7.420825,3.9363081,-28.282646
0.6181266,0.0850484,-1.164163,-8.51214,2.0743778,-28.789816
0.56674683,-0.082355894,-1.2019757,-9.225747,0.026710384,-28.888084
0.5210512,-0.27924332,-1.2268515,-9.384353,-2.124171,-28.694132
0.47922418,-0.4719651,-1.2309948,-8.9542675,-4.3041997,-27.976261
0.44292602,-0.62437004,-1.207553,-8.43838,-6.44938,-26.776232
0.41990346,-0.74076736,-1.1613293,-8.0975685,-8.432767,-25.222342
0.4046565,-0.84417385,-1.1108719,-7.7369685,-10.223316,-23.603046
0.38194156,-0.97322905,-1.0698069,-6.988493,-11.941881,-22.13248
0.35083935,-1.143418,-1.0399293,-5.6200557,-13.66528,-20.595726
0.32143962,-1.3178,-1.0154692,-3.6514368,-15.439223,-18.700878
0.309605,-1.4482424,-0.9856522,-1.3517952,-17.18195,-16.419237
0.31877747,-1.5151694,-0.94405174,1.1023604,-18.71513,-13.835575
0.34485096,-1.511476,-0.88238436,3.4372098,-20.053083,-11.237968
0.37863356,-1.4732149,-0.81325406,5.4906287,-21.22303,-8.760335
0.4234738,-1.4206007,-0.7371777,7.1781397,-22.199797,-6.3702154
0.47377482,-1.3710157,-0.6579662,8.6734295,-22.928522,-4.1162734
0.5221824,-1.3276109,-0.5834929,10.188416,-23.367516,-1.9789282
0.5659472,-1.2758602,-0.51657295,11.764421,-23.649822,0.07032232
0.6105541,-1.1940519,-0.44950667,13.332866,-23.761326,2.0247345
0.6557274,-1.0695577,-0.37902105,14.682564,-23.675022,3.7539992
0.69751793,-0.91180456,-0.3094045,15.614732,-23.376213,5.1757116
0.732788,-0.74555033,-0.2451216,15.974965,-22.825884,6.2919955
0.75634664,-0.5871887,-0.19342814,16.047838,-22.17476,7.1467
0.7755804,-0.43618938,-0.1481573,15.8995,-21.437424,7.7404838
0.7949604,-0.29662326,-0.108451806,15.443629,-20.589945,8.174806
0.81270474,-0.17695482,-0.07566442,14.845957,-19.590065,8.46422
0.82421917,-0.07490568,-0.05241497,14.1908455,-18.526342,8.521927
0.8325364,0.009329679,-0.037936237,13.470616,-17.398842,8.457955
0.8409053,0.078711025,-0.027058767,12.573119,-16.181032,8.327465
0.8449604,0.13442151,-0.021446265,11.511546,-14.9099655,8.104053
0.8432474,0.18063009,-0.019593462,10.245341,-13.59871,7.7982025
0.832924,0.21302225,-0.023595277,8.701033,-12.288504,7.437241
0.8084636,0.22084343,-0.038067445,7.1288977,-11.093392,7.148416
0.7832713,0.21396181,-0.03688124,6.906757,-10.747716,6.9256673
0.7588657,0.20729508,-0.035732076,6.691552,-10.412832,6.709873
0.73522204,0.20083646,-0.034618784,6.483066,-10.088405,6.500817
0.7123164,0.19457945,-0.033540245,6.281088,-9.774102,6.298285
0.6901256,0.1885177,-0.032495365,6.085413,-9.469609,6.1020746
0.66862714,0.18264511,-0.031483088,5.8958435,-9.174618,5.911986
0.6477995,0.17695573,-0.030502392,5.7121887,-8.888829,5.727828
0.62762153,0.17144383,-0.029552288,5.534262,-8.611956,5.549415
0.6080729,0.16610384,-0.028631818,5.361886,-8.343718,5.3765664
0.5891339,0.16093038,-0.027740054,5.1948853,-8.083844,5.2091084
0.57078546,0.15591826,-0.026876098,5.0330915,-7.8320756,5.046872
0.55300915,0.15106238,-0.026039079,4.8763433,-7.588156,4.889694
0.535787,0.14635792,-0.025228154,4.724481,-7.3518414,4.7374163
0.51910174,0.14180009,-0.024442509,4.577353,-7.1228933,4.5898857
0.50293654,0.13738434,-0.023681352,4.434811,-6.901081,4.4469533
0.48727518,0.13310622,-0.022943918,4.296712,-6.6861825,4.308476
0.4721019,0.12896141,-0.022229467,4.162916,-6.477981,4.174314
0.45740145,0.124945775,-0.021537278,4.03329,-6.276268,4.044333
0.44315907,0.12105526,-0.020866659,3.9077032,-6.08084,3.9184024
0.42936045,0.117285974,-0.020216936,3.7860293,-5.8915014,3.7963953
0.41599175,0.113634124,-0.019587455,3.6681464,-5.708062,3.6781898
0.40303957,0.110096045,-0.018977586,3.553936,-5.5303373,3.5636666
0.39049086,0.10666819,-0.018386716,3.4432838,-5.3581495,3.4527113
0.37833306,0.103347115,-0.017814253,3.3360784,-5.1913257,3.3452125
0.366554,0.100129485,-0.01725962,3.2322123,-5.029698,3.241062
0.35514182,0.09701209,-0.016722266,3.1315815,-4.873105,3.1401558
0.3440851,0.093991786,-0.016201645,3.0340853,-4.7213893,3.0423925
0.33337274,0.09106555,-0.015697243,2.9396255,-4.5743985,2.947674
0.322994,0.08823045,-0.015208548,2.8481076,-4.4319863,2.8559055
0.3129385,0.08548365,-0.014735073,2.75944,-4.294009,2.7669952
0.30319616,0.08282239,-0.014276343,2.6735334,-4.160329,2.6808536
0.29375723,0.080244005,-0.0138318995,2.5903025,-4.0308113,2.5973945
0.2846122,0.07774591,-0.013401296,2.509663,-3.9053276,2.5165346
0.27575195,0.07532561,-0.012984101,2.431535,-3.783751,2.4381926
0.2671676,0.07298067,-0.012579897,2.3558397,-3.6659603,2.36229
0.25885057,0.07070875,-0.01218828,2.2825015,-3.5518374,2.288751
0.2507925,0.068507574,-0.011808856,2.2114468,-3.441268,2.2175016
0.24298532,0.066374935,-0.011441247,2.1426044,-3.3341413,2.1484706
0.23542124,0.064308695,-0.011085083,2.0759056,-3.2303503,2.0815892
0.22809267,0.06230679,-0.010740008,2.0112834,-3.1297905,2.0167902
0.22099228,0.060367215,-0.010405678,1.9486732,-3.032362,1.9540087
0.21411295,0.05848803,-0.010081757,1.8880125,-2.9379668,1.8931818
0.20744781,0.05666735,-0.009767921,1.8292404,-2.8465106,1.8342488
0.20099017,0.054903354,-0.009463856,1.7722981,-2.7579017,1.7771505
0.19473359,0.053194277,-0.009169257,1.7171285,-2.6720514,1.7218299
0.18867178,0.051538408,-0.00888383,1.6636765,-2.5888739,1.6682316
0.1827987,0.04993409,-0.008607289,1.6118886,-2.508286,1.6163019
0.17710845,0.04837972,-0.008339358,1.561713,-2.4302068,1.5659889
0.17159536,0.046873737,-0.008079767,1.5130994,-2.3545585,1.5172423
0.1662539,0.04541464,-0.007828258,1.4659994,-2.2812653,1.4700131
0.16107872,0.044000965,-0.0075845784,1.4203655,-2.2102537,1.4242543
0.15606464,0.0426313,-0.0073484853,1.3761522,-2.1414528,1.37992
0.15120667,0.04130427,-0.0071197418,1.3333154,-2.0747936,1.3369659
0.14649992,0.04001856,-0.006898119,1.2918121,-2.0102096,1.295349
0.1419397,0.038772866,-0.0066833952,1.2516007,-1.9476361,1.2550275
0.13752143,0.037565954,-0.006475356,1.2126411,-1.8870105,1.2159613
0.1332407,0.03639661,-0.006273793,1.1748945,-1.8282722,1.1781112
0.12909323,0.03526367,-0.0060785045,1.1383227,-1.7713624,1.1414394
0.12507486,0.034165997,-0.0058892956,1.1028894,-1.7162241,1.1059091
0.12118159,0.033102494,-0.0057059764,1.0685592,-1.6628023,1.0714849
0.11740952,0.032072097,-0.0055283634,1.0352976,-1.6110435,1.0381323
0.11375486,0.031073773,-0.0053562797,1.0030714,-1.5608958,1.0058179
