ax,ay,az,gx,gy,gz
-0.37818527,-0.4781862,-0.85273504,8.822807,-0.38818532,15.203775
-0.3804793,-0.008777491,-0.96149576,8.777635,-5.5834928,16.829588
-0.23910092,0.33887714,-0.981695,7.163862,-5.9685473,15.316011
-0.1712645,0.43168932,-1.1641513,8.667504,-7.5704346,14.106659
-0.112019956,0.48522103,-1.4198325,9.980094,-9.123556,11.660503
-0.13386132,0.46036097,-1.8239865,11.712261,-12.76507,8.043969
-0.08464021,0.38651946,-2.2117784,13.350876,-16.919136,5.423644
0.048645858,0.28918895,-2.5899343,15.247312,-20.951982,4.005803
0.20776741,0.21260612,-2.9943354,17.66397,-24.710361,3.5554495
0.31037477,0.16364649,-3.4809368,19.912256,-30.133097,2.583966
0.36938307,0.14483786,-4.02082,21.613108,-37.3081,1.3239135
0.42534962,0.14183646,-4.530259,22.064713,-46.429993,-0.55697495
0.558478,0.07442963,-4.9243364,21.240225,-55.92378,-1.378362
0.7594125,-0.043242022,-5.1567373,19.677713,-63.670956,-0.5050857
0.86874855,-0.19005847,-5.347279,17.790388,-70.379776,1.0278713
0.7315561,-0.389881,-5.597127,18.049728,-78.361946,2.1840904
0.5098117,-0.5324385,-5.740241,19.323668,-88.688995,3.356911
0.4187667,-0.5196119,-5.584199,19.699135,-99.9891,5.356336
0.57537,-0.41078827,-5.083344,18.12957,-109.54577,8.129455
0.8532209,-0.30753964,-4.3288713,15.630258,-114.65045,10.454378
1.095607,-0.16860598,-3.4380076,13.875317,-117.32202,11.388163
1.3280627,0.040560067,-2.4428794,13.101398,-118.610504,10.030647
1.6606296,0.17024432,-1.3893616,12.4309635,-117.86752,8.005906
2.0720122,0.2006461,-0.32457253,11.239031,-114.00574,7.2170553
2.4470487,0.17412835,0.644438,9.937227,-105.77252,7.728221
2.6669056,0.096544,1.3575764,9.912388,-95.75048,8.04757
2.7625027,0.030554758,1.8475807,10.9885645,-85.35175,7.9765368
2.7916977,-0.0015470017,2.176425,12.121807,-74.8605,7.85652
2.7850358,-0.009533331,2.3878934,12.861438,-64.34285,8.083315
2.761611,-0.012380709,2.5098681,13.153219,-53.39719,8.07963
2.7348316,-0.05270307,2.5288002,13.48308,-42.20712,7.517521
2.695614,-0.12180523,2.4589858,14.566098,-31.482203,6.9856524
2.6355987,-0.14774641,2.33032,15.6368475,-21.795073,6.669423
2.5775719,-0.13967854,2.179468,15.674878,-13.088576,6.4427137
2.5278406,-0.16213775,2.0136235,15.530727,-4.94078,6.4887834
2.4716856,-0.1929713,1.8079945,15.840658,2.4805691,6.466994
2.4198432,-0.19074087,1.585032,16.908245,8.645062,6.6702514
2.3796747,-0.16074124,1.3571767,17.8525,13.755277,6.6057386
2.340368,-0.112526424,1.1271713,18.117514,17.744366,6.305242
2.3125281,-0.051369257,0.9101108,17.707228,20.818178,5.9831986
2.298968,0.048535503,0.7006209,16.913664,23.432219,5.631779
2.293409,0.17517695,0.49114758,15.680788,25.560513,5.029118
2.2928612,0.32039735,0.2739068,14.378734,27.06507,3.9039981
2.2948766,0.48816478,0.055303972,13.212844,28.022095,2.209889
2.2879157,0.67240393,-0.15499227,11.126794,28.220512,-0.6125824
2.2903857,0.79967874,-0.34615177,8.973384,28.304588,-3.7727532
2.29127,0.89198554,-0.52663046,6.754996,28.418886,-6.798362
2.2620733,0.9718314,-0.71929413,4.7502184,28.141283,-9.791076
2.1903362,1.0271382,-0.9218729,2.7299824,26.915478,-13.346572
2.1019695,1.025574,-1.1120815,0.77911675,24.533669,-17.2749
2.0091193,0.96258575,-1.2727556,-1.2130908,21.629154,-20.578794
1.8959115,0.8387231,-1.4258056,-2.9504468,18.234106,-23.415577
1.7745461,0.6565965,-1.5567347,-3.8652537,14.474693,-25.90389
1.6707816,0.42513484,-1.6453553,-4.0960217,10.647465,-28.010387
1.5815098,0.15361615,-1.7016606,-3.450794,6.4348383,-28.954811
1.5005736,-0.13097519,-1.7200536,-2.5271907,1.9281076,-28.823076
1.4392602,-0.42452532,-1.702525,-1.5228624,-2.7273836,-27.690638
1.4088713,-0.7447972,-1.6360773,-0.16675882,-6.9626403,-25.354929
1.4033217,-1.0570264,-1.5371515,1.8586125,-10.340321,-21.922443
1.401422,-1.3072172,-1.4255195,4.122142,-12.892194,-17.142727
1.4031624,-1.4599744,-1.2918705,6.579455,-14.999216,-11.772245
1.4175416,-1.5221137,-1.1312801,9.0456705,-16.725965,-6.1171494
1.4510703,-1.4811306,-0.9482531,11.252562,-17.919283,-0.8125332
1.4865041,-1.3486685,-0.76477724,12.641255,-18.83916,3.5177085
1.5282823,-1.2019644,-0.5745057,13.727,-19.252209,7.212259
1.5614098,-0.97161496,-0.3981142,14.226939,-18.933872,9.855696
1.5745363,-0.73575395,-0.25117043,14.398878,-18.125593,11.656291
1.561371,-0.5075396,-0.1480587,14.137422,-17.034178,12.769305
1.5263242,-0.29325604,-0.08616263,13.55727,-15.790347,13.482324
1.4694276,-0.09149957,-0.069544375,12.667617,-14.835324,13.424151
1.4131849,0.07688506,-0.07618155,11.834796,-13.985956,12.841256
1.3638322,0.2182202,-0.09216898,10.814196,-13.213292,11.829416
1.3170319,0.3092843,-0.12023433,9.788591,-12.526249,10.6048975
1.272217,0.35488203,-0.163455,8.974851,-12.039917,9.250367
1.2428436,0.36955315,-0.20329277,8.45852,-11.672031,7.8088026
1.2241149,0.35754222,-0.23198542,7.79491,-11.420485,6.5747213
1.2109919,0.33384702,-0.2494678,7.0217247,-11.154005,5.6182194
1.200096,0.30365863,-0.26047546,6.285284,-10.832585,4.8162284
1.1918256,0.27173603,-0.26386836,5.509155,-10.465743,4.094186
1.172189,0.2354237,-0.2659534,4.827444,-10.033782,3.5321243
1.1305983,0.20148098,-0.27279115,4.235037,-9.688825,3.051659
1.0814387,0.17133915,-0.2774568,3.8615527,-9.51254,2.6423938
1.0367222,0.14606725,-0.27143383,3.7112577,-9.491697,2.2674267
1.0035323,0.12506446,-0.25085968,3.9534175,-9.383245,1.8123778
0.9781605,0.103697546,-0.2205762,4.8398275,-8.931182,1.1225941
0.9474453,0.100441344,-0.2136499,4.6878524,-8.650734,1.0873436
0.9177106,0.09728908,-0.20694469,4.540728,-8.379238,1.0532182
0.8889236,0.09423729,-0.20045319,4.3982935,-8.116396,1.0201807
0.8610528,0.09128263,-0.1941683,4.260392,-7.8619194,0.9881945
0.8340679,0.08842188,-0.18808317,4.1268735,-7.615531,0.957225
0.8079395,0.08565194,-0.1821912,3.9975934,-7.376964,0.9272386
0.7826396,0.08296983,-0.17648605,3.8724124,-7.145961,0.89820296
0.758141,0.080372654,-0.17096157,3.7511957,-6.9222736,0.87008685
0.7344174,0.07785765,-0.16561188,3.633814,-6.705663,0.8428603
0.71144354,0.07542214,-0.16043127,3.5201423,-6.495899,0.8164942
0.6891952,0.07306352,-0.15541424,3.41006,-6.2927585,0.79096067
0.66764873,0.07077932,-0.15055549,3.3034506,-6.0960264,0.7662327
0.6467815,0.06856713,-0.1458499,3.2002017,-5.905496,0.74228424
0.62657154,0.066424616,-0.14129253,3.1002052,-5.7209673,0.7190901
0.6069977,0.06434954,-0.13687861,3.0033562,-5.542247,0.69662607
0.5880396,0.06233973,-0.13260353,2.9095533,-5.369148,0.6748686
0.56967735,0.0603931,-0.12846284,2.8186991,-5.20149,0.653795
0.551892,0.058507625,-0.12445222,2.7306993,-5.039099,0.6333835
0.53466505,0.05668135,-0.12056752,2.6454623,-4.8818073,0.6136129
0.5179787,0.054912385,-0.11680474,2.5629003,-4.729451,0.59446263
0.5018158,0.053198904,-0.11315998,2.4829278,-4.581874,0.57591313
0.48615953,0.05153914,-0.10962948,2.4054625,-4.4389234,0.5579451
0.47099394,0.049931392,-0.10620962,2.3304248,-4.300452,0.54054016
0.45630336,0.048374005,-0.102896884,2.2577374,-4.166319,0.5236804
0.4420728,0.04686538,-0.099687874,2.1873262,-4.036385,0.5073486
0.42828766,0.04540398,-0.09657931,2.119119,-3.9105186,0.49152794
0.41493386,0.043988306,-0.09356801,2.0530457,-3.7885907,0.47620234
0.40199777,0.042616915,-0.090650916,1.9890395,-3.6704764,0.46135613
0.3894662,0.04128841,-0.08782503,1.9270347,-3.556056,0.44697416
0.3773264,0.040001433,-0.08508749,1.8669683,-3.4452124,0.4330418
0.365566,0.03875468,-0.08243551,1.8087792,-3.337833,0.41954488
0.35417306,0.03754688,-0.07986639,1.7524083,-3.2338088,0.4064697
0.343136,0.036376815,-0.07737753,1.6977983,-3.133034,0.39380294
0.33244368,0.03524329,-0.07496639,1.6448938,-3.0354068,0.3815318
0.32208523,0.03414516,-0.072630554,1.5936413,-2.9408278,0.3696438
0.31205013,0.033081315,-0.07036763,1.5439888,-2.8492017,0.35812697
0.3023283,0.032050673,-0.068175346,1.4958862,-2.7604356,0.3469696
0.29290986,0.031052198,-0.066051476,1.4492848,-2.6744394,0.33616045
0.28378528,0.030084878,-0.06399388,1.4041375,-2.591127,0.32568857
0.2749454,0.029147737,-0.062000472,1.3603988,-2.5104136,0.3155434
0.26638126,0.028239828,-0.06006925,1.3180244,-2.4322178,0.3057147
0.25808424,0.027360238,-0.058198266,1.2769717,-2.3564613,0.29619256
0.25004598,0.026508078,-0.056385625,1.2371992,-2.2830672,0.28696737
0.24225837,0.02568249,-0.054629512,1.198667,-2.2119615,0.27802986
0.23471355,0.024882644,-0.05292815,1.1613362,-2.143073,0.269371
0.22740397,0.024107736,-0.05127983,1.1251692,-2.0763323,0.2609821
0.22032224,0.023356982,-0.049682893,1.0901296,-2.011672,0.25285468
0.21346125,0.022629628,-0.04813573,1.0561821,-1.9490271,0.2449806
0.2068141,0.021924945,-0.046636794,1.0232928,-1.8883346,0.23735194
0.20037411,0.021242224,-0.045184568,0.99142843,-1.8295337,0.22996104
0.1941348,0.020580776,-0.043777596,0.96055704,-1.7725651,0.22280043
0.1880899,0.01993994,-0.042414468,0.9306476,-1.7173717,0.21586297
0.18223336,0.019319072,-0.041093815,0.9016701,-1.6638981,0.20914166
0.1765593,0.018717548,-0.039814305,0.8735955,-1.6120905,0.20262976
0.17106201,0.018134763,-0.03857466,0.84639543,-1.5618969,0.19632074
0.16573596,0.017570136,-0.03737363,0.8200428,-1.5132669,0.19020827
0.16057582,0.017023096,-0.036210015,0.7945111,-1.466152,0.1842862
0.15557644,0.016493095,-0.035082646,0.7697746,-1.4205046,0.1785486
0.15073277,0.015979605,-0.033990394,0.7458087,-1.376279,0.17298973
0.14603996,0.015482107,-0.032932162,0.72258925,-1.3334309,0.167604
0.14149332,0.015000105,-0.031906888,0.700093,-1.2919173,0.162386
0.13708828,0.014533115,-0.030913549,0.6782973,-1.2516968,0.15733051
0.13282043,0.014080667,-0.029951144,0.6571805,-1.2127287,0.15243249
0.12868549,0.013642311,-0.02901871,0.63672125,-1.1749743,0.14768699
0.12467931,0.013217605,-0.028115314,0.61689913,-1.1383957,0.14308926
0.120797895,0.012806125,-0.027240051,0.59769434,-1.1029559,0.13863473
0.11703735,0.012407458,-0.026392043,0.57908756,-1.06862,0.1343189
0.113393895,0.012021206,-0.025570441,0.5610602,-1.0353531,0.13013746
0.10986389,0.01164698,-0.024774421,0.5435941,-1.0031221,0.12608622
0.10644381,0.011284408,-0.024003189,0.52667195,-0.9718947,0.122161135
0.103130214,0.010933124,-0.02325597,0.5102766,-0.9416396,0.118358254
0.09991979,0.010592778,-0.022532016,0.49439183,-0.9123266,0.11467379
0.09680933,0.0102630295,-0.021830603,0.4790016,-0.8839262,0.11110404
0.09379571,0.009943547,-0.021151029,0.46409056,-0.8564101,0.10764544
0.090875916,0.009634011,-0.020492613,0.44964376,-0.82975066,0.10429451
0.08804703,0.009334113,-0.019854696,0.43564674,-0.8039213,0.10104792
0.08530622,0.009043552,-0.019236641,0.42208552,-0.77889603,0.0979024
0.082650736,0.008762037,-0.018637827,0.4089465,-0.75464994,0.09485481
0.080077924,0.0084892865,-0.018057656,0.39621654,-0.7311587,0.09190211
0.07758521,0.008225027,-0.017495546,0.38388288,-0.7083987,0.08904132
0.07517011,0.007968995,-0.016950937,0.3719332,-0.68634737,0.0862696
0.072830185,0.007720933,-0.016423281,0.36035553,-0.6649825,0.083584175
0.07056311,0.0074805934,-0.015912054,0.3491383,-0.64428276,0.08098234
0.06836661,0.0072477367,-0.01541674,0.33827025,-0.6242274,0.07846151
0.066238485,0.0070221284,-0.014936847,0.32774055,-0.6047964,0.07601916
0.06417661,0.006803544,-0.014471893,0.31753865,-0.58597034,0.07365283
0.062178932,0.0065917633,-0.014021413,0.30765432,-0.5677303,0.07136017
0.060243435,0.006386576,-0.0135849565,0.2980777,-0.55005807,0.069138885
0.05836819,0.006187776,-0.013162088,0.28879923,-0.532936,0.06698675
0.056551322,0.005995165,-0.012752382,0.27980956,-0.51634693,0.064901605
0.054791015,0.0058085495,-0.01235543,0.27109975,-0.50027424,0.062881365
0.053085502,0.0056277434,-0.011970835,0.26266107,-0.4847019,0.060924023
0.05143308,0.0054525654,-0.011598213,0.25448507,-0.46961433,0.05902761
0.0498321,0.0052828407,-0.011237189,0.24656358,-0.4549964,0.057190225
0.04828095,0.0051183994,-0.010887404,0.2388887,-0.44083354,0.05541004
