ax,ay,az,gx,gy,gz
-0.6654606,0.5918236,-0.7136429,14.92559,-31.128466,16.36833
-0.049645815,0.5995311,-0.122993976,8.046555,-25.37014,16.886568
0.3451485,0.42420354,0.122287005,4.5190196,-18.118252,19.319178
0.4596821,0.24764742,0.035065226,6.5205617,-12.8310795,20.22272
0.32932433,0.13465959,-0.2881379,9.581485,-11.588024,17.25625
0.15054157,0.085399926,-0.64110506,9.995791,-14.761124,13.3398905
0.103792466,0.00084830495,-0.9286855,9.509977,-18.081512,11.366274
0.1676567,-0.105697125,-1.1764121,8.8748665,-20.1582,11.073062
0.2816945,-0.20893757,-1.4561921,8.926934,-21.08265,10.960404
0.36851934,-0.29634887,-1.8280002,10.753276,-22.2054,10.173413
0.39794588,-0.35619906,-2.2868214,14.259189,-25.519808,8.746263
0.4333595,-0.38366476,-2.7819588,16.664225,-30.404192,8.150491
0.4588236,-0.39892328,-3.2490118,17.084919,-36.50989,7.9619
0.49584785,-0.48751518,-3.63879,17.46562,-43.368492,7.762814
0.5883277,-0.5619913,-3.8943672,18.535051,-49.95497,7.636849
0.7109311,-0.5759068,-4.0314183,19.606163,-56.59233,7.289253
0.8300238,-0.58977354,-4.044362,18.933905,-63.642746,7.74162
0.88037336,-0.63467854,-4.0303874,17.12625,-70.39368,9.367677
0.82616097,-0.7381998,-4.0242085,15.504055,-77.38692,11.025073
0.73494136,-0.82354164,-3.9740448,15.122641,-84.71121,12.238477
0.69415975,-0.82018095,-3.809345,14.903637,-92.08433,12.922227
0.68496615,-0.7912664,-3.505122,14.538837,-99.167534,13.86384
0.7481662,-0.736394,-3.0617225,13.918818,-105.01863,15.399598
0.8542161,-0.64781445,-2.5020072,13.04112,-109.60697,17.528673
0.976312,-0.50534236,-1.8572183,12.30464,-112.83793,19.21998
1.1626981,-0.23756331,-1.1306199,12.015617,-113.99635,19.482206
1.4262105,0.073689595,-0.28552276,11.908831,-112.565285,18.69841
1.7342582,0.3597593,0.55453956,11.972993,-108.302414,16.7235
2.0587335,0.5731943,1.3293651,12.308977,-101.17567,13.869031
2.3583946,0.6851117,1.9657471,12.946094,-91.715096,10.939593
2.5738602,0.72333306,2.4065366,13.658633,-81.15495,8.080117
2.6624868,0.6851531,2.631444,14.188135,-70.09944,5.6826296
2.689041,0.60642636,2.7476861,14.450826,-59.284523,3.9725215
2.7033825,0.50785947,2.7938411,14.468249,-48.415344,3.0824373
2.6885326,0.41101,2.7581966,14.9777565,-37.866882,2.7470398
2.624038,0.326538,2.6364043,16.658005,-28.522451,1.8211068
2.5354567,0.2606311,2.4691763,18.391857,-20.167286,0.79649514
2.460547,0.21654652,2.290721,19.289787,-12.545582,0.50669795
2.396671,0.18925461,2.086526,19.434025,-5.4509234,0.69997615
2.3064022,0.1403569,1.8249519,20.06917,0.8612718,0.5293247
2.1714492,0.10927953,1.5229261,21.37999,5.3359184,-0.21243225
2.0640352,0.11325119,1.238292,22.10186,8.382628,-0.89009255
2.0367596,0.124870345,1.0081023,21.975733,10.969021,-0.85844094
2.0607872,0.17718098,0.804941,21.194185,13.695002,-0.33088556
2.0854702,0.28203744,0.57915205,19.9311,16.048393,-0.56711084
2.1059563,0.37332413,0.3461834,19.107002,17.395355,-2.4902015
2.1597683,0.47240826,0.1522319,17.956656,18.448702,-4.6057467
2.2291265,0.5910991,-0.02351819,15.929835,19.509476,-6.522319
2.2966971,0.7132218,-0.19451794,13.316166,20.656837,-8.443322
2.3418005,0.83228695,-0.3662268,10.56769,21.763046,-10.787232
2.3551295,0.94509506,-0.54284894,7.627794,22.453543,-14.058805
2.3090112,1.0381587,-0.7329144,4.440472,22.396437,-17.747353
2.2473748,1.0952462,-0.90920687,1.1887362,21.976526,-21.342587
2.1684964,1.116127,-1.0844611,-1.8900167,21.135895,-24.827066
2.0684345,1.0942254,-1.26095,-4.672275,19.766434,-28.471106
1.9463149,0.9951148,-1.4431193,-6.7337637,17.327486,-32.220688
1.8011247,0.77594376,-1.6265056,-8.081823,14.242883,-35.333794
1.6308985,0.53362304,-1.8158178,-9.353187,10.37959,-37.578316
1.4552051,0.2713645,-1.9866201,-10.590962,5.7733645,-39.19208
1.3102169,-0.069000624,-2.1079986,-11.092911,0.5872733,-40.02086
1.2224426,-0.45657924,-2.1630886,-10.139786,-4.85014,-39.279976
1.205614,-0.8045424,-2.1277401,-8.611018,-10.267263,-37.188747
1.2478341,-1.103759,-2.019838,-6.7172036,-15.29881,-33.90584
1.3443131,-1.341888,-1.8399224,-4.3731956,-19.621237,-30.010141
1.4824272,-1.5176275,-1.5996795,-1.7443894,-22.870317,-25.969336
1.6227303,-1.6365393,-1.3262808,0.66727257,-24.740534,-21.196308
1.7492324,-1.6316187,-1.0197006,2.5373933,-25.404903,-15.926132
1.846189,-1.5596837,-0.73112136,4.0085087,-24.967081,-10.611372
1.9039892,-1.4459976,-0.4918444,5.7284036,-23.957226,-5.861221
1.9253538,-1.2578331,-0.3004005,7.155265,-22.700907,-2.2411914
1.9301821,-1.0634567,-0.136795,8.126497,-21.033653,0.5800096
1.9295087,-0.8426534,-0.004499977,8.652126,-18.957918,3.2163744
1.9091063,-0.59145683,0.07404407,8.222329,-16.76472,5.0891943
1.8667629,-0.3864974,0.102649964,7.804754,-14.66311,5.980835
1.8170344,-0.21706231,0.09334742,7.518827,-12.796801,6.3134065
1.7636167,-0.056051172,0.058305543,6.583631,-11.317946,6.333804
1.705303,0.060696837,-0.00404473,5.4705844,-10.142043,6.1200757
1.6455387,0.13584208,-0.07886315,4.6269875,-9.29739,5.608715
1.5874294,0.18892212,-0.1577543,4.0014153,-8.722829,5.004167
1.5268184,0.22959614,-0.23651983,3.2556307,-8.542113,4.444218
1.4707162,0.25235444,-0.29812446,2.626201,-8.528752,3.986937
1.4159808,0.2593319,-0.3438615,2.2937305,-8.633023,3.4310274
1.3685733,0.25674188,-0.3765513,2.2964444,-8.858738,2.704837
1.3320242,0.25678143,-0.39102694,2.2683878,-9.161653,1.9923598
1.3059458,0.24871363,-0.38851258,2.1300063,-9.412669,1.3717297
1.2870127,0.22843759,-0.37317282,2.0554602,-9.372016,0.71536374
1.2789152,0.21031523,-0.34209713,1.9085683,-9.024248,-0.080956414
1.2387978,0.203718,-0.33136615,1.8486998,-8.741173,-0.07841695
1.1999573,0.19733076,-0.32097667,1.7907368,-8.467108,-0.07595832
1.1623513,0.19114651,-0.31091744,1.734616,-8.201753,-0.07357782
1.125939,0.18515858,-0.30117753,1.6802768,-7.9448214,-0.071272895
1.0906812,0.17936051,-0.2917464,1.6276604,-7.6960363,-0.06904104
1.05654,0.17374605,-0.282614,1.5767103,-7.45513,-0.06687988
1.023479,0.16830923,-0.27377048,1.5273722,-7.221846,-0.06478709
0.9914629,0.16304423,-0.2652065,1.4795935,-6.9959345,-0.06276044
0.96045774,0.1579455,-0.25691292,1.4333235,-6.777157,-0.06079779
0.9304307,0.15300761,-0.248881,1.3885132,-6.565281,-0.058897056
0.90135026,0.14822538,-0.24110226,1.3451154,-6.3600845,-0.057056237
0.8731858,0.14359379,-0.23356855,1.3030847,-6.161351,-0.055273406
0.84590787,0.13910799,-0.22627197,1.2623769,-5.968873,-0.053546686
0.8194879,0.13476327,-0.2192049,1.2229495,-5.7824492,-0.05187428
0.79389846,0.13055514,-0.21235996,1.1847615,-5.601886,-0.050254446
0.7691129,0.1264792,-0.20573008,1.1477731,-5.4269943,-0.048685502
0.74510556,0.12253123,-0.19930835,1.1119462,-5.2575946,-0.047165815
0.7218516,0.11870716,-0.19308816,1.0772436,-5.0935106,-0.045693822
0.699327,0.115003034,-0.18706305,1.0436293,-4.934573,-0.044267993
0.6775086,0.111415036,-0.18122683,1.0110689,-4.7806187,-0.04288687
0.6563739,0.107939474,-0.17557351,0.97952896,-4.6314883,-0.041549027
0.6359013,0.10457278,-0.17009728,0.94897693,-4.48703,-0.040253088
0.6160696,0.10131151,-0.16479252,0.9193815,-4.3470945,-0.038997732
0.59685874,0.09815232,-0.1596538,0.8907125,-4.2115393,-0.037781667
0.578249,0.095091976,-0.15467587,0.8629405,-4.0802255,-0.036603652
0.5602213,0.09212736,-0.14985366,0.8360372,-3.9530191,-0.035462487
0.5427574,0.08925545,-0.14518224,0.8099752,-3.8297908,-0.034357008
0.52583945,0.08647332,-0.14065684,0.784728,-3.7104146,-0.033286083
0.50945026,0.08377815,-0.13627289,0.7602698,-3.5947697,-0.032248635
0.49357313,0.08116719,-0.13202593,0.73657584,-3.482738,-0.0312436
0.478192,0.078637786,-0.12791163,0.7136221,-3.3742058,-0.03026996
0.46329123,0.07618739,-0.12392581,0.69138515,-3.2690635,-0.02932673
0.44885576,0.0738135,-0.12006447,0.6698426,-3.1672044,-0.028412951
0.43487093,0.07151372,-0.116323665,0.6489726,-3.068525,-0.027527701
0.42132264,0.06928573,-0.11269963,0.628754,-2.972926,-0.026670082
0.40819716,0.067127265,-0.1091887,0.6091664,-2.88031,-0.025839226
0.39548123,0.065036155,-0.105787314,0.59019,-2.7905843,-0.0250343
0.38316202,0.06301028,-0.10249204,0.57180566,-2.7036579,-0.024254482
0.37122712,0.06104761,-0.09929957,0.5539948,-2.619443,-0.023498992
0.35966444,0.05914615,-0.09620667,0.5367394,-2.537855,-0.022767065
0.34846234,0.05730399,-0.09321023,0.52002215,-2.458811,-0.022057964
0.3376096,0.05551927,-0.09030722,0.5038262,-2.382232,-0.021370973
0.3270952,0.0537902,-0.08749472,0.48813522,-2.3080406,-0.020705404
0.3169086,0.052115034,-0.08476991,0.47293344,-2.2361622,-0.020060584
0.30703956,0.05049209,-0.082130045,0.45820552,-2.1665246,-0.019435866
0.29747814,0.04891973,-0.079572454,0.44393668,-2.0990574,-0.01883062
0.2882147,0.047396377,-0.07709458,0.43011254,-2.033693,-0.018244237
0.27923998,0.0459205,-0.074693926,0.41671926,-1.9703659,-0.017676128
0.27054492,0.044490613,-0.072368085,0.40374333,-1.9090121,-0.017125724
0.2621208,0.043105282,-0.07011472,0.39117172,-1.84957,-0.01659247
0.25395918,0.041763116,-0.06793156,0.37899184,-1.7919801,-0.01607583
0.24605183,0.040462766,-0.065816425,0.36719146,-1.7361845,-0.01557529
0.23839083,0.039202932,-0.06376719,0.3557587,-1.6821271,-0.015090343
0.23096849,0.03798234,-0.061781783,0.3446821,-1.6297538,-0.0146205025
0.22377737,0.036799774,-0.05985823,0.33395052,-1.579012,-0.014165298
0.21681026,0.035654046,-0.057994593,0.32355326,-1.5298508,-0.013724273
0.21006015,0.034544002,-0.056189008,0.31347987,-1.482221,-0.013296986
0.20352028,0.033468533,-0.05443966,0.3037202,-1.4360746,-0.0128830075
0.19718412,0.032426562,-0.0527448,0.29426453,-1.3913654,-0.012481922
0.19104528,0.031417042,-0.05110272,0.28510332,-1.3480488,-0.012093329
0.18509763,0.030438963,-0.049511783,0.27622744,-1.306081,-0.011716838
0.1793352,0.029491343,-0.04797039,0.26762798,-1.2654204,-0.011352072
0.17375223,0.028573234,-0.046477,0.25929633,-1.226026,-0.010998664
0.16834313,0.027683714,-0.045030117,0.25122413,-1.1878583,-0.010656263
0.16310245,0.026821895,-0.043628287,0.24340329,-1.1508793,-0.010324523
0.15802495,0.025986912,-0.04227011,0.23582597,-1.1150515,-0.010003114
0.15310557,0.025177928,-0.04095422,0.22848462,-1.0803396,-0.009691712
0.14833936,0.024394132,-0.039679307,0.22137184,-1.0467083,-0.009390008
0.14372155,0.023634743,-0.03844409,0.21448053,-1.0141243,-0.009097696
0.13924754,0.022899,-0.037247337,0.2078038,-0.98255485,-0.008814488
0.13491282,0.022186162,-0.03608784,0.20133495,-0.9519683,-0.008540096
0.13071306,0.02149552,-0.034964446,0.19506751,-0.9223341,-0.008274248
0.12664406,0.02082638,-0.033876028,0.1889952,-0.89362246,-0.008016677
0.122701734,0.020178074,-0.0328215,0.18311195,-0.8658048,-0.007767124
0.11888216,0.019549951,-0.0317998,0.17741187,-0.8388532,-0.0075253416
0.1151815,0.018941384,-0.03080991,0.17188925,-0.8127407,-0.007291087
0.11159605,0.018351763,-0.029850837,0.16653855,-0.78744113,-0.0070641246
0.10812222,0.0177805,-0.028921623,0.16135444,-0.7629292,-0.0068442286
0.10475654,0.01722702,-0.028021337,0.15633173,-0.7391804,-0.0066311783
0.101495646,0.01669077,-0.02714908,0.15146539,-0.7161709,-0.0064247604
0.098336264,0.016171217,-0.026303975,0.14675052,-0.69387776,-0.006224769
0.09527523,0.015667835,-0.02548518,0.14218245,-0.67227864,-0.0060310033
0.0923095,0.015180127,-0.024691876,0.13775659,-0.65135187,-0.0058432696
0.08943609,0.0147076,-0.023923269,0.1334685,-0.63107663,-0.0056613805
0.08665213,0.014249782,-0.023178587,0.1293139,-0.6114325,-0.0054851538
0.08395483,0.013806217,-0.022457087,0.12528864,-0.59239995,-0.0053144125
0.08134151,0.01337646,-0.021758048,0.12138868,-0.5739598,-0.005148987
0.07880954,0.012960082,-0.02108077,0.117610134,-0.5560938,-0.0049887104
0.07635638,0.012556666,-0.020424575,0.1139492,-0.5387839,-0.0048334235
0.07397959,0.012165806,-0.019788807,0.11040224,-0.5220128,-0.0046829707
0.07167678,0.011787115,-0.01917283,0.10696569,-0.5057639,-0.0045372015
0.06944567,0.011420212,-0.018576028,0.103636116,-0.49002072,-0.0043959697
0.067284,0.01106473,-0.017997803,0.100410186,-0.47476763,-0.0042591346
