ax,ay,az,gx,gy,gz
1.0791007,-0.051818654,-5.8945994,-25.523869,-9.432814,-25.246593
0.73599654,-0.5174133,-6.6928725,-29.444302,-21.078709,-24.559246
0.39441127,-1.0569669,-7.3334284,-23.163797,-31.880623,-23.190882
0.11522989,-1.3336076,-7.890506,-9.917551,-46.14517,-23.62471
0.0074544437,-1.5000155,-8.418402,1.8541415,-60.4393,-24.213928
-0.047563408,-1.62231,-8.862511,9.9409485,-74.26477,-23.580444
-0.1124239,-1.7261713,-9.256508,16.10977,-88.27477,-23.00248
-0.17520346,-1.7534192,-9.581541,20.48975,-103.81197,-24.368782
-0.19957687,-1.7515732,-9.741686,21.905325,-120.87161,-27.468596
-0.07543975,-1.7408184,-9.550711,22.223026,-136.03427,-28.40717
0.14986105,-1.6244278,-9.114209,20.54295,-147.93402,-25.859993
0.3290716,-1.4036665,-8.549543,17.75297,-157.58972,-22.338482
0.44153935,-1.1783454,-7.86071,16.564665,-166.61264,-20.205215
0.6002032,-0.9871086,-7.004374,17.126461,-174.811,-18.935791
0.9945257,-0.71973234,-5.8001285,16.407602,-179.47928,-15.987681
1.4408387,-0.37067276,-4.510313,14.052326,-180.51807,-12.30078
1.9005439,-0.06537467,-3.2323027,12.37108,-178.67624,-10.897739
2.4119678,0.12871167,-1.9656233,12.046403,-173.97229,-11.528841
2.9491725,0.278813,-0.7483571,12.006128,-164.62625,-11.4335375
3.4133048,0.44210988,0.30167222,11.162688,-152.32347,-10.424557
3.7444026,0.5800952,1.1085191,10.585807,-137.79213,-10.025115
3.9397125,0.6500439,1.6812512,11.525159,-122.40947,-10.841513
4.01031,0.6459725,2.0398314,12.997501,-106.80372,-11.912795
4.006542,0.5883633,2.2351892,13.131512,-91.165344,-11.219139
3.978134,0.5117277,2.2882018,12.321332,-75.997635,-9.39479
3.923532,0.42783925,2.2329507,12.865335,-61.5077,-7.7809744
3.840388,0.3443662,2.095125,14.954578,-48.009075,-6.9744043
3.7297063,0.26118657,1.9119837,17.868488,-35.74479,-6.460709
3.6362703,0.19636737,1.7138474,20.253088,-24.270077,-5.207347
3.5767088,0.17735997,1.4813509,21.649706,-13.181591,-3.6377995
3.5237098,0.15634769,1.2083292,23.364254,-2.4816506,-2.058947
3.4305842,0.14473715,0.89960766,25.23232,6.1550016,-0.98178685
3.3427155,0.19793515,0.5792179,25.727203,12.115479,-0.6689138
3.277355,0.31607172,0.26980692,24.160284,16.226902,-1.4602733
3.2463508,0.46713775,-0.021099832,21.065033,19.74716,-2.6835318
3.2259185,0.607612,-0.30661386,17.531704,22.970291,-4.2759066
3.1831825,0.7687121,-0.60451734,13.976074,25.591938,-6.6211987
3.1198308,0.94956356,-0.90238625,9.9867,27.518665,-9.970837
3.0407934,1.1234831,-1.1988133,5.6097116,28.42341,-14.810242
2.933444,1.212247,-1.4881283,1.2802286,28.524536,-20.028969
2.8057668,1.242506,-1.7531853,-2.6333208,28.070751,-24.879187
2.6537895,1.2429184,-2.0044193,-6.2126656,26.890854,-29.234715
2.4704146,1.2026318,-2.255244,-9.425338,24.688812,-33.41714
2.2580366,1.1079085,-2.4945102,-11.762309,20.586761,-37.824844
2.0718305,0.91001636,-2.6745021,-13.47409,15.268903,-41.589584
1.9432964,0.6730215,-2.776128,-14.778979,9.594977,-44.017227
1.8463309,0.41245976,-2.8228583,-15.768829,3.7358592,-45.464165
1.7813594,0.11751686,-2.812368,-16.082077,-2.2683847,-46.1259
1.7553673,-0.21328446,-2.7445416,-15.132137,-7.8762155,-45.437675
1.7687131,-0.5894116,-2.6279595,-13.232597,-12.677055,-43.499805
1.7792795,-0.94943655,-2.4889708,-10.278977,-16.893572,-40.10587
1.7937688,-1.2305689,-2.3238478,-6.7302227,-20.374311,-35.609333
1.8016272,-1.4172626,-2.1568503,-3.083923,-23.392439,-30.380432
1.8036021,-1.504136,-1.9937352,0.3522436,-25.911375,-24.814138
1.8218355,-1.4841224,-1.8099186,3.39776,-27.829123,-19.256706
1.8488691,-1.3994697,-1.6189753,6.226416,-29.007565,-14.262384
1.8703791,-1.2713081,-1.4321331,9.032237,-29.538908,-9.839533
1.8964211,-1.0922598,-1.2539427,11.796685,-29.320938,-5.890517
1.9206154,-0.86428344,-1.0911851,13.901789,-28.380972,-2.8028064
1.9370772,-0.5580573,-0.9541778,15.061322,-27.23187,-0.72343
1.9402255,-0.26574734,-0.8463958,15.166879,-26.135176,0.51935613
1.9271295,-0.020862516,-0.76503277,14.580585,-25.134214,1.2519501
1.9075406,0.18874884,-0.7082809,13.515616,-24.06745,1.4994768
1.8782779,0.35316852,-0.6780271,12.152874,-22.93129,1.1795377
1.8418477,0.43926147,-0.67744714,10.919412,-21.76538,0.71151316
1.8023584,0.49554032,-0.69502854,9.820176,-20.604013,0.12621218
1.7553325,0.52491105,-0.72428745,8.670224,-19.613121,-0.55462253
1.7037847,0.5281769,-0.7545415,7.482975,-18.811909,-1.1343715
1.6475502,0.5137676,-0.78377867,6.1777368,-18.191628,-1.4490044
1.5980761,0.46167186,-0.79921895,5.0835466,-17.395521,-1.3424702
1.5471938,0.44697234,-0.773772,4.9216876,-16.84165,-1.2997262
1.4979998,0.43276057,-0.74916947,4.7651997,-16.30616,-1.2584007
1.450432,0.4190186,-0.7253802,4.6138844,-15.788371,-1.2184411
1.404431,0.40572926,-0.70237446,4.467553,-15.287637,-1.1797978
1.3599399,0.39287615,-0.6801239,4.3260255,-14.803339,-1.1424229
1.3169048,0.38044363,-0.65860146,4.189129,-14.334889,-1.1062711
1.2752737,0.36841673,-0.6377812,4.0566983,-13.881722,-1.0712987
1.2349969,0.35678107,-0.61763823,3.9285762,-13.443297,-1.037464
1.1960269,0.34552294,-0.5981488,3.8046112,-13.019097,-1.0047271
1.1583182,0.33462918,-0.5792902,3.684658,-12.608627,-0.9730497
1.121827,0.32408714,-0.56104046,3.568578,-12.2114105,-0.94239515
1.0865115,0.31388476,-0.5433787,3.456238,-11.826991,-0.91272825
1.0523313,0.3040104,-0.5262848,3.3475096,-11.45493,-0.8840151
1.019248,0.29445288,-0.5097394,3.2422702,-11.094809,-0.85622334
0.98722434,0.2852015,-0.4937239,3.1404016,-10.746222,-0.8293217
0.9562245,0.2762459,-0.4782205,3.0417898,-10.40878,-0.8032802
0.9262143,0.26757616,-0.46321198,2.946326,-10.082109,-0.77807
0.89716053,0.25918275,-0.44868183,2.853905,-9.765851,-0.75366324
0.8690315,0.2510565,-0.43461412,2.7644253,-9.459659,-0.73003334
0.8417965,0.24318852,-0.42099354,2.6777897,-9.1631975,-0.70715445
0.81542605,0.2355703,-0.40780532,2.593904,-8.876148,-0.6850019
0.7898917,0.22819361,-0.39503527,2.5126784,-8.598199,-0.6635516
0.76516604,0.22105056,-0.38266963,2.434025,-8.329053,-0.6427808
0.7412226,0.2141335,-0.3706952,2.3578598,-8.068422,-0.622667
0.71803594,0.20743504,-0.35909927,2.2841022,-7.8160286,-0.60318893
0.69558144,0.2009481,-0.34786946,2.2126734,-7.5716047,-0.5843259
0.67383534,0.19466582,-0.33699393,2.1434982,-7.3348923,-0.56605804
0.6527747,0.18858157,-0.32646126,2.0765035,-7.1056414,-0.548366
0.6323775,0.18268898,-0.31626034,2.011619,-6.8836117,-0.5312312
0.61262226,0.17698185,-0.30638048,1.948777,-6.6685705,-0.51463574
0.59348845,0.17145424,-0.2968114,1.8879114,-6.4602933,-0.49856234
0.5749561,0.16610038,-0.28754315,1.8289592,-6.258563,-0.48299414
0.55700594,0.16091472,-0.27856603,1.771859,-6.0631704,-0.46791506
0.5396194,0.15589188,-0.2698708,1.7165517,-5.873913,-0.4533094
0.52277845,0.15102665,-0.26144838,1.6629798,-5.690594,-0.43916208
0.50646573,0.14631404,-0.25329018,1.6110884,-5.5130253,-0.42545852
0.4906644,0.14174916,-0.24538773,1.5608238,-5.3410234,-0.41218457
0.47535825,0.13732733,-0.23773293,1.5121343,-5.174412,-0.3993266
0.46053156,0.13304402,-0.23031792,1.46497,-5.013019,-0.38687137
0.44616914,0.12889482,-0.22313507,1.4192826,-4.85668,-0.37480614
0.43225625,0.1248755,-0.21617706,1.3750252,-4.705234,-0.3631186
0.41877872,0.12098194,-0.20943676,1.3321525,-4.5585275,-0.35179672
0.40572277,0.11721017,-0.20290731,1.2906209,-4.4164095,-0.340829
0.39307508,0.113556355,-0.19658203,1.2503881,-4.2787356,-0.33020428
0.38082278,0.110016756,-0.1904545,1.211413,-4.1453657,-0.31991166
0.3689534,0.10658779,-0.18451846,1.1736561,-4.0161643,-0.30994076
0.3574549,0.103265956,-0.1787679,1.1370789,-3.8909998,-0.3002814
0.3463156,0.1000479,-0.173197,1.1016443,-3.769745,-0.29092377
0.33552417,0.09693035,-0.16780007,1.0673163,-3.6522775,-0.2818584
0.32506973,0.093910135,-0.16257167,1.0340604,-3.538478,-0.27307612
0.31494167,0.09098422,-0.15750648,1.0018425,-3.428231,-0.264568
0.30512974,0.08814962,-0.15259941,0.97063035,-3.3214252,-0.25632542
0.29562402,0.085403495,-0.14784548,0.94039226,-3.2179527,-0.24834011
0.2864149,0.082743056,-0.14323987,0.9110977,-3.117709,-0.24060397
0.2774931,0.08016562,-0.13877796,0.8827171,-3.0205925,-0.23310918
0.2688496,0.07766858,-0.13445523,0.85522175,-2.9265056,-0.22584817
0.2604757,0.07524942,-0.13026734,0.828584,-2.8353534,-0.21881364
0.25236297,0.07290571,-0.12621005,0.80277705,-2.7470436,-0.21199849
0.24450319,0.07063508,-0.122279264,0.77777475,-2.6614876,-0.20539586
0.23688847,0.06843525,-0.11847105,0.753552,-2.5785992,-0.19899909
0.22951114,0.066304,-0.11478155,0.7300845,-2.498295,-0.19280174
0.2223638,0.06423918,-0.11120707,0.70734847,-2.420494,-0.18679759
0.21543923,0.06223873,-0.107744,0.6853211,-2.3451183,-0.18098058
0.20873049,0.060300626,-0.10438887,0.6639803,-2.2720916,-0.17534487
0.20223081,0.05842292,-0.1011383,0.6433046,-2.2013407,-0.16988479
0.19593368,0.05660373,-0.09798902,0.6232732,-2.1327949,-0.16459487
0.18983279,0.054841228,-0.09493788,0.603866,-2.0663848,-0.15946978
0.18392198,0.05313364,-0.09198181,0.58506346,-2.002044,-0.15450439
0.17819533,0.051479258,-0.08911784,0.5668467,-1.9397076,-0.1496937
0.17264709,0.049876414,-0.086343095,0.54919755,-1.8793135,-0.14503287
0.1672717,0.048323505,-0.08365478,0.53209823,-1.8208008,-0.14051725
0.16206376,0.046818968,-0.081050225,0.51553154,-1.7641108,-0.1361423
0.15701804,0.0453613,-0.078526795,0.4994809,-1.7091867,-0.13190362
0.15212949,0.043949034,-0.07608196,0.4839302,-1.6559734,-0.12779698
0.1473932,0.042580757,-0.07371328,0.46886387,-1.6044176,-0.12381824
0.14280443,0.041255094,-0.071418375,0.4542668,-1.5544674,-0.11996342
0.13835856,0.039970722,-0.06919494,0.44012433,-1.5060729,-0.11622866
0.13405117,0.03872635,-0.06704076,0.42642233,-1.4591856,-0.11261021
0.12987791,0.037520725,-0.064953655,0.41314703,-1.4137585,-0.109104455
0.12583461,0.03635265,-0.06293155,0.40028515,-1.3697461,-0.10570787
0.12191723,0.035220947,-0.06097242,0.3878238,-1.3271043,-0.10241705
0.11812184,0.034124486,-0.05907429,0.37575048,-1.2857903,-0.09922872
0.11444463,0.033062167,-0.057235267,0.3640531,-1.2457628,-0.09613966
0.11088192,0.03203293,-0.05545351,0.35271996,-1.2069817,-0.09314679
0.10743014,0.031035738,-0.05372723,0.3417397,-1.1694081,-0.09024711
0.10408584,0.030069595,-0.052054703,0.33110136,-1.1330044,-0.08743772
0.100845665,0.029133534,-0.05043425,0.32079425,-1.0977342,-0.0847158
0.097706385,0.02822662,-0.048864253,0.31080806,-1.0635622,-0.08207863
0.09466484,0.027347941,-0.047343135,0.30113277,-1.030454,-0.07952357
0.09171799,0.026496619,-0.045869377,0.29175875,-0.9983768,-0.07704806
0.088862896,0.025671804,-0.044441506,0.28267655,-0.9672982,-0.074649625
0.08609668,0.024872666,-0.043058086,0.2738771,-0.93718725,-0.072325855
0.083416596,0.02409841,-0.041717738,0.26535165,-0.9080137,-0.07007444
0.08081994,0.023348259,-0.04041912,0.25709158,-0.8797484,-0.06789311
0.078304134,0.02262146,-0.03916093,0.2490887,-0.8523631,-0.0657797
0.07586665,0.02191729,-0.03794191,0.24133496,-0.82583034,-0.06373207
0.073505044,0.02123504,-0.03676084,0.2338226,-0.80012363,-0.061748203
0.071216956,0.02057403,-0.03561654,0.2265441,-0.7752172,-0.059826087
0.0690001,0.019933598,-0.034507863,0.2194922,-0.75108606,-0.05796381
0.066852264,0.019313103,-0.0334337,0.21265984,-0.7277062,-0.05615951
0.06477129,0.018711925,-0.032392975,0.20604016,-0.70505416,-0.054411378
0.06275509,0.018129462,-0.03138465,0.19962655,-0.6831073,-0.052717663
0.060801663,0.017565131,-0.030407714,0.19341262,-0.66184366,-0.051076677
0.058909044,0.017018368,-0.02946119,0.18739212,-0.6412419,-0.049486775
0.05707534,0.016488625,-0.02854413,0.18155903,-0.62128156,-0.047946364
0.055298716,0.015975373,-0.027655618,0.17590752,-0.6019425,-0.046453904
0.0535774,0.015478098,-0.026794765,0.17043194,-0.58320546,-0.045007907
0.05190967,0.014996302,-0.02596071,0.16512682,-0.56505173,-0.043606922
0.05029385,0.014529506,-0.025152618,0.15998682,-0.54746306,-0.04224955
0.048728332,0.014077239,-0.024369681,0.15500684,-0.530422,-0.04093443
