ax,ay,az,gx,gy,gz
-2.658206,1.4354676,-1.5963782,-47.21952,-205.96733,-22.194746
-1.2982711,1.4652622,0.3520755,-54.878002,-209.87659,-32.0058
0.61205024,1.3536853,2.2965405,-51.02942,-197.85204,-34.38501
2.6892307,1.3351569,4.086686,-54.360416,-186.90546,-28.597021
4.9807186,1.113352,5.970249,-59.266193,-172.27045,-20.413673
7.2234845,0.72720575,7.705535,-53.99349,-145.11497,-18.81311
9.160082,0.3085573,9.046666,-46.051933,-115.613396,-19.812899
10.58688,-0.0309357,9.972362,-38.51602,-85.982506,-18.695995
11.439863,-0.20284113,10.430117,-33.211456,-58.042637,-15.07073
11.7777815,-0.26988816,10.455572,-29.386784,-32.867405,-10.51368
11.775004,-0.28575537,10.168604,-25.182606,-8.816988,-7.1589713
11.491473,-0.2842257,9.542391,-20.762466,13.049718,-4.9593973
11.091565,-0.25069803,8.7797365,-16.333475,32.686184,-3.5392177
10.603024,-0.17226942,7.91439,-12.926176,49.770382,-2.7694778
10.039512,-0.11576506,6.98953,-10.325223,64.07231,-2.02142
9.454314,-0.085943945,6.055187,-8.176756,75.8941,-0.7469714
8.855038,-0.029677786,5.1085725,-6.294756,85.56307,-0.063025914
8.26241,0.023504855,4.192574,-3.887569,93.087326,-0.45909855
7.6794147,0.087191775,3.3145113,-1.5453686,98.46822,-1.602326
7.113551,0.148546,2.4779675,0.359084,101.86871,-3.1234882
6.554679,0.19843635,1.670119,1.7697276,102.55084,-4.6283073
6.0079355,0.25020435,0.9055521,2.7959542,101.54617,-6.016156
5.5037084,0.29148906,0.21054326,3.811451,99.68578,-7.1703978
5.0255356,0.3309445,-0.4415741,4.854316,97.162384,-8.23398
4.5448093,0.37942,-1.0765746,5.4600935,93.56784,-9.4315405
4.0565953,0.41955128,-1.6869763,6.129174,88.30041,-10.725797
3.5720766,0.45906028,-2.2685928,6.614469,81.80986,-11.900023
3.1169622,0.50222343,-2.8111978,6.632269,74.13058,-12.923329
2.703292,0.5391196,-3.3102136,6.254673,65.60256,-13.849233
2.3260584,0.5692905,-3.7751684,5.460066,56.45841,-14.57332
1.983803,0.6089126,-4.2109704,4.03071,46.397877,-15.198258
1.6762422,0.664945,-4.615177,2.4784334,35.82531,-16.084822
1.3992496,0.74118656,-4.9785576,0.6425079,24.506094,-17.34392
1.1781818,0.8396505,-5.2594094,-1.8215404,12.585467,-18.832262
1.0556885,0.9419559,-5.408249,-4.86775,0.28545803,-20.51863
1.0975723,0.99256396,-5.4080095,-7.3608403,-11.867783,-22.276535
1.5148448,0.92207956,-5.1424584,-9.951904,-22.87595,-23.71017
2.1633582,0.7393673,-4.676493,-12.545267,-31.731167,-24.420784
2.8534894,0.49967307,-4.0842576,-14.682243,-38.08732,-24.749826
3.4598777,0.2600697,-3.4299407,-16.827986,-42.45044,-24.567917
3.954162,0.015208362,-2.754997,-18.2164,-44.796154,-23.30275
4.3501005,-0.19267184,-2.0756712,-19.13056,-45.882214,-21.475058
4.67355,-0.36532688,-1.4091835,-19.281527,-45.77645,-19.591482
4.954283,-0.48019114,-0.75325286,-18.244099,-44.437428,-17.893019
5.237781,-0.5164804,-0.11507203,-16.404936,-41.724213,-16.839489
5.5190196,-0.48706532,0.48488754,-14.12538,-36.942272,-16.496109
5.733846,-0.39939252,0.9692539,-12.123131,-31.085144,-16.482885
5.873135,-0.31497207,1.3474475,-10.342451,-24.624352,-16.537182
5.960685,-0.24664788,1.6318816,-8.59977,-17.889439,-16.60182
6.0277586,-0.2030925,1.8314137,-7.1431375,-10.979614,-16.543882
6.0805836,-0.18929492,1.9402378,-6.1528993,-3.7502165,-16.473768
6.103755,-0.21395293,1.9353298,-5.266301,3.5390735,-16.424809
6.1129503,-0.260023,1.8633263,-4.2074842,11.001899,-16.459257
6.1004453,-0.32554972,1.7163609,-3.1275618,18.403482,-16.541142
6.0475254,-0.40748933,1.4955863,-2.2434657,25.39837,-16.486544
5.9509134,-0.49083468,1.2219853,-1.6437159,31.527475,-15.726933
5.8109317,-0.52707756,0.9117976,-1.5093969,36.853043,-14.342744
5.649495,-0.55040926,0.5778488,-1.5259342,41.502132,-13.098564
5.4681954,-0.5882272,0.22489226,-1.0693145,45.721462,-12.379522
5.2668567,-0.6314113,-0.13249303,0.06690031,49.69745,-12.139313
5.021003,-0.6531936,-0.50651056,1.5357848,52.813557,-12.1534
4.7230105,-0.65914845,-0.8931586,2.623021,54.786385,-11.830837
4.413725,-0.655621,-1.2637463,3.6783707,55.53276,-11.095409
4.108481,-0.62938666,-1.6084093,4.644128,55.224068,-10.379486
3.820023,-0.5892851,-1.9206154,5.5885353,54.09925,-10.169243
3.6973655,-0.5703637,-1.8589462,5.409093,52.362175,-9.842718
3.5788722,-0.5520847,-1.7993706,5.235742,50.68407,-9.527279
3.4643815,-0.53442305,-1.7418073,5.0682464,49.06265,-9.222493
3.353739,-0.5173551,-1.686179,4.906381,47.495728,-8.927954
3.2467988,-0.50085825,-1.6324121,4.749932,45.981236,-8.643269
3.1434214,-0.48491102,-1.5804363,4.5986953,44.517204,-8.368069
3.0434742,-0.469493,-1.5301855,4.452477,43.101753,-8.102001
2.9468312,-0.45458463,-1.4815956,4.311092,41.73309,-7.8447285
2.8533711,-0.44016728,-1.4346062,4.174364,40.409508,-7.5959296
2.7629793,-0.42622322,-1.3891593,4.0421243,39.129375,-7.3552985
2.6755452,-0.41273543,-1.3451996,3.9142118,37.891132,-7.122541
2.5909634,-0.39968768,-1.3026739,3.7904723,36.693283,-6.8973765
2.5091333,-0.3870644,-1.2615317,3.6707582,35.534405,-6.679538
2.4299583,-0.37485066,-1.2217244,3.5549283,34.413124,-6.4687667
2.3533456,-0.36303225,-1.1832055,3.4428475,33.328136,-6.264817
2.279207,-0.35159543,-1.1459303,3.3343854,32.27818,-6.067453
2.2074566,-0.3405271,-1.109856,3.2294178,31.262053,-5.8764477
2.1380134,-0.32981458,-1.0749415,3.127825,30.278593,-5.6915827
2.0707982,-0.31944585,-1.0411474,3.029492,29.32669,-5.51265
2.0057359,-0.3094092,-1.0084356,2.9343085,28.405275,-5.3394485
1.9427538,-0.29969344,-0.97676975,2.8421683,27.513323,-5.1717844
1.8817822,-0.29028782,-0.94611466,2.7529695,26.649841,-5.009473
1.8227539,-0.281182,-0.91643673,2.6666136,25.813883,-4.852334
1.7656044,-0.272366,-0.8877033,2.5830061,25.00453,-4.700197
1.7102712,-0.26383018,-0.8598831,2.5020561,24.220901,-4.5528955
1.6566947,-0.25556535,-0.8329461,2.4236758,23.462147,-4.4102697
1.6048167,-0.24756253,-0.8068631,2.3477805,22.727451,-4.272166
1.5545818,-0.23981318,-0.7816062,2.274289,22.016022,-4.138436
1.5059361,-0.232309,-0.7571484,2.2031221,21.3271,-4.008937
1.458828,-0.22504199,-0.7334635,2.1342049,20.659954,-3.8835306
1.4132073,-0.21800444,-0.7105265,2.0674639,20.013874,-3.7620842
1.3690258,-0.21118893,-0.6883132,2.0028281,19.388176,-3.6444695
1.3262372,-0.20458825,-0.6668001,1.9402301,18.782202,-3.5305622
1.2847964,-0.19819549,-0.6459646,1.8796039,18.195314,-3.420243
1.2446598,-0.19200395,-0.62578493,1.8208858,17.626902,-3.313396
1.2057858,-0.18600716,-0.60624003,1.7640147,17.076366,-3.20991
1.1681337,-0.18019886,-0.5873095,1.7089313,16.543137,-3.1096766
1.1316645,-0.17457305,-0.56897366,1.6555784,16.026659,-3.0125923
1.0963404,-0.16912387,-0.5512135,1.6039007,15.526398,-2.9185565
1.0621248,-0.16384569,-0.5340107,1.5538446,15.041836,-2.8274713
1.0289824,-0.15873307,-0.5173475,1.5053586,14.572472,-2.7392433
0.996879,-0.15378073,-0.5012067,1.4583926,14.117823,-2.6537812
0.96578157,-0.14898358,-0.48557168,1.4128985,13.677421,-2.570997
0.93565834,-0.1443367,-0.47042644,1.3688294,13.250814,-2.4908063
0.9064783,-0.13983533,-0.4557554,1.3261403,12.837566,-2.4131265
0.8782116,-0.13547485,-0.4415436,1.2847873,12.437253,-2.337878
0.8508294,-0.1312508,-0.42777652,1.2447282,12.049465,-2.2649841
0.8243037,-0.1271589,-0.41444004,1.2059222,11.673808,-2.1943703
0.7986075,-0.12319494,-0.40152058,1.1683297,11.309897,-2.1259646
0.7737146,-0.1193549,-0.38900504,1.1319125,10.957364,-2.0596976
0.7495997,-0.11563489,-0.37688065,1.0966333,10.615848,-1.9955015
0.72623825,-0.1120311,-0.36513507,1.0624565,10.285003,-1.9333113
0.7036066,-0.108539894,-0.35375643,1.0293474,9.964493,-1.8730638
0.6816818,-0.105157726,-0.34273317,0.99727225,9.653994,-1.814698
0.6604416,-0.10188116,-0.3320541,0.96619874,9.3531885,-1.7581546
0.6398645,-0.09870689,-0.3217084,0.93609524,9.061775,-1.7033765
0.6199297,-0.095631704,-0.31168568,0.9069314,8.779458,-1.6503083
0.60061693,-0.092652485,-0.30197573,0.8786777,8.505951,-1.5988961
0.58190686,-0.08976623,-0.29256874,0.85130566,8.240978,-1.5490882
0.56378055,-0.08697002,-0.28345525,0.82478756,7.9842725,-1.5008342
0.5462196,-0.08426103,-0.27462605,0.7990967,7.7355747,-1.4540856
0.52920645,-0.08163654,-0.2660722,0.7742071,7.4946337,-1.4087949
0.5127238,-0.079093896,-0.25778517,0.7500937,7.261206,-1.3649167
0.49675515,-0.07663054,-0.24975652,0.72673225,7.035058,-1.3224068
0.4812844,-0.074243985,-0.24197818,0.7040992,6.815961,-1.2812222
0.46629596,-0.07193183,-0.23444237,0.6821717,6.603694,-1.2413216
0.45177475,-0.06969176,-0.22714145,0.6609278,6.398044,-1.2026649
0.43770617,-0.06752151,-0.2200681,0.640346,6.198805,-1.165213
0.42407605,-0.0654189,-0.21321522,0.62040573,6.005775,-1.1289284
0.41087073,-0.06338182,-0.2065759,0.6010869,5.818761,-1.0937747
0.39807692,-0.061408218,-0.20014347,0.58237004,5.6375747,-1.0597165
0.38568178,-0.059496112,-0.1939115,0.56423646,5.462034,-1.0267195
0.37367284,-0.05764359,-0.18787369,0.5466679,5.291963,-0.99475056
0.36203805,-0.05584878,-0.182024,0.5296467,5.127191,-0.9637777
0.35076573,-0.05410989,-0.17635655,0.51315576,4.967552,-0.9337698
0.33984458,-0.05242517,-0.17086565,0.49717855,4.8128867,-0.9046967
0.32926366,-0.05079293,-0.16554582,0.48169908,4.663039,-0.87652934
0.3190123,-0.049211536,-0.16039169,0.4667018,4.5178595,-0.84923935
0.30908027,-0.0476794,-0.1553981,0.45217165,4.377202,-0.8227994
0.29945758,-0.04619498,-0.15056005,0.43809405,4.2409253,-0.7971829
0.2901346,-0.0447568,-0.14587268,0.42445493,4.108893,-0.7723643
0.281102,-0.043363407,-0.1413313,0.4112406,3.980973,-0.74831873
0.2723507,-0.042013414,-0.13693136,0.3984378,3.8570368,-0.72502196
0.26387194,-0.04070546,-0.13266844,0.3860337,3.7369602,-0.7024507
0.2556572,-0.039438237,-0.12853827,0.3740159,3.620623,-0.68058234
0.24769828,-0.038210478,-0.124536715,0.36237234,3.5079086,-0.659395
0.2399872,-0.03702095,-0.120659776,0.35109136,3.3987043,-0.63886744
0.23251623,-0.035868462,-0.11690356,0.34016162,3.2929003,-0.61897904
0.2252779,-0.034751862,-0.1132643,0.32957226,3.1903908,-0.59971
0.21826495,-0.03367003,-0.10973836,0.3193126,3.0910733,-0.58104086
0.21147037,-0.032621883,-0.1063222,0.3093724,2.9948483,-0.56295305
0.20488735,-0.03160637,-0.10301241,0.29974172,2.9016192,-0.54542845
0.19850928,-0.030622475,-0.099805675,0.29041088,2.811293,-0.5284495
0.1923298,-0.029669216,-0.09669878,0.28137055,2.723779,-0.51199913
0.18634272,-0.028745634,-0.09368862,0.27261168,2.6389897,-0.496061
0.18054204,-0.027850809,-0.09077218,0.26412553,2.5568404,-0.48061907
0.17492194,-0.026983842,-0.087946534,0.25590357,2.4772487,-0.4656579
0.16947684,-0.026143866,-0.08520886,0.24793759,2.4001348,-0.45116252
0.16420124,-0.025330042,-0.08255642,0.24021962,2.3254216,-0.4371184
0.1590899,-0.024541553,-0.07998656,0.23274192,2.2530346,-0.42351153
0.15413767,-0.023777613,-0.0774967,0.22549702,2.1829011,-0.41032827
0.14933962,-0.023037454,-0.07508435,0.21847767,2.114951,-0.3975554
0.14469093,-0.02232034,-0.07274711,0.21167684,2.0491161,-0.3851802
0.14018697,-0.021625549,-0.07048263,0.20508774,1.985331,-0.37319025
0.13582322,-0.020952387,-0.06828864,0.19870375,1.9235315,-0.36157358
0.13159531,-0.02030018,-0.06616295,0.1925185,1.8636558,-0.35031852
0.12749903,-0.019668277,-0.06410343,0.18652579,1.8056442,-0.33941382
0.123530254,-0.019056046,-0.062108032,0.18071966,1.7494383,-0.3288486
0.11968503,-0.018462874,-0.06017475,0.17509425,1.6949822,-0.31861228
0.11595951,-0.017888168,-0.058301646,0.16964397,1.6422212,-0.3086946
0.112349965,-0.01733135,-0.056486852,0.16436335,1.5911027,-0.29908568
0.10885278,-0.016791867,-0.054728553,0.15924712,1.5415756,-0.28977585
0.10546446,-0.016269179,-0.05302499,0.15429014,1.4935901,-0.28075585
0.10218162,-0.01576276,-0.051374454,0.14948748,1.4470984,-0.2720166
0.09900097,-0.015272105,-0.0497753,0.14483431,1.402054,-0.26354945
