ax,ay,az,gx,gy,gz
0.05636415,0.5218229,0.6309148,-17.36743,-21.751108,6.103692
0.27822426,0.5033251,0.70861953,-17.46776,-21.449453,4.6496615
0.5253737,0.46282429,0.9714764,-12.2173605,-17.851177,0.60244095
0.80313885,0.47363883,1.2795726,-9.958677,-15.408688,-5.641241
1.204633,0.46423933,1.6973577,-11.0646515,-12.801918,-10.645907
1.6958678,0.36838105,2.1735783,-12.8294935,-9.733914,-13.20721
2.3177493,0.22431488,2.697305,-13.934132,-4.1283135,-12.376222
2.9838088,0.11733382,3.2079718,-13.095799,3.3778625,-10.161336
3.5117793,0.04770506,3.586511,-10.697117,11.705892,-8.867958
3.909097,-0.025917308,3.837264,-6.6601787,20.729088,-9.295208
4.2130723,-0.07349542,4.0073733,-2.6003551,30.14755,-11.132432
4.4821224,-0.07956961,4.1390696,0.32647073,40.233456,-13.286309
4.707781,-0.09772172,4.178586,1.9394614,49.925537,-14.462166
4.869129,-0.11951378,4.1303453,2.7011175,59.089806,-14.595258
4.9636393,-0.10972155,4.006463,2.5532858,67.70606,-14.03378
5.0019293,-0.0978991,3.805,1.9333163,75.96102,-13.409362
4.9817786,-0.1114484,3.5189464,1.7638512,83.945404,-13.290251
4.8737497,-0.14854747,3.1290026,2.1715212,91.767746,-13.75031
4.7021313,-0.17163241,2.6957088,2.5523365,98.69651,-14.103781
4.473456,-0.17354965,2.2340934,2.8185296,104.3213,-14.158017
4.2071214,-0.16497627,1.7540748,3.1196852,108.57773,-14.03679
3.920035,-0.15070653,1.2637203,3.3664079,111.377914,-13.853147
3.6144404,-0.13811174,0.7554848,3.6235013,113.19063,-13.794965
3.3085763,-0.11973136,0.24729922,3.780078,114.03989,-13.854429
3.0037336,-0.09979582,-0.26118252,3.7079573,113.76967,-13.923872
2.6988318,-0.08129903,-0.7623649,3.3509417,112.4683,-13.982674
2.3904936,-0.062104005,-1.256116,3.0681288,109.66598,-13.949458
2.0705345,-0.01726154,-1.7354671,2.7505178,105.70524,-13.977511
1.7569633,0.048206847,-2.1790051,2.4034004,100.89297,-14.137816
1.4572304,0.11745524,-2.5917199,1.974842,95.35978,-14.442707
1.1659912,0.17579,-2.9833925,1.5442162,89.12283,-14.827878
0.8747797,0.2270668,-3.3518567,1.2851806,82.106575,-15.198072
0.59980655,0.30666524,-3.6771505,0.991942,73.56642,-15.464327
0.36177292,0.40999642,-3.9544325,0.32995242,64.16915,-15.889132
0.16636318,0.4981524,-4.192242,-0.59308004,54.386063,-16.497519
0.004531538,0.5617397,-4.39937,-1.5617614,44.32463,-17.32689
-0.09934876,0.6167054,-4.561652,-2.38452,33.903603,-18.793041
-0.07863191,0.6578625,-4.6496,-3.6320736,23.311934,-20.7207
0.0576022,0.62719613,-4.6634355,-5.318002,13.065495,-22.742735
0.26457885,0.53409255,-4.5851326,-6.913439,3.6315508,-24.317009
0.50206697,0.50313336,-4.387952,-8.625443,-5.060758,-25.65745
0.7739671,0.5444879,-4.0817223,-11.600142,-12.41512,-27.460707
1.0559584,0.49756703,-3.7196255,-14.310869,-18.25263,-29.422949
1.2993964,0.4106407,-3.3477473,-15.861997,-22.934723,-31.289215
1.5295836,0.37484732,-2.9492006,-17.12693,-27.079613,-32.71273
1.7750714,0.36366317,-2.5229514,-18.720598,-30.755959,-33.510284
2.0409799,0.33443975,-2.0802858,-20.484482,-33.852974,-33.760895
2.365541,0.27292866,-1.606177,-21.718294,-35.419563,-33.41312
2.7159107,0.19966225,-1.1341001,-22.484419,-35.214977,-32.91278
3.0365486,0.11826895,-0.7036788,-22.725739,-33.182945,-32.281113
3.2901595,0.04520657,-0.34924954,-22.595358,-30.009342,-31.457926
3.4786034,-0.017661573,-0.06628182,-22.15864,-26.218327,-30.400095
3.6211984,-0.09140249,0.14853568,-21.65898,-22.202374,-28.92777
3.7414033,-0.16396831,0.32121778,-21.190277,-18.061256,-26.91595
3.8484254,-0.23115222,0.46134052,-20.838087,-13.801164,-24.588703
3.9560947,-0.2952029,0.5764051,-20.492825,-9.041268,-22.169876
4.0680265,-0.3562934,0.66540694,-19.88518,-2.8131604,-20.178434
4.145173,-0.42287827,0.6909564,-18.799408,4.1800485,-18.56498
4.150754,-0.47518614,0.6419536,-16.733603,10.880891,-17.059175
4.0930104,-0.5108473,0.55527884,-15.037453,16.415176,-15.231152
4.0180407,-0.5290748,0.4606164,-14.158435,20.568747,-12.081762
3.9687953,-0.5091479,0.37811232,-14.069522,24.16365,-8.174529
3.9380996,-0.47721276,0.28965378,-13.723312,28.63957,-5.714904
3.9070778,-0.4869758,0.162882,-12.710103,33.911427,-4.469874
3.8660529,-0.5057985,0.0024648116,-10.916705,39.618904,-3.5582194
3.7830813,-0.49755296,-0.20564912,-9.39423,44.672943,-2.5169787
3.6480284,-0.49509957,-0.4419824,-8.279432,48.370037,-0.96143323
3.4673436,-0.49288905,-0.68700033,-7.3878036,51.153423,0.79538625
3.2910397,-0.4721015,-0.9233352,-6.6430993,53.277966,2.356717
3.1288936,-0.45459235,-1.146724,-5.8473907,55.00445,3.466804
2.9698572,-0.44925627,-1.363275,-4.734228,56.488808,4.2348175
2.792951,-0.44028175,-1.5769011,-3.4154344,57.33006,4.81433
2.6012523,-0.41293243,-1.7760348,-2.2003136,57.575615,5.3708124
2.402801,-0.36555177,-1.9543377,-1.2381537,57.21109,5.763772
2.208742,-0.3063579,-2.1029966,-0.41585678,56.36355,5.900221
2.0391967,-0.24093659,-2.2183106,0.427823,55.26754,5.725091
1.9004415,-0.19443603,-2.309599,1.3057184,54.14552,5.4650087
1.8404201,-0.18829519,-2.236655,1.2644801,52.435448,5.292408
1.7823461,-0.18235359,-2.166078,1.2245798,50.78086,5.1254077
1.7261517,-0.17660427,-2.0977852,1.1859708,49.179825,4.963812
1.6717718,-0.17104061,-2.0316975,1.1486084,47.630486,4.807434
1.6191438,-0.1656562,-1.9677389,1.1124499,46.13106,4.6560946
1.5682079,-0.16044489,-1.9058367,1.0774539,44.679844,4.5096207
1.5189064,-0.1554008,-1.8459207,1.0435807,43.275192,4.3678465
1.4711839,-0.15051827,-1.7879238,1.0107925,41.91553,4.230613
1.4249873,-0.14579184,-1.7317812,0.9790526,40.599342,4.097768
1.3802654,-0.1412163,-1.6774309,0.94832593,39.32517,3.9691632
1.3369688,-0.1367866,-1.6248128,0.91857857,38.091606,3.8446574
1.2950503,-0.13249786,-1.5738693,0.889778,36.897305,3.7241142
1.2544641,-0.12834544,-1.5245451,0.8618928,35.740963,3.6074026
1.2151662,-0.12432485,-1.4767866,0.83489287,34.621326,3.4943955
1.1771144,-0.12043173,-1.4305423,0.8087489,33.53719,3.3849716
1.1402676,-0.1166619,-1.3857627,0.78343296,32.48739,3.2790132
1.1045866,-0.11301134,-1.3423997,0.7589179,31.4708,3.176407
1.0700333,-0.10947616,-1.3004072,0.73517776,30.486341,3.0770438
1.0365711,-0.10605261,-1.2597407,0.7121872,29.532969,2.980818
1.0041646,-0.10273706,-1.2203572,0.6899219,28.609673,2.887628
0.9727796,-0.09952603,-1.1822151,0.6683585,27.715483,2.7973757
0.94238317,-0.096416146,-1.1452744,0.64747435,26.849459,2.7099662
0.91294354,-0.093404144,-1.1094966,0.6272475,26.010693,2.625308
0.8844299,-0.090486884,-1.074844,0.6076569,25.198309,2.5433128
0.85681254,-0.087661326,-1.0412807,0.5886821,24.411463,2.4638948
0.8300628,-0.084924534,-1.0087719,0.57030344,23.649336,2.386972
0.80415297,-0.08227368,-0.97728384,0.5525018,22.911139,2.3124642
0.7790562,-0.079706,-0.94678384,0.53525877,22.196106,2.2402947
0.7547466,-0.07721886,-0.9172405,0.51855665,21.5035,2.1703887
0.73119915,-0.0748097,-0.88862336,0.5023781,20.83261,2.1026745
0.7083896,-0.07247603,-0.86090297,0.48670655,20.182741,2.037082
0.6862945,-0.07021546,-0.83405095,0.4715259,19.55323,1.9735444
0.6648913,-0.06802568,-0.80803967,0.4568206,18.943432,1.9119961
0.644158,-0.06590444,-0.78284264,0.44257557,18.352718,1.8523744
0.6240735,-0.06384957,-0.758434,0.4287763,17.78049,1.7946182
0.6046172,-0.061858978,-0.73478884,0.41540864,17.22616,1.7386688
0.5857693,-0.059930634,-0.71188307,0.402459,16.689165,1.6844689
0.56751066,-0.058062572,-0.6896934,0.3899142,16.168959,1.6319633
0.5498226,-0.056252893,-0.6681972,0.37776148,15.665009,1.5810987
0.5326873,-0.05449976,-0.6473727,0.36598846,15.1768055,1.5318235
0.5160873,-0.052801393,-0.62719876,0.35458323,14.703854,1.4840875
0.50000566,-0.05115607,-0.60765487,0.3435342,14.245672,1.4378424
0.48442623,-0.049562123,-0.5887212,0.33283016,13.801798,1.3930414
0.46933314,-0.048017934,-0.57037866,0.32246032,13.37178,1.3496389
0.4547112,-0.046521947,-0.55260867,0.31241414,12.955186,1.3075912
0.44054556,-0.04507265,-0.53539324,0.30268148,12.551593,1.2668558
0.42682192,-0.043668568,-0.51871496,0.29325253,12.160592,1.2273915
0.41352648,-0.042308297,-0.50255704,0.28411773,11.781791,1.1891583
0.40064573,-0.040990457,-0.48690313,0.2752679,11.414806,1.1521178
0.38816676,-0.03971372,-0.4717375,0.26669407,11.059267,1.1162326
0.37607697,-0.038476802,-0.4570448,0.25838766,10.714816,1.0814666
0.36436415,-0.03727845,-0.44281027,0.25034022,10.381106,1.0477846
0.35301653,-0.036117464,-0.42901954,0.24254373,10.057801,1.0151527
0.34202266,-0.034992673,-0.41565877,0.2349903,9.744575,0.9835382
0.33137152,-0.033902947,-0.40271446,0.22767231,9.441113,0.9529093
0.32105237,-0.032847185,-0.39017367,0.22058244,9.14711,0.923235
0.31105486,-0.031824328,-0.3780237,0.21371353,8.86227,0.8944856
0.30136892,-0.030833349,-0.36625242,0.2070587,8.586308,0.86663216
0.2919848,-0.02987325,-0.35484794,0.20061125,8.318945,0.8396467
0.2828931,-0.02894307,-0.34379885,0.1943647,8.059913,0.81350213
0.2740847,-0.028041871,-0.333094,0.18831278,7.8089523,0.7881722
0.2655507,-0.02716875,-0.32272267,0.18244942,7.56581,0.76363146
0.25728258,-0.026322834,-0.3126745,0.17676872,7.3302436,0.73985523
0.24927205,-0.025503268,-0.30293933,0.171265,7.102015,0.7168197
0.24151106,-0.024709232,-0.2935074,0.16593273,6.8808966,0.6945018
0.23399182,-0.023939932,-0.2843693,0.16076656,6.6666656,0.6728791
0.22670679,-0.023194592,-0.27551582,0.1557613,6.459108,0.65192986
0.21964866,-0.02247247,-0.26693812,0.15091194,6.2580147,0.63163316
0.21281037,-0.021772837,-0.25862756,0.14621362,6.0631847,0.6119686
0.20618504,-0.021094995,-0.25057584,0.14166161,5.8744226,0.5929165
0.19976607,-0.020438261,-0.24277489,0.13725139,5.6915393,0.5744577
0.19354698,-0.019801982,-0.23521687,0.1329785,5.5143514,0.5565738
0.18752158,-0.019185517,-0.22789422,0.12883869,5.3426814,0.53924686
0.18168381,-0.018588249,-0.2207996,0.12482778,5.1763573,0.52245945
0.17602782,-0.018009579,-0.2139259,0.12094177,5.015212,0.5061948
0.17054796,-0.017448928,-0.20726624,0.11717678,4.8590856,0.4904366
0.16523872,-0.016905736,-0.20081395,0.11352901,4.70782,0.4751691
0.16009481,-0.016379457,-0.19456257,0.10999483,4.5612645,0.46037698
0.15511106,-0.015869563,-0.18850584,0.10657069,4.4192724,0.44604546
0.15028249,-0.015375548,-0.18263769,0.10325317,4.2817016,0.43216017
0.14560425,-0.014896913,-0.17695226,0.10003894,4.1484137,0.4187072
0.14107168,-0.014433181,-0.17144383,0.09692478,4.019276,0.40567306
0.13668022,-0.013983887,-0.16610691,0.09390759,3.8941588,0.39304477
0.13242549,-0.013548581,-0.16093615,0.09098433,3.772937,0.38080963
0.12830321,-0.013126828,-0.15592638,0.08815208,3.6554894,0.36895543
0.12430929,-0.012718204,-0.15107258,0.08540801,3.5416985,0.35747027
0.1204397,-0.012322304,-0.14636987,0.08274937,3.43145,0.34634268
0.11669058,-0.011938727,-0.14181359,0.0801735,3.3246338,0.33556154
0.11305819,-0.011567093,-0.13739915,0.07767782,3.221143,0.325116
0.10953887,-0.011207029,-0.13312215,0.07525984,3.1208742,0.3149957
0.10612912,-0.0108581735,-0.12897828,0.07291713,3.0237267,0.3051904
0.10282551,-0.010520179,-0.124963425,0.07064736,2.9296038,0.29569042
0.09962475,-0.010192705,-0.12107356,0.06844824,2.8384109,0.28648615
0.096523635,-0.009875427,-0.11730478,0.06631758,2.7500567,0.2775684
0.093519054,-0.009568026,-0.113653325,0.064253256,2.6644533,0.26892826
0.09060801,-0.009270194,-0.11011554,0.06225319,2.5815146,0.26055712
0.08778758,-0.008981633,-0.10668789,0.060315385,2.5011578,0.25244656
0.08505496,-0.008702056,-0.10336694,0.058437906,2.4233024,0.24458846
0.08240739,-0.008431181,-0.10014937,0.056618873,2.3478708,0.236975
0.07984225,-0.008168738,-0.09703196,0.05485646,2.2747872,0.22959854
0.07735696,-0.007914466,-0.0940116,0.053148914,2.2039785,0.2224517
0.074949026,-0.0076681087,-0.09108525,0.051494524,2.1353743,0.21552734
0.072616056,-0.00742942,-0.08825,0.049891632,2.0689056,0.20881853
