ax,ay,az,gx,gy,gz
0.28727534,0.35636687,1.5745598,-13.261029,-19.920181,0.3327303
0.7840992,0.5491612,2.203706,-14.242061,-16.332298,-3.082933
1.3286017,0.5432921,2.7457502,-9.718365,-12.060272,-7.688392
2.0741384,0.35985968,3.3517103,-4.440468,-4.2667546,-10.73713
3.1395736,0.17185299,4.1114025,-2.0349956,5.414501,-11.460632
4.0953484,-0.053023472,4.7210007,-1.9002874,16.598888,-10.079184
4.807793,-0.2612592,5.133768,-0.11330113,27.871788,-8.387982
5.2896214,-0.39795086,5.386385,2.4244292,38.96533,-8.001185
5.6315494,-0.49520424,5.5043883,5.4798746,50.216026,-8.679875
5.8183236,-0.5403121,5.433039,7.7196136,61.658226,-9.698289
5.888437,-0.58272326,5.246765,8.587949,72.086754,-10.268173
5.882024,-0.6371959,4.964978,8.741995,81.46205,-10.0145235
5.8370485,-0.70387864,4.5972567,8.799555,89.850174,-9.480814
5.77571,-0.7717537,4.1766787,9.426523,97.99206,-9.176857
5.6925225,-0.79057604,3.7142851,10.12361,105.78689,-9.024307
5.564912,-0.78123856,3.2276447,10.646784,112.898895,-8.739098
5.3671784,-0.7547099,2.71361,11.285411,119.058624,-8.303748
5.0970316,-0.70425516,2.1777294,11.955964,124.13251,-8.029563
4.781527,-0.6463904,1.6338047,12.686642,127.841385,-8.013383
4.4346743,-0.57747257,1.0728287,13.075269,130.33868,-7.910269
4.065748,-0.4986181,0.5171118,12.949891,131.3932,-7.714767
3.684908,-0.42707548,-0.020001518,12.638945,131.12796,-7.374611
3.3067772,-0.35226855,-0.54231733,12.332099,129.57523,-7.105309
2.9382658,-0.26817915,-1.0378402,11.912493,126.7909,-7.074344
2.5847757,-0.16999297,-1.4983637,11.437691,122.52705,-7.300203
2.2435517,-0.062094204,-1.9285127,10.935176,117.33155,-7.77171
1.9076694,0.045434825,-2.3284206,10.560992,111.383354,-8.526558
1.5836984,0.15374826,-2.6984577,10.123131,104.731224,-9.483441
1.2729623,0.25922257,-3.0430353,9.487415,97.098526,-10.604763
0.96618146,0.36501914,-3.3661914,8.739244,88.73739,-11.725928
0.68914956,0.47770834,-3.6582,7.7934,79.66051,-12.794891
0.45587292,0.59319586,-3.9114,6.5375557,70.02677,-13.68737
0.26469928,0.70560604,-4.1246543,4.9593186,60.003723,-14.502617
0.11115266,0.796409,-4.304745,2.981763,49.64975,-15.6459465
0.015418029,0.85115075,-4.4328723,1.0124018,39.41603,-17.083899
-0.026776325,0.89883983,-4.506661,-1.0746561,29.366936,-18.795708
-0.0127148675,0.92619145,-4.5273247,-3.231678,19.62477,-20.584906
0.054991648,0.92375517,-4.4990597,-5.745447,10.20996,-22.062391
0.15639248,0.89349926,-4.417316,-8.53291,1.2461042,-23.222902
0.3247634,0.8547213,-4.250894,-11.439159,-7.014686,-24.362257
0.5811804,0.78601307,-4.024395,-14.381695,-14.187906,-25.588388
0.90261436,0.65637463,-3.750111,-17.141157,-20.045723,-26.721972
1.24539,0.48226,-3.4321303,-19.403082,-24.44421,-27.601406
1.5788583,0.29496482,-3.0791745,-20.85855,-27.301989,-28.315653
1.9158522,0.10176091,-2.6725976,-21.675137,-29.31157,-28.907566
2.2920945,-0.08018126,-2.207067,-21.952715,-30.235792,-28.995323
2.6891627,-0.23711908,-1.7059276,-22.088234,-30.102257,-28.466425
3.0773058,-0.3688187,-1.2006886,-22.006804,-28.826986,-27.441935
3.438014,-0.4622776,-0.7145133,-21.470846,-25.865173,-26.512558
3.7525117,-0.5441137,-0.28777358,-20.376616,-21.517895,-25.977863
4.0097327,-0.61274487,0.062476672,-18.868008,-15.971042,-25.62869
4.2048697,-0.6628276,0.33370697,-17.228985,-9.779261,-25.303185
4.3475227,-0.703824,0.52286816,-15.591099,-3.2295096,-24.930922
4.4553432,-0.74614,0.6412544,-13.933549,3.453714,-24.688374
4.5282454,-0.8009947,0.6796078,-12.256774,10.353451,-24.430595
4.5738454,-0.8582523,0.65813684,-10.563184,17.291252,-24.005054
4.5873985,-0.9076019,0.5823692,-8.881163,24.094505,-23.422426
4.5681477,-0.9467129,0.46293283,-7.197911,30.607931,-22.756828
4.518322,-0.97815037,0.30991098,-5.507136,36.704586,-21.895731
4.4316354,-0.9907186,0.11323929,-4.0056877,42.334126,-20.874388
4.3179917,-0.98946095,-0.11209808,-2.8307488,47.434067,-19.81568
4.175313,-0.98516953,-0.35621038,-1.8096513,52.017345,-18.740643
4.0069575,-0.9787004,-0.6157833,-0.7451658,55.987595,-17.736528
3.8164942,-0.96997195,-0.8836725,0.34355426,59.011826,-16.942247
3.6117854,-0.960771,-1.1485417,1.3457977,61.280277,-16.204708
3.403019,-0.94604033,-1.397434,2.3118703,62.814762,-15.515849
3.1906042,-0.92171454,-1.6237751,3.3096893,63.688816,-14.885597
2.9812372,-0.88381463,-1.8244286,4.2914,64.023735,-14.317615
2.7785885,-0.8375436,-2.001666,5.1270547,63.975067,-13.829148
2.5790534,-0.7937456,-2.155435,5.7634516,63.307198,-13.409575
2.3805308,-0.74987847,-2.2899125,6.3708763,62.09607,-13.060339
2.185861,-0.7038105,-2.4034894,6.8844113,60.34292,-12.794517
2.0059779,-0.6550103,-2.4879398,7.3247657,58.217453,-12.614994
1.8464502,-0.5985566,-2.5387816,7.5396132,55.774845,-12.495585
1.7141443,-0.5444312,-2.5568771,7.5424447,53.27709,-12.403317
1.5964525,-0.5061589,-2.5618176,7.4621477,50.76834,-12.22521
1.4887964,-0.46853453,-2.5523713,7.259062,48.204464,-11.96993
1.3937067,-0.42774415,-2.5257037,6.997017,45.579407,-11.776929
1.3151447,-0.38783547,-2.4783177,6.5816927,42.900837,-11.71155
1.2587359,-0.353727,-2.4077158,6.093234,40.341686,-11.696367
1.2129065,-0.33111602,-2.332179,5.495572,37.945915,-11.72975
1.172772,-0.32220343,-2.2574077,4.871047,35.681126,-11.760136
1.134211,-0.32380143,-2.1856377,4.2781143,33.535236,-11.768436
1.0917944,-0.33226454,-2.1139073,3.8519669,31.381468,-11.784142
1.0562973,-0.34287584,-2.0377192,3.5851896,29.265982,-11.797427
1.0444498,-0.35255122,-1.9501508,3.3863525,27.30248,-11.775779
1.0116707,-0.34148672,-1.8889471,3.280075,26.445616,-11.406207
0.97993636,-0.33077487,-1.8296942,3.1771846,25.616064,-11.048413
0.949212,-0.32040396,-1.772327,3.077569,24.812912,-10.702008
0.91946423,-0.31036267,-1.7167832,2.9811196,24.03529,-10.366613
0.89066076,-0.30064014,-1.6630026,2.887732,23.28235,-10.041864
0.8627705,-0.29122585,-1.6109271,2.7973053,22.553284,-9.727412
0.8357635,-0.2821097,-1.5605009,2.7097423,21.847307,-9.422919
0.80961096,-0.273282,-1.51167,2.6249497,21.163666,-9.128059
0.784285,-0.26473328,-1.4643825,2.542837,20.50163,-8.842518
0.7597587,-0.2564545,-1.4185882,2.463317,19.860502,-8.565993
0.73600626,-0.24843691,-1.3742385,2.3863058,19.2396,-8.298193
0.7130025,-0.24067207,-1.3312869,2.311722,18.638268,-8.038835
0.69072336,-0.2331518,-1.2896882,2.239488,18.05588,-7.7876453
0.6691454,-0.22586823,-1.249399,2.169527,17.491821,-7.5443625
0.6482462,-0.21881376,-1.2103769,2.101767,16.945505,-7.308732
0.628004,-0.21198106,-1.1725814,2.0361369,16.416363,-7.0805087
0.60839766,-0.20536299,-1.1359735,1.9725686,15.903842,-6.8594546
0.58940697,-0.19895273,-1.1005148,1.9109963,15.407414,-6.6453414
0.5710122,-0.19274363,-1.0661689,1.8513561,14.926565,-6.4379473
0.5531944,-0.18672927,-1.0329002,1.7935866,14.460798,-6.2370586
0.53593516,-0.18090348,-1.0006746,1.7376282,14.009633,-6.0424676
0.51921684,-0.17526025,-0.9694588,1.6834233,13.572607,-5.8539743
0.5030222,-0.16979377,-0.9392209,1.6309165,13.14927,-5.671386
0.4873346,-0.16449848,-0.90992975,1.5800537,12.739188,-5.494514
0.47213808,-0.15936893,-0.88155544,1.5307829,12.341943,-5.323179
0.45741704,-0.15439989,-0.854069,1.4830538,11.957127,-5.1572046
0.44315648,-0.14958628,-0.8274423,1.4368178,11.584348,-4.9964223
0.42934185,-0.14492318,-0.8016482,1.3920275,11.223227,-4.8406677
0.4159591,-0.14040586,-0.77666056,1.3486375,10.873394,-4.689782
0.4029946,-0.13602974,-0.7524538,1.3066036,10.534495,-4.5436125
0.3904352,-0.13179034,-0.7290034,1.265883,10.206186,-4.40201
0.37826812,-0.12768339,-0.7062856,1.2264345,9.888132,-4.2648306
0.36648107,-0.123704694,-0.6842773,1.188218,9.580011,-4.131936
0.35506204,-0.11985023,-0.66295624,1.1511948,9.281512,-4.003191
0.34399953,-0.11611611,-0.6423008,1.1153275,8.992332,-3.8784652
0.3332823,-0.11249854,-0.6222901,1.0805798,8.712178,-3.7576325
0.32289955,-0.108993866,-0.60290384,1.0469164,8.440767,-3.6405706
0.31284076,-0.105598554,-0.5841225,1.0143034,8.177826,-3.5271618
0.3030958,-0.10230917,-0.56592715,0.982708,7.923087,-3.417291
0.29365483,-0.09912239,-0.5482994,0.95209813,7.676295,-3.3108475
0.28450832,-0.09603501,-0.5312214,0.922443,7.4372,-3.207724
0.27564704,-0.09304391,-0.51467603,0.89371264,7.2055616,-3.1078165
0.26706207,-0.09014609,-0.4986466,0.8658782,6.9811463,-3.0110245
0.2587448,-0.08733861,-0.48311692,0.8389116,6.763728,-2.9172502
0.25068682,-0.08461866,-0.4680714,0.81278574,6.553088,-2.8263996
0.24288002,-0.08198349,-0.4534949,0.7874743,6.3490143,-2.738381
0.23531656,-0.07943047,-0.43937275,0.7629518,6.1513014,-2.6531057
0.22798884,-0.07695702,-0.42569074,0.73919356,5.9597507,-2.5704885
0.2208895,-0.07456065,-0.41243514,0.7161758,5.77417,-2.4904459
0.21401137,-0.07223896,-0.3995926,0.6938753,5.5943723,-2.4128976
0.20734757,-0.069989614,-0.38715026,0.6722697,5.420177,-2.3377657
0.2008914,-0.06781035,-0.3750956,0.65133727,5.251409,-2.264975
0.19463639,-0.06569899,-0.36341652,0.6310571,5.0878997,-2.194452
0.18857625,-0.0636534,-0.3521013,0.61140865,4.9294844,-2.1261263
0.1827049,-0.061671544,-0.34113854,0.59237236,4.7760043,-2.059929
0.17701645,-0.059751425,-0.33051732,0.5739291,4.627305,-1.9957938
0.1715052,-0.057891116,-0.32022694,0.55606025,4.4832377,-1.9336565
0.1661656,-0.05608875,-0.3102571,0.538748,4.343658,-1.8734546
0.16099232,-0.054342523,-0.3005978,0.52197504,4.2084255,-1.8151278
0.15598017,-0.052650683,-0.29123932,0.5057245,4.0774055,-1.7586176
0.15112412,-0.051011536,-0.2821723,0.48998,3.9504657,-1.7038676
0.1464193,-0.049423438,-0.27338767,0.47472587,3.8274791,-1.6508225
0.141861,-0.047884796,-0.26487663,0.4599468,3.7083228,-1.5994294
0.13744466,-0.046394072,-0.25663063,0.44562796,3.5928771,-1.5496367
0.13316584,-0.04494977,-0.2486414,0.43175504,3.4810264,-1.5013946
0.12902026,-0.04355044,-0.24090096,0.4183141,3.372659,-1.4546548
0.12500377,-0.042194687,-0.23340155,0.4052917,3.2676659,-1.4093704
0.121112354,-0.040881146,-0.22613566,0.39267477,3.165942,-1.3654962
0.1173421,-0.03960851,-0.219096,0.38045076,3.0673854,-1.322988
0.113689244,-0.038375497,-0.21227555,0.3686073,2.9718978,-1.2818034
0.11015012,-0.037180874,-0.20566745,0.35713264,2.8793833,-1.2419012
0.106721185,-0.03602345,-0.19926511,0.34601524,2.7897491,-1.2032412
0.103399016,-0.03490206,-0.1930621,0.335244,2.702906,-1.165785
0.10018028,-0.033815585,-0.18705222,0.3248081,2.6187663,-1.129495
0.09706176,-0.032762934,-0.18122946,0.31469712,2.5372465,-1.0943348
0.09404033,-0.031743057,-0.17558797,0.3049009,2.4582646,-1.0602694
0.091112964,-0.030754935,-0.17012212,0.2954097,2.3817418,-1.0272644
0.08827674,-0.029797575,-0.16482644,0.286214,2.3076012,-0.99528694
0.085528806,-0.028870018,-0.15969563,0.27730456,2.235769,-0.9643051
0.08286643,-0.027971338,-0.15472455,0.2686725,2.166173,-0.9342878
0.08028693,-0.027100638,-0.14990823,0.26030916,2.0987434,-0.9052049
0.07778774,-0.026257042,-0.14524184,0.25220618,2.0334132,-0.87702745
0.07536635,-0.025439708,-0.14072074,0.24435547,1.9701169,-0.8497272
0.07302034,-0.024647819,-0.13634036,0.23674916,1.908791,-0.8232768
0.07074736,-0.02388058,-0.13209637,0.22937962,1.849374,-0.79764986
0.06854515,-0.023137229,-0.12798448,0.22223951,1.7918069,-0.7728207
0.06641148,-0.022417016,-0.1240006,0.21532167,1.7360319,-0.74876446
0.06434424,-0.021719225,-0.12014074,0.20861919,1.681993,-0.7254571
0.06234135,-0.021043155,-0.11640103,0.20212536,1.6296364,-0.70287526
0.060400814,-0.020388132,-0.11277774,0.19583367,1.5789096,-0.6809964
0.058520682,-0.019753497,-0.10926724,0.18973784,1.529762,-0.6597986
0.056699075,-0.01913862,-0.10586602,0.18383177,1.4821442,-0.6392607
0.054934178,-0.018542882,-0.102570675,0.17810954,1.4360088,-0.6193622
0.053224213,-0.01796569,-0.099377915,0.17256545,1.3913096,-0.600083
