ax,ay,az,gx,gy,gz
-1.3918308,1.8354713,-2.0963826,38.23035,-15.314685,-20.752007
-1.1755954,2.0096335,-2.0847652,39.15024,-18.66154,-32.122887
-0.92559576,2.1163967,-1.944587,35.29544,-15.806518,-37.817432
-0.8326678,2.1559584,-1.9241242,34.693596,-12.146027,-41.588833
-0.8836388,2.2601452,-2.0695157,35.146103,-9.183444,-44.01674
-1.0050026,2.3271446,-2.3201475,32.36006,-7.6031075,-45.45936
-1.1374532,2.3358302,-2.6726627,26.565327,-6.857628,-45.992393
-1.3240098,2.2299154,-3.1359088,19.276928,-6.341063,-46.379395
-1.5668472,2.0271099,-3.686578,10.45369,-6.7535443,-47.430077
-1.8913205,1.6485476,-4.38148,2.337898,-9.684203,-48.051273
-2.2076802,1.1377211,-5.1069307,-5.440598,-15.806121,-47.80491
-2.5192378,0.43783683,-5.836137,-11.644781,-25.055773,-46.54691
-2.753465,-0.40325606,-6.4876385,-15.339989,-37.261208,-43.955456
-2.7486253,-1.2685282,-6.9248905,-15.677518,-51.161034,-38.428696
-2.4619834,-1.9873886,-6.9972196,-13.550904,-64.04859,-32.34209
-2.038315,-2.5711877,-6.7765727,-9.198146,-75.251274,-26.556683
-1.4505466,-3.014403,-6.264768,-3.622729,-84.17335,-20.222958
-0.72103083,-3.2698948,-5.477426,2.2953758,-89.8417,-12.986795
0.045947254,-3.2878482,-4.497786,7.639155,-91.454834,-5.6918497
0.7900276,-3.1148634,-3.3976924,11.894747,-90.30944,1.2857232
1.4472038,-2.8320105,-2.351652,15.407732,-85.99128,7.8351064
1.9643732,-2.4697347,-1.4684786,18.057425,-79.36865,13.551066
2.3524868,-2.0146494,-0.7468477,19.756575,-71.32168,18.401764
2.6261375,-1.4819397,-0.18264224,20.057955,-61.889843,22.157524
2.7497535,-0.9213062,0.16499028,19.703295,-52.415516,24.948267
2.7838237,-0.39822608,0.35743693,18.636244,-43.17429,26.977062
2.7541587,0.06290698,0.40037313,16.626356,-34.617996,28.466646
2.66518,0.44629923,0.30905288,14.280689,-27.108421,29.472721
2.5289612,0.7625476,0.12120588,12.34623,-20.492323,29.31008
2.3404365,1.047614,-0.16321701,11.121918,-14.818164,28.00352
2.1362844,1.332606,-0.47195622,10.1051855,-10.488642,25.850336
1.9444237,1.6235898,-0.77985233,8.889387,-7.466637,23.129604
1.7915277,1.8993084,-1.0784124,7.2854238,-5.4775043,20.056833
1.671718,2.1512473,-1.3679782,5.2522645,-4.434335,16.55841
1.5830294,2.3562875,-1.652136,3.0098338,-4.055912,12.942996
1.5179794,2.5232275,-1.9211757,0.7293366,-4.244243,9.257851
1.4717991,2.664334,-2.1665227,-1.6021217,-4.9124794,5.408032
1.4396671,2.781855,-2.386883,-3.941835,-6.022208,1.3396564
1.4161769,2.8645625,-2.587434,-6.3087525,-7.728087,-2.9027455
1.4065536,2.8971586,-2.754414,-8.791941,-9.804506,-7.0570984
1.404832,2.8871963,-2.8856444,-11.337563,-12.116762,-10.969296
1.4073131,2.8359654,-2.9860604,-13.759556,-14.699091,-14.705004
1.4062707,2.7604728,-3.0467944,-16.154745,-17.727192,-18.457785
1.4187822,2.6588774,-3.0439801,-18.547112,-20.948893,-22.312462
1.462751,2.487937,-2.9573536,-20.758432,-23.922121,-25.87673
1.5271512,2.2727678,-2.820496,-22.57587,-26.492844,-29.043394
1.6045998,2.0258486,-2.6488311,-24.027617,-28.681576,-31.856155
1.6916957,1.762858,-2.438008,-25.169199,-30.396208,-34.292976
1.7753055,1.4903466,-2.1853685,-25.98415,-31.497005,-36.31389
1.846359,1.2003493,-1.8945229,-26.713127,-32.063923,-37.90944
1.912385,0.89035004,-1.5964572,-27.183146,-31.987062,-38.90556
1.975871,0.585698,-1.3011653,-27.3094,-31.157278,-39.324627
2.0318322,0.292627,-1.0257511,-27.133163,-29.708601,-39.150723
2.0692916,0.014530059,-0.7796155,-26.433678,-27.56929,-38.2403
2.073191,-0.23212287,-0.56896955,-25.48319,-24.872623,-37.16354
2.053417,-0.44616583,-0.39416215,-24.283682,-21.723314,-36.104275
1.9858937,-0.4314944,-0.3812008,-23.485153,-21.00898,-34.91705
1.9208103,-0.41735312,-0.36870778,-22.715479,-20.320456,-33.772717
1.8580583,-0.40371838,-0.35666224,-21.973375,-19.656595,-32.66938
1.7975363,-0.39056814,-0.34504476,-21.25764,-19.016325,-31.605246
1.7391481,-0.3778816,-0.3338369,-20.567144,-18.398632,-30.578634
1.682804,-0.36563918,-0.32302144,-19.900818,-17.80256,-29.587961
1.6284188,-0.35382238,-0.31258196,-19.25766,-17.227215,-28.631733
1.5759122,-0.34241375,-0.3025031,-18.636719,-16.671741,-27.708534
1.5252085,-0.33139685,-0.2927703,-18.037096,-16.13534,-26.817032
1.4762354,-0.320756,-0.2833697,-17.457941,-15.6172495,-25.955961
1.4289249,-0.3104764,-0.27428827,-16.898449,-15.116748,-25.124125
1.3832126,-0.30054402,-0.26551357,-16.357853,-14.633151,-24.320385
1.3390367,-0.2909455,-0.25703382,-15.835431,-14.165811,-23.543661
1.2963389,-0.28166816,-0.24883781,-15.330488,-13.714107,-22.792927
1.2550639,-0.2726999,-0.24091487,-14.842369,-13.277452,-22.067205
1.2151583,-0.26402923,-0.23325484,-14.370446,-12.855288,-21.365564
1.176572,-0.25564522,-0.22584802,-13.9141245,-12.447079,-20.687119
1.1392565,-0.24753731,-0.21868515,-13.472833,-12.052314,-20.031017
1.103166,-0.23969558,-0.21175742,-13.046026,-11.670508,-19.396456
1.0682564,-0.23211044,-0.20505638,-12.633186,-11.301197,-18.782656
1.0344857,-0.22477275,-0.19857396,-12.233815,-10.9439335,-18.188883
1.0018137,-0.2176738,-0.19230242,-11.847436,-10.598292,-17.614426
0.97020173,-0.21080515,-0.18623437,-11.473593,-10.263866,-17.058607
0.93961287,-0.20415881,-0.18036272,-11.11185,-9.940264,-16.520777
0.9100117,-0.19772708,-0.17468064,-10.761786,-9.62711,-16.000313
0.8813642,-0.19150256,-0.16918163,-10.423002,-9.324045,-15.496618
0.85363775,-0.18547817,-0.16385943,-10.095109,-9.030724,-15.009117
0.826801,-0.17964707,-0.15870799,-9.777738,-8.746815,-14.537258
0.80082375,-0.17400275,-0.15372154,-9.470531,-8.471999,-14.080513
0.77567714,-0.1685389,-0.14889455,-9.173147,-8.20597,-13.6383705
0.7513332,-0.16324946,-0.14422162,-8.885257,-7.948433,-13.210342
0.72776514,-0.1581286,-0.13969764,-8.606542,-7.6991043,-12.795958
0.70494723,-0.15317073,-0.13531764,-8.336698,-7.457711,-12.39476
0.6828546,-0.14837044,-0.13107686,-8.07543,-7.2239904,-12.006315
0.6614632,-0.14372253,-0.1269707,-7.8224554,-6.997689,-11.6302
0.64075005,-0.139222,-0.12299472,-7.5775023,-6.7785625,-11.266011
0.6206929,-0.13486397,-0.11914466,-7.3403068,-6.5663757,-10.913356
0.6012703,-0.13064384,-0.115416415,-7.1106153,-6.3609023,-10.571857
0.5824616,-0.12655708,-0.111806,-6.8881836,-6.1619225,-10.241152
0.5642468,-0.12259938,-0.10830958,-6.6727753,-5.969226,-9.920889
0.5466066,-0.118766524,-0.10492348,-6.464163,-5.782609,-9.61073
0.52952254,-0.115054496,-0.10164411,-6.2621264,-5.6018744,-9.3103485
0.5129765,-0.1114594,-0.09846804,-6.066454,-5.426833,-9.019428
0.49695137,-0.10797745,-0.095391944,-5.8769407,-5.257301,-8.737665
0.48143026,-0.10460503,-0.0924126,-5.693388,-5.0931015,-8.464765
0.46639705,-0.10133862,-0.08952691,-5.5156054,-4.9340634,-8.200443
0.4518361,-0.09817482,-0.08673187,-5.343408,-4.7800217,-7.9444246
0.43773237,-0.09511036,-0.0840246,-5.176617,-4.630817,-7.696445
0.4240712,-0.09214207,-0.08140228,-5.0150604,-4.486294,-7.456247
0.4108385,-0.089266874,-0.07886221,-4.858571,-4.346304,-7.2235827
0.39802068,-0.08648182,-0.07640178,-4.706988,-4.210703,-6.9982133
0.38560456,-0.083784044,-0.07401844,-4.5601544,-4.079351,-6.779906
0.37357733,-0.081170775,-0.07170977,-4.4179206,-3.9521139,-6.5684366
0.3619267,-0.07863933,-0.06947338,-4.280141,-3.8288608,-6.3635893
0.35064077,-0.07618713,-0.067306995,-4.146673,-3.7094655,-6.165154
0.33970794,-0.07381164,-0.0652084,-4.017382,-3.5938063,-5.972927
0.32911712,-0.07151047,-0.06317544,-3.892135,-3.4817648,-5.7867136
0.3188575,-0.06928126,-0.061206058,-3.7708044,-3.373227,-5.6063232
0.30891857,-0.06712174,-0.05929824,-3.6532671,-3.2680821,-5.431572
0.2992903,-0.0650297,-0.057450052,-3.5394032,-3.1662235,-5.2622824
0.28996286,-0.06300304,-0.055659607,-3.429097,-3.0675476,-5.0982823
0.2809268,-0.06103969,-0.053925097,-3.3222365,-2.971954,-4.9394054
0.27217293,-0.059137654,-0.052244756,-3.2187135,-2.8793461,-4.7854905
0.2636924,-0.05729501,-0.050616886,-3.1184232,-2.78963,-4.636381
0.25547665,-0.055509895,-0.049039837,-3.0212636,-2.7027144,-4.4919276
0.24751735,-0.053780496,-0.047512013,-2.927137,-2.6185122,-4.3519826
0.23980643,-0.05210507,-0.04603187,-2.8359478,-2.5369375,-4.216405
0.23233612,-0.050481923,-0.04459791,-2.747604,-2.4579082,-4.085058
0.22509886,-0.048909415,-0.04320869,-2.6620162,-2.3813446,-3.9578087
0.21808738,-0.04738596,-0.041862804,-2.5790985,-2.3071692,-3.834529
0.21129456,-0.045910023,-0.040558897,-2.498767,-2.2353075,-3.7150943
0.20471361,-0.04448011,-0.03929565,-2.4209404,-2.1656868,-3.5993843
0.19833785,-0.04309479,-0.0380718,-2.345541,-2.098237,-3.4872825
0.19216089,-0.041752663,-0.036886107,-2.2724924,-2.0328903,-3.378676
0.18617651,-0.040452376,-0.035737377,-2.201721,-1.9695809,-3.2734551
0.18037868,-0.039192624,-0.034624457,-2.1331558,-1.908245,-3.1715145
0.17476155,-0.037972137,-0.033546228,-2.0667279,-1.8488208,-3.0727513
0.1693195,-0.036789693,-0.032501604,-2.0023704,-1.7912488,-2.9770663
0.16404705,-0.035644095,-0.031489532,-1.9400184,-1.735471,-2.8843632
0.15893891,-0.0345342,-0.030509004,-1.8796095,-1.6814314,-2.794549
0.15398994,-0.03345889,-0.029559027,-1.821083,-1.6290758,-2.7075336
0.14919516,-0.03241708,-0.02863865,-1.7643801,-1.5783514,-2.6232293
0.14454977,-0.031407733,-0.02774695,-1.7094438,-1.5292073,-2.5415516
0.14004911,-0.030429833,-0.026883028,-1.6562191,-1.4815944,-2.4624188
0.13568866,-0.029482394,-0.02604602,-1.6046524,-1.4354647,-2.385751
0.13146405,-0.02856447,-0.025235087,-1.5546921,-1.390772,-2.3114715
0.12737103,-0.02767514,-0.024449414,-1.5062882,-1.3474715,-2.2395058
0.123405494,-0.02681351,-0.023688214,-1.4593918,-1.3055197,-2.1697817
0.11956348,-0.025978718,-0.022950722,-1.4139562,-1.2648747,-2.102229
0.11584113,-0.025169926,-0.0222362,-1.3699356,-1.2254955,-2.0367808
0.112234704,-0.024386324,-0.021543931,-1.3272861,-1.1873428,-1.9733707
0.1087406,-0.023627125,-0.020873223,-1.2859648,-1.1503782,-1.9119354
0.10535531,-0.02289157,-0.020223401,-1.2459304,-1.1145649,-1.8524134
0.102075435,-0.022178922,-0.019593816,-1.2071428,-1.0798668,-1.794745
0.0988977,-0.021488465,-0.018983837,-1.1695629,-1.0462493,-1.7388724
0.09581893,-0.02081951,-0.018392853,-1.1331534,-1.0136786,-1.6847397
0.09283602,-0.020171383,-0.01782027,-1.0978776,-0.982122,-1.6322926
0.089945994,-0.01954344,-0.01726552,-1.0637002,-0.95154816,-1.5814787
0.087145954,-0.018935047,-0.01672804,-1.030587,-0.92192626,-1.532247
0.0844331,-0.0183456,-0.016207295,-0.9985048,-0.8932267,-1.4845481
0.081804715,-0.017774506,-0.015702765,-0.96742153,-0.86542076,-1.4383343
0.079258166,-0.017221192,-0.015213945,-0.9373061,-0.83848053,-1.3935596
0.07679091,-0.016685106,-0.014740343,-0.9081283,-0.8123791,-1.350179
0.07440046,-0.016165711,-0.014281487,-0.8798589,-0.78709036,-1.3081489
0.07208444,-0.015662488,-0.0138369175,-0.8524697,-0.7625889,-1.2674273
0.06984053,-0.01517493,-0.013406188,-0.8259332,-0.7388503,-1.2279736
0.06766648,-0.014702552,-0.01298887,-0.8002229,-0.7158508,-1.1897483
0.06556011,-0.0142448805,-0.012584543,-0.77531296,-0.6935673,-1.152713
0.063519314,-0.013801458,-0.012192804,-0.7511786,-0.6719775,-1.1168306
0.061542057,-0.01337184,-0.011813261,-0.72779554,-0.65105987,-1.0820655
0.059626352,-0.012955597,-0.0114455335,-0.7051405,-0.63079345,-1.0483825
0.05777029,-0.012552312,-0.011089254,-0.6831907,-0.61115795,-1.0157481
0.055972006,-0.012161581,-0.010744066,-0.66192424,-0.59213376,-0.9841298
0.054229703,-0.011783014,-0.010409623,-0.6413198,-0.57370174,-0.95349574
0.052541643,-0.011416233,-0.010085593,-0.6213568,-0.5558436,-0.9238153
0.05090613,-0.011060869,-0.00977165,-0.60201526,-0.5385413,-0.8950589
0.049321532,-0.010716569,-0.009467479,-0.5832758,-0.5217777,-0.86719763
0.047786262,-0.010382986,-0.009172778,-0.56511974,-0.5055359,-0.8402037
0.046298787,-0.010059787,-0.00888725,-0.54752886,-0.48979974,-0.8140501
0.044857614,-0.009746649,-0.008610611,-0.5304856,-0.47455344,-0.7887106
0.043461304,-0.00944326,-0.008342584,-0.5139728,-0.4597817,-0.7641599
0.04210846,-0.009149314,-0.008082899,-0.49797413,-0.44546983,-0.74037355
0.04079773,-0.008864519,-0.007831299,-0.48247343,-0.4316035,-0.71732754
0.0395278,-0.008588589,-0.0075875307,-0.46745527,-0.41816878,-0.694999
