ax,ay,az,gx,gy,gz
-0.33909398,2.749116,-1.3054664,45.665867,70.69064,9.044628
-0.80455744,3.0716288,-1.941804,43.59568,73.36046,2.0888638
-1.1970239,3.2310696,-2.4414818,39.0734,74.93962,-0.3219098
-1.5554165,3.412455,-2.942485,32.825077,75.076805,-0.66148007
-1.9830977,3.609673,-3.5242503,26.974688,72.535126,-2.13271
-2.4634988,3.7407951,-4.1764045,20.692575,65.67257,-5.20392
-2.9799576,3.6330655,-4.953782,14.960282,56.28189,-9.217565
-3.4665403,3.3870037,-5.735953,9.521437,44.24665,-14.034133
-3.8891985,3.007793,-6.4866214,3.6064699,29.164618,-19.016356
-4.241752,2.443553,-7.16196,-1.3433669,11.283623,-23.07301
-4.50761,1.7688414,-7.728518,-4.901505,-10.6795,-25.367113
-4.6374764,1.0314701,-8.160962,-8.280992,-34.168774,-25.589983
-4.4617133,0.10254421,-8.347592,-11.443397,-57.905422,-22.912266
-3.9564936,-0.9814007,-8.248978,-11.377003,-79.16299,-17.732658
-3.1111584,-2.048019,-7.8464413,-7.2028146,-95.74938,-10.347598
-2.0383599,-2.859499,-7.184516,1.0166837,-105.59899,-0.92554283
-0.8594069,-3.199184,-6.2798443,8.961862,-111.00044,8.606137
0.22207206,-3.344766,-5.312205,15.923409,-112.431046,17.944174
1.1546947,-3.3367062,-4.3552294,23.13093,-109.48134,26.455889
1.9228889,-3.1155856,-3.4654813,30.22349,-102.62468,33.31186
2.5115068,-2.7095335,-2.7074175,36.5429,-92.40051,38.19282
2.8880265,-2.110021,-2.145275,41.203026,-81.48288,41.7284
3.1306708,-1.4636183,-1.7127192,44.07589,-70.35239,44.1364
3.2750056,-0.8015056,-1.3871505,45.345715,-58.802086,45.83165
3.3363664,-0.14091447,-1.1871868,45.105827,-47.247204,46.809418
3.3022907,0.482155,-1.1326288,43.894577,-36.61641,46.533604
3.1911056,1.0385482,-1.1872183,42.16272,-27.047272,44.982483
2.998901,1.5059558,-1.359872,40.1705,-18.57633,41.912804
2.781777,1.928027,-1.5970304,37.702015,-11.407728,38.062984
2.5539258,2.307906,-1.8786156,34.647697,-5.82332,33.705444
2.3333945,2.6469324,-2.1765704,30.836666,-2.308671,28.699894
2.1358328,2.9329388,-2.4715838,26.5074,-0.30246806,23.41703
1.966272,3.176347,-2.7432208,21.704386,0.31787097,18.026886
1.835242,3.3756795,-2.977904,16.61385,-0.093898624,12.682015
1.7422224,3.5298288,-3.1835787,11.557516,-1.2706859,7.1241574
1.6862825,3.622275,-3.362422,6.84988,-3.1159332,0.89114314
1.689638,3.6291485,-3.5027268,2.2023494,-5.4312315,-5.3039374
1.7294896,3.580261,-3.5980344,-2.6471772,-8.038408,-11.079594
1.7835345,3.4598198,-3.6449273,-7.6466894,-10.774951,-16.394526
1.8395703,3.274694,-3.6451492,-12.790331,-13.293455,-21.126808
1.8914685,3.030534,-3.6133192,-17.208748,-15.514764,-25.519611
1.9398417,2.743152,-3.5582097,-20.635267,-17.627111,-29.652937
1.986751,2.3963308,-3.4439483,-23.849447,-19.67205,-33.125935
2.030107,2.011554,-3.2789197,-26.81645,-21.337626,-35.76575
2.056879,1.6036687,-3.0819023,-29.439054,-22.564701,-37.547447
2.0733547,1.1909208,-2.866213,-31.289972,-23.051035,-38.681774
2.0769322,0.7780437,-2.6382968,-32.22187,-22.992737,-39.512306
2.0695262,0.39095676,-2.4083197,-32.55278,-22.518133,-39.81089
2.047756,0.04022933,-2.1837971,-32.4293,-21.739992,-39.556484
2.0054176,-0.26875037,-1.9674593,-31.909225,-20.69458,-38.76371
1.9419624,-0.53759897,-1.7644055,-31.152073,-19.389349,-37.190746
1.8793709,-0.7545222,-1.5815138,-30.446602,-17.851637,-34.990044
1.8165865,-0.72931576,-1.5286798,-29.429468,-17.255264,-33.821125
1.7561619,-0.7050568,-1.4778318,-28.450565,-16.681307,-32.696144
1.6979843,-0.6816999,-1.4288749,-27.508064,-16.128695,-31.612997
1.6419486,-0.6592029,-1.38172,-26.60026,-15.596425,-30.569723
1.5879558,-0.6375261,-1.3362844,-25.725555,-15.083564,-29.56449
1.535914,-0.6166325,-1.2924906,-24.882456,-14.5892315,-28.595577
1.4857364,-0.59648746,-1.2502655,-24.069557,-14.112609,-27.661373
1.4373418,-0.5770582,-1.2095408,-23.285543,-13.652922,-26.760365
1.3906537,-0.558314,-1.1702522,-22.529177,-13.209443,-25.891127
1.3455999,-0.540226,-1.1323389,-21.799286,-12.78149,-25.052319
1.3021126,-0.5227669,-1.0957438,-21.094772,-12.368415,-24.242672
1.2601274,-0.5059108,-1.0604128,-20.414597,-11.969609,-23.460995
1.2195836,-0.48963353,-1.0262947,-19.75777,-11.584496,-22.706154
1.180424,-0.47391182,-0.9933413,-19.123367,-11.212528,-21.97708
1.1425937,-0.4587239,-0.9615067,-18.5105,-10.853189,-21.272758
1.1060413,-0.44404897,-0.9307474,-17.918335,-10.505987,-20.592226
1.0707175,-0.4298673,-0.90102196,-17.346075,-10.170456,-19.934568
1.0365757,-0.4161602,-0.87229115,-16.792963,-9.846151,-19.298918
1.0035713,-0.40290973,-0.8445176,-16.258278,-9.532653,-18.684444
0.9716621,-0.390099,-0.81766564,-15.741337,-9.229556,-18.09036
0.94080776,-0.37771168,-0.7917013,-15.241483,-8.936479,-17.515917
0.9109697,-0.3657324,-0.7665922,-14.758093,-8.653054,-16.960392
0.8821111,-0.35414636,-0.7423073,-14.290571,-8.378935,-16.423103
0.8541967,-0.34293944,-0.7188171,-13.838348,-8.113784,-15.903397
0.82719314,-0.33209816,-0.6960932,-13.400878,-7.857284,-15.400644
0.801068,-0.32160953,-0.67410856,-12.977639,-7.6091285,-14.9142475
0.7757905,-0.31146124,-0.6528373,-12.568133,-7.3690243,-14.443632
0.7513311,-0.30164137,-0.6322544,-12.171882,-7.136691,-13.988249
0.7276615,-0.29213858,-0.6123361,-11.788424,-6.91186,-13.547568
0.7047545,-0.28294197,-0.59305954,-11.417319,-6.694272,-13.121086
0.68258387,-0.27404103,-0.57440275,-11.058147,-6.48368,-12.708316
0.6611247,-0.26542568,-0.5563446,-10.7105,-6.279845,-12.30879
0.64035285,-0.25708628,-0.53886485,-10.373987,-6.082539,-11.922061
0.62024516,-0.24901351,-0.521944,-10.048234,-5.8915415,-11.547696
0.60077935,-0.24119845,-0.5055632,-9.732879,-5.7066407,-11.185283
0.5819339,-0.23363248,-0.48970458,-9.427575,-5.527633,-10.834419
0.56368834,-0.2263073,-0.47435066,-9.131989,-5.354323,-10.494723
0.54602265,-0.21921495,-0.45948476,-8.845797,-5.1865215,-10.165825
0.52891773,-0.21234775,-0.44509077,-8.56869,-5.0240464,-9.847365
0.5123551,-0.20569825,-0.43115315,-8.300369,-4.8667226,-9.539004
0.49631706,-0.19925937,-0.41765693,-8.040546,-4.7143817,-9.240409
0.4807864,-0.19302419,-0.4045877,-7.788943,-4.56686,-8.95126
0.4657466,-0.18698606,-0.39193153,-7.545292,-4.424001,-8.671249
0.45118174,-0.1811386,-0.37967497,-7.3093343,-4.285653,-8.400081
0.43707633,-0.17547564,-0.36780512,-7.080821,-4.15167,-8.137467
0.4234156,-0.16999118,-0.35630944,-6.8595114,-4.02191,-7.8831325
0.41018513,-0.16467947,-0.34517586,-6.6451726,-3.8962379,-7.6368084
0.39737114,-0.15953495,-0.3343927,-6.43758,-3.7745209,-7.3982377
0.38496017,-0.15455225,-0.32394874,-6.2365174,-3.6566327,-7.167171
0.37293935,-0.14972618,-0.31383306,-6.0417747,-3.5424502,-6.943368
0.36129618,-0.14505172,-0.3040352,-5.8531504,-3.4318547,-6.7265954
0.35001856,-0.14052403,-0.29454494,-5.6704483,-3.3247316,-6.5166297
0.33909485,-0.13613842,-0.2853525,-5.4934797,-3.2209702,-6.3132524
0.32851377,-0.13189037,-0.27644837,-5.3220615,-3.1204634,-6.1162543
0.3182644,-0.1277755,-0.26782343,-5.156018,-3.0231075,-5.925432
0.30833623,-0.12378958,-0.25946873,-4.9951773,-2.9288025,-5.74059
0.29871905,-0.11992852,-0.25137576,-4.839375,-2.8374517,-5.5615377
0.28940302,-0.11618835,-0.2435362,-4.688451,-2.748961,-5.388092
0.28037858,-0.11256525,-0.23594202,-4.542251,-2.6632402,-5.2200756
0.27163652,-0.10905552,-0.22858547,-4.400626,-2.5802016,-5.057316
0.2631679,-0.10565558,-0.22145902,-4.263431,-2.4997606,-4.8996477
0.25496408,-0.102361955,-0.21455543,-4.130526,-2.421835,-4.74691
0.24701676,-0.09917129,-0.20786765,-4.0017757,-2.3463454,-4.598947
0.23931782,-0.09608035,-0.2013889,-3.8770497,-2.2732153,-4.4556084
0.23185943,-0.09308598,-0.19511257,-3.7562206,-2.2023702,-4.316748
0.22463404,-0.090185165,-0.1890323,-3.639166,-2.133738,-4.182226
0.21763429,-0.08737493,-0.18314195,-3.5257676,-2.0672493,-4.0519056
0.21085313,-0.08465246,-0.1774355,-3.4159098,-2.002837,-3.925654
0.20428367,-0.08201498,-0.17190722,-3.3094816,-1.9404353,-3.803344
0.19791925,-0.07945982,-0.16655149,-3.2063756,-1.8799815,-3.6848516
0.19175346,-0.076984406,-0.1613629,-3.106487,-1.8214144,-3.5700574
0.18578008,-0.074586235,-0.15633622,-3.0097156,-1.7646747,-3.458845
0.17999303,-0.072262876,-0.15146635,-2.9159632,-1.7097052,-3.351102
0.17438653,-0.070011996,-0.14674841,-2.8251355,-1.6564505,-3.2467206
0.16895488,-0.06783132,-0.14217761,-2.7371404,-1.6048567,-3.1455944
0.16369262,-0.06571865,-0.13774936,-2.6518898,-1.554872,-3.047622
0.15859446,-0.063671865,-0.1334592,-2.5692973,-1.506446,-2.9527047
0.15365526,-0.061688893,-0.1293028,-2.48928,-1.4595298,-2.8607466
0.14887004,-0.059767738,-0.12527597,-2.4117575,-1.4140762,-2.7716556
0.14423399,-0.057906475,-0.121374674,-2.3366513,-1.3700396,-2.6853416
0.13974243,-0.056103226,-0.11759498,-2.2638865,-1.3273757,-2.6017182
0.13539088,-0.05435618,-0.113933094,-2.1933894,-1.2860414,-2.5207012
0.13117494,-0.05266358,-0.11038532,-2.1250892,-1.2459953,-2.442209
0.12709036,-0.051023725,-0.106948115,-2.0589175,-1.2071971,-2.3661628
0.12313308,-0.04943497,-0.103618,-1.994808,-1.1696079,-2.2924862
0.1192991,-0.04789572,-0.10039166,-1.9326957,-1.1331899,-2.221105
0.11558457,-0.046404425,-0.09726584,-1.8725188,-1.0979066,-2.1519482
0.11198576,-0.04495959,-0.094237395,-1.8142166,-1.0637225,-2.0849457
0.108499065,-0.043559764,-0.091303304,-1.7577306,-1.0306033,-2.0200307
0.10512099,-0.042203546,-0.0884606,-1.7030044,-0.99851584,-1.9571377
0.10184813,-0.040889576,-0.08570646,-1.6499827,-0.9674279,-1.8962039
0.098677225,-0.039616533,-0.0830381,-1.5986127,-0.93730825,-1.8371681
0.095605075,-0.03838314,-0.08045285,-1.5488427,-0.90812683,-1.779971
0.09262862,-0.03718816,-0.07794812,-1.5006227,-0.8798542,-1.7245554
0.08974486,-0.0360304,-0.0755214,-1.4539046,-0.8524622,-1.6708657
0.086950906,-0.034908697,-0.07317026,-1.4086415,-0.8259232,-1.6188481
0.08424397,-0.03382193,-0.07089234,-1.3647878,-0.8002107,-1.5684503
0.08162133,-0.032769,-0.06868535,-1.3223,-0.77529895,-1.5196222
0.07908036,-0.03174886,-0.066547096,-1.2811352,-0.75116295,-1.4723145
0.076618515,-0.03076049,-0.064475425,-1.2412523,-0.72777855,-1.4264799
0.07423332,-0.029802896,-0.06246826,-1.2026112,-0.7051223,-1.3820727
0.071922414,-0.028875118,-0.060523596,-1.1651734,-0.6831716,-1.3390481
0.06968345,-0.02797623,-0.05863948,-1.1289014,-0.6619043,-1.2973633
0.0675142,-0.02710533,-0.056814037,-1.0937586,-0.6412992,-1.2569764
0.0654125,-0.026261548,-0.055045426,-1.0597101,-0.6213357,-1.217847
0.06337624,-0.025444034,-0.053331885,-1.0267218,-0.60199374,-1.1799359
0.06140337,-0.024651976,-0.051671695,-0.9947605,-0.58325404,-1.1432052
0.05949193,-0.02388458,-0.050063193,-0.96379435,-0.56509775,-1.1076181
0.057639997,-0.023141073,-0.04850477,-0.9337923,-0.54750675,-1.0731388
0.055845726,-0.022420716,-0.046994865,-0.90472436,-0.53046346,-1.0397332
0.054107312,-0.021722784,-0.045531973,-0.87656134,-0.51395077,-1.0073675
0.052423023,-0.021046583,-0.04411462,-0.8492751,-0.49795213,-0.9760095
0.05079117,-0.020391433,-0.042741396,-0.82283837,-0.4824516,-0.9456277
0.04921012,-0.019756678,-0.041410923,-0.7972247,-0.46743363,-0.91619176
0.047678288,-0.019141685,-0.04012187,-0.7724084,-0.45288318,-0.8876722
0.046194147,-0.018545838,-0.038872942,-0.7483647,-0.4387857,-0.86004055
0.044756208,-0.017968541,-0.0376629,-0.72506946,-0.42512712,-0.83326906
0.04336303,-0.017409215,-0.036490526,-0.70249945,-0.41189373,-0.80733097
0.042013228,-0.0168673,-0.03535465,-0.68063205,-0.39907232,-0.7822004
0.040705446,-0.016342256,-0.034254134,-0.6594454,-0.38665003,-0.75785214
0.03943837,-0.015833559,-0.033187877,-0.6389183,-0.37461445,-0.7342618
0.038210742,-0.015340694,-0.03215481,-0.6190302,-0.3629535,-0.7114059
0.03702133,-0.0148631735,-0.031153906,-0.5997612,-0.3516556,-0.68926144
0.035868943,-0.014400518,-0.030184157,-0.581092,-0.3407094,-0.6678063
0.03475243,-0.013952265,-0.029244598,-0.563004,-0.33010393,-0.64701915
0.03367067,-0.013517965,-0.028334284,-0.5454791,-0.3198286,-0.62687904
0.032622587,-0.013097185,-0.02745231,-0.5284997,-0.30987313,-0.60736585
0.03160713,-0.012689503,-0.02659779,-0.51204884,-0.30022758,-0.5884601
