ax,ay,az,gx,gy,gz
-1.7963799,2.9754815,-4.110946,28.686625,49.88318,31.73847
-2.3722475,2.8894882,-4.9338303,29.617344,45.396206,25.311659
-2.8843856,2.9439454,-5.569229,23.892347,36.28803,17.92064
-3.3403678,2.9647675,-6.2840114,16.937523,26.298647,11.680828
-3.7037363,2.871684,-7.0154295,10.283804,14.787382,6.594265
-4.010929,2.6522968,-7.787534,5.056838,0.47194502,1.4526154
-4.192488,2.2928672,-8.496813,-0.67392397,-15.484955,-2.9797246
-4.251364,1.6920762,-9.123656,-4.945812,-33.519493,-5.51984
-4.14733,0.8605705,-9.606449,-6.6335616,-51.235634,-5.955955
-3.8974078,0.06459768,-9.892354,-6.2562776,-68.76678,-4.3855233
-3.5111167,-0.6225238,-9.946234,-4.4316006,-85.19883,-1.8984756
-2.9393942,-1.2697474,-9.710585,-1.2786014,-100.753624,1.4358652
-2.151327,-1.9140651,-9.187613,3.8343,-113.227066,6.492613
-1.1327119,-2.5085633,-8.302456,9.658966,-121.81796,13.35026
-0.109139085,-2.8393054,-7.206368,15.047132,-127.14745,21.545351
0.9199732,-2.8484502,-5.912121,18.131823,-129.58434,30.034306
1.9375985,-2.7096229,-4.5142717,20.409517,-127.628044,37.659565
2.826166,-2.5063612,-3.1988811,23.68861,-118.98957,43.494846
3.4390984,-2.1987367,-2.1512,26.481691,-107.94839,48.881115
3.846277,-1.739965,-1.3069751,28.896194,-96.50571,54.27497
4.092905,-1.1522684,-0.61809534,30.377226,-85.01635,58.83298
4.219948,-0.49475196,-0.09110234,30.913439,-73.252945,62.105133
4.2286415,0.15967526,0.25553933,30.0626,-60.757507,63.210396
4.0803924,0.72634095,0.34568182,28.454544,-48.770496,63.37507
3.8426054,1.2147967,0.27329558,26.082523,-38.064034,62.84485
3.5623536,1.6260041,0.085127704,22.938057,-28.842905,61.620537
3.2550275,1.986311,-0.18607646,20.319502,-21.366154,59.318638
2.935133,2.334528,-0.4781574,18.399504,-15.672396,55.123955
2.6199856,2.6749685,-0.78954566,16.768694,-11.370253,49.74058
2.3272576,2.9940336,-1.1033953,14.75755,-8.749783,43.759377
2.0725453,3.2874155,-1.3890591,12.303611,-7.750408,37.394592
1.8832781,3.5428853,-1.6355106,9.483425,-7.891989,30.801796
1.7715293,3.734909,-1.8467993,6.607483,-8.653383,23.926535
1.714924,3.838152,-2.0391395,4.059938,-9.65203,16.942263
1.679354,3.8992724,-2.2126884,1.719228,-11.035959,9.874989
1.6635953,3.9401762,-2.3552485,-0.5375325,-12.834458,2.9239907
1.6676576,3.9549582,-2.4668908,-2.966502,-15.029197,-3.83736
1.7015289,3.9180367,-2.5522888,-5.5334945,-17.66089,-10.094383
1.7666585,3.8238406,-2.5884554,-8.166379,-20.283192,-15.923902
1.8360728,3.6737075,-2.5830271,-10.7289295,-22.641493,-21.46793
1.8894734,3.4540584,-2.542874,-13.127049,-24.904436,-26.677057
1.939963,3.1636443,-2.4633167,-15.47391,-27.26452,-31.335915
2.0248103,2.8068132,-2.3331916,-17.384903,-29.342232,-35.03991
2.1716125,2.3947554,-2.1244898,-18.866335,-30.681795,-37.881332
2.323215,1.9714277,-1.8719409,-19.989784,-31.173811,-40.011967
2.459323,1.5234519,-1.5912333,-20.7374,-30.904991,-40.994904
2.5729728,1.0825639,-1.2969767,-21.254057,-30.036295,-40.875553
2.6585126,0.6559824,-1.0068177,-21.090282,-28.317379,-39.98022
2.5678723,0.63361704,-0.97249085,-20.371222,-27.351915,-38.617123
2.4808097,0.6121346,-0.93951905,-19.680546,-26.424562,-37.307827
2.3971388,0.5914889,-0.9078316,-19.016773,-25.533333,-36.049534
2.3166864,0.5716375,-0.87736315,-18.378538,-24.67639,-34.83965
2.2392926,0.5525407,-0.8480529,-17.764563,-23.85202,-33.675755
2.1648076,0.5341617,-0.8198444,-17.173666,-23.058638,-32.555607
2.0930927,0.5164662,-0.7926849,-16.604742,-22.29476,-31.477118
2.0240178,0.49942207,-0.7665252,-16.056763,-21.559002,-30.438328
1.9574614,0.48299944,-0.7413193,-15.528763,-20.85007,-29.437414
1.8933097,0.46717015,-0.71702415,-15.019841,-20.166754,-28.472668
1.8314562,0.45190793,-0.69359934,-14.52915,-19.507915,-27.542479
1.7718005,0.43718803,-0.67100686,-14.055895,-18.872488,-26.645342
1.7142484,0.42298716,-0.649211,-13.599327,-18.259466,-25.77984
1.658711,0.40928343,-0.6281782,-13.158743,-17.667906,-24.944637
1.6051044,0.39605612,-0.6078766,-12.733476,-17.09691,-24.138472
1.5533496,0.38328573,-0.58827627,-12.322899,-16.545639,-23.360153
1.5033717,0.3709538,-0.56934893,-11.926418,-16.013296,-22.608559
1.4550998,0.3590428,-0.55106765,-11.543472,-15.499123,-21.882618
1.4084668,0.3475362,-0.53340703,-11.173527,-15.002407,-21.181324
1.3634088,0.33641824,-0.51634294,-10.816077,-14.522469,-20.503716
1.3198655,0.325674,-0.4998524,-10.470642,-14.058662,-19.848886
1.277779,0.31528926,-0.48391366,-10.136766,-13.610375,-19.215967
1.2370949,0.30525053,-0.46850595,-9.8140135,-13.177024,-18.604136
1.1977607,0.2955449,-0.45360953,-9.501971,-12.758053,-18.012606
1.1597267,0.2861601,-0.4392055,-9.200244,-12.35293,-17.440628
1.1229455,0.27708444,-0.42527592,-8.908454,-11.961152,-16.887493
1.0873717,0.26830667,-0.4118036,-8.626244,-11.582235,-16.352514
1.052962,0.25981614,-0.39877212,-8.353267,-11.215716,-15.83504
1.0196748,0.2516026,-0.3861658,-8.089196,-10.8611555,-15.334449
0.9874705,0.24365626,-0.37396958,-7.833716,-10.518128,-14.8501425
0.95631117,0.23596776,-0.36216906,-7.586525,-10.186232,-14.381551
0.9261603,0.22852808,-0.35075048,-7.3473344,-9.865077,-13.928124
0.8969829,0.22132863,-0.33970058,-7.115867,-9.554292,-13.489338
0.86874557,0.21436113,-0.32900667,-6.891857,-9.253519,-13.064689
0.84141606,0.20761763,-0.3186566,-6.6750493,-8.962417,-12.653692
0.8149635,0.20109051,-0.30863863,-6.465198,-8.6806555,-12.255884
0.7893582,0.19477247,-0.29894152,-6.2620683,-8.407918,-11.870817
0.7645716,0.18865642,-0.28955448,-6.0654335,-8.143901,-11.498062
0.7405762,0.1827356,-0.28046706,-5.8750753,-7.8883123,-11.137206
0.7173456,0.17700352,-0.2716693,-5.6907845,-7.6408696,-10.78785
0.6948544,0.17145385,-0.26315156,-5.5123587,-7.4013023,-10.449615
0.673078,0.16608058,-0.2549045,-5.3396044,-7.169349,-10.122129
0.6519929,0.16087787,-0.24691927,-5.1723337,-6.9447594,-9.805039
0.6315763,0.15584013,-0.23918721,-5.010367,-6.7272906,-9.498004
0.61180633,0.15096192,-0.23170003,-4.8535295,-6.516709,-9.200691
0.5926618,0.14623804,-0.22444972,-4.7016535,-6.3127894,-8.912786
0.57412237,0.14166348,-0.21742857,-4.5545783,-6.115315,-8.633979
0.5561683,0.13723336,-0.2106291,-4.4121466,-5.9240756,-8.363976
0.53878075,0.132943,-0.20404416,-4.274209,-5.73887,-8.10249
0.52194124,0.12878789,-0.19766681,-4.1406193,-5.5595026,-7.849249
0.50563216,0.12476367,-0.19149032,-4.0112376,-5.385785,-7.603984
0.48983642,0.1208661,-0.18550824,-3.885928,-5.2175355,-7.3664384
0.47453752,0.117091134,-0.17971432,-3.7645602,-5.0545783,-7.136365
0.45971954,0.11343483,-0.17410254,-3.6470075,-4.8967433,-6.9135237
0.4453671,0.10989339,-0.16866705,-3.5331478,-4.7438664,-6.6976833
0.43146527,0.10646314,-0.16340221,-3.422863,-4.59579,-6.48862
0.41799968,0.10314053,-0.1583026,-3.3160388,-4.45236,-6.2861166
0.40495646,0.09992215,-0.15336294,-3.2125657,-4.3134294,-6.0899653
0.39232215,0.09680466,-0.14857815,-3.1123362,-4.178854,-5.8999634
0.38008377,0.09378487,-0.1439433,-3.0152478,-4.048496,-5.7159157
0.36822873,0.09085967,-0.13945363,-2.9212005,-3.9222207,-5.537633
0.35674495,0.088026054,-0.13510454,-2.8300982,-3.7998998,-5.364933
0.34562057,0.08528114,-0.13089158,-2.7418473,-3.6814077,-5.1976385
0.3348443,0.08262212,-0.12681045,-2.6563578,-3.5666232,-5.0355787
0.3244051,0.08004627,-0.12285697,-2.5735424,-3.4554293,-4.878588
0.31429234,0.07755097,-0.119027115,-2.493317,-3.3477123,-4.7265067
0.30449572,0.075133674,-0.115316994,-2.415599,-3.243363,-4.57918
0.2950053,0.07279193,-0.11172283,-2.3403106,-3.1422746,-4.436457
0.2858114,0.07052336,-0.10824096,-2.2673743,-3.0443451,-4.298194
0.2769047,0.068325646,-0.10486787,-2.1967163,-2.9494746,-4.16425
0.26827618,0.066196576,-0.10160012,-2.1282654,-2.857567,-4.0344896
0.25991708,0.06413399,-0.09843441,-2.0619516,-2.7685294,-3.9087806
0.25181895,0.062135793,-0.09536753,-1.9977083,-2.6822715,-3.7869964
0.24397358,0.060199965,-0.09239638,-1.9354702,-2.598706,-3.6690135
0.23637307,0.058324553,-0.08951795,-1.8751744,-2.5177484,-3.5547125
0.2290097,0.056507662,-0.08672933,-1.8167601,-2.439317,-3.443978
0.22187607,0.05474745,-0.08402772,-1.7601681,-2.3633325,-3.3366985
0.21496497,0.05304215,-0.081410386,-1.7053416,-2.2897182,-3.2327654
0.20826942,0.05139004,-0.078874685,-1.652225,-2.2184,-3.1320739
0.20178269,0.04978945,-0.076418065,-1.600765,-2.1493058,-3.0345225
0.19549821,0.04823877,-0.07403804,-1.5509095,-2.0823662,-2.9400132
0.18940969,0.04673644,-0.07173223,-1.5026087,-2.017514,-2.8484504
0.18351097,0.045280945,-0.0694983,-1.4558135,-1.9546833,-2.7597425
0.17779616,0.043870825,-0.06733401,-1.410477,-1.8938112,-2.6737995
0.17225945,0.042504657,-0.06523718,-1.3665538,-1.8348366,-2.5905356
0.16689532,0.04118107,-0.063205704,-1.3239995,-1.7777001,-2.5098667
0.16169836,0.039898727,-0.06123754,-1.2827715,-1.7223443,-2.4317117
0.15666334,0.03865635,-0.05933071,-1.2428281,-1.6687133,-2.3559923
0.15178522,0.037452683,-0.057483293,-1.2041295,-1.6167537,-2.2826326
0.14705911,0.03628652,-0.05569344,-1.1666366,-1.5664129,-2.2115583
0.14248022,0.035156697,-0.053959355,-1.1303118,-1.5176407,-2.1426988
0.13804401,0.034062065,-0.05227929,-1.0951188,-1.4703878,-2.0759842
0.13374598,0.03300154,-0.050651565,-1.0610222,-1.424607,-2.011348
0.12958185,0.031974047,-0.04907455,-1.0279876,-1.3802525,-1.9487256
0.12554744,0.030978562,-0.047546655,-0.99598205,-1.3372794,-1.8880537
0.12163868,0.030014087,-0.04606635,-0.96497345,-1.295645,-1.8292716
0.11785167,0.02907965,-0.044632155,-0.9349307,-1.2553073,-1.7723203
0.11418261,0.028174317,-0.043242626,-0.9058236,-1.216226,-1.7171428
0.110627815,0.02729718,-0.041896377,-0.877623,-1.1783619,-1.6636839
0.10718373,0.02644736,-0.040592052,-0.8503007,-1.1416769,-1.6118898
0.10384691,0.025624005,-0.039328348,-0.82382935,-1.1061344,-1.5617088
0.100614004,0.024826292,-0.038103998,-0.7981823,-1.0716989,-1.5130905
0.097481765,0.024053419,-0.036917776,-0.7733339,-1.0383356,-1.4659861
0.09444707,0.023304613,-0.03576849,-0.74925935,-1.0060112,-1.4203486
0.09150687,0.022579126,-0.034654994,-0.7259344,-0.9746934,-1.3761322
0.08865822,0.021876227,-0.033576168,-0.7033357,-0.9443508,-1.3332926
0.08589827,0.021195216,-0.032530934,-0.6814407,-0.91495293,-1.291787
0.08322426,0.02053541,-0.031518247,-0.6602275,-0.8864705,-1.2515737
0.080633506,0.019896146,-0.030537091,-0.6396747,-0.8588748,-1.2126124
0.07812341,0.019276787,-0.029586483,-0.61976194,-0.8321384,-1.1748643
0.07569148,0.018676711,-0.028665472,-0.6004691,-0.8062344,-1.1382915
0.07333526,0.01809532,-0.027773138,-0.5817769,-0.78113693,-1.1028572
0.071052395,0.017532028,-0.026908584,-0.56366676,-0.7568208,-1.0685263
0.06884061,0.016986275,-0.026070949,-0.54612035,-0.73326176,-1.0352641
0.06669768,0.016457511,-0.02525939,-0.52912027,-0.7104362,-1.0030376
0.06462147,0.015945211,-0.024473099,-0.5126495,-0.68832123,-0.9718144
0.062609896,0.015448859,-0.023711286,-0.4966914,-0.6668948,-0.9415632
0.060660947,0.01496796,-0.02297319,-0.48123017,-0.6461354,-0.91225374
0.05877267,0.014502032,-0.022258073,-0.46625027,-0.6260222,-0.8838568
0.05694318,0.014050609,-0.021565218,-0.45173672,-0.60653526,-0.85634387
0.055170644,0.013613239,-0.020893931,-0.43767497,-0.58765495,-0.8296875
0.053453285,0.013189485,-0.020243544,-0.424051,-0.56936234,-0.8038609
0.05178939,0.012778923,-0.019613402,-0.41085115,-0.55163926,-0.77883834
0.0501773,0.012381142,-0.019002879,-0.3980622,-0.5344679,-0.7545947
0.048615385,0.011995744,-0.01841136,-0.38567138,-0.517831,-0.7311058
0.047102097,0.011622343,-0.017838255,-0.3736663,-0.50171214,-0.7083481
0.045635916,0.011260566,-0.01728299,-0.36203492,-0.48609498,-0.68629885
0.044215377,0.010910051,-0.016745012,-0.35076562,-0.47096398,-0.66493595
0.04283906,0.010570447,-0.01622378,-0.33984712,-0.45630398,-0.6442381
0.041505586,0.010241415,-0.015718775,-0.32926852,-0.44210038,-0.62418455
0.040213622,0.0099226255,-0.015229488,-0.31901923,-0.42833892,-0.6047553
0.038961872,0.00961376,-0.0147554325,-0.30908898,-0.4150058,-0.58593076
