ax,ay,az,gx,gy,gz
-0.83091664,0.9400086,-4.3109484,7.0464277,-5.492777,-12.373749
-1.2807412,0.9299987,-4.8241277,10.290487,-9.884003,-18.284918
-1.559717,0.9558524,-5.165673,4.1443605,-13.317316,-18.135319
-1.9123093,0.89884835,-5.509463,0.48513246,-18.051085,-16.788553
-2.1912415,0.88013405,-5.806517,-2.64538,-23.521427,-14.499674
-2.3813496,0.82235587,-6.0864406,-5.6115584,-29.315489,-11.756733
-2.5147495,0.7049833,-6.329585,-8.260354,-34.57449,-8.963741
-2.655778,0.53156674,-6.580466,-10.221322,-40.031963,-7.4461093
-2.824216,0.24526832,-6.880589,-10.183848,-46.462357,-6.6981316
-2.9425676,-0.07850367,-7.179417,-9.755702,-54.369717,-4.722543
-2.9381306,-0.3885037,-7.3935385,-9.91607,-63.314747,-0.6213646
-2.8247418,-0.64605826,-7.487916,-9.913651,-72.58338,3.7282817
-2.6059885,-0.8098336,-7.433089,-8.189219,-80.71936,5.3181195
-2.2745419,-0.84850866,-7.2195745,-6.1768713,-87.778076,5.6840916
-1.9270376,-0.82811254,-6.8956094,-5.1490455,-94.19796,7.0211396
-1.6367615,-0.7727129,-6.4531674,-5.045483,-100.56223,9.838369
-1.354093,-0.6968147,-5.8882976,-5.749174,-106.83887,13.745499
-0.98749566,-0.5410412,-5.189978,-7.544206,-112.28006,17.53623
-0.44735992,-0.31753826,-4.2967906,-8.8714905,-115.25578,19.034681
0.103996,-0.13888055,-3.358198,-9.5376625,-115.445244,18.967031
0.5849234,-0.019326868,-2.457537,-10.556763,-114.00723,19.125278
1.0343332,0.05168169,-1.6023924,-11.950556,-111.68272,19.881159
1.4982568,0.06928069,-0.7930016,-12.794413,-107.66652,20.182472
1.9968532,0.0038580918,-0.07213869,-12.733077,-101.88935,19.728292
2.4534433,-0.10108865,0.5189715,-11.852128,-94.435555,18.700966
2.8143635,-0.22250566,0.9689369,-10.240419,-85.78736,17.359058
3.055017,-0.33509573,1.2831842,-8.234802,-76.686455,16.077269
3.1972742,-0.42080715,1.4798203,-6.0811405,-67.5433,15.074411
3.2619445,-0.4801575,1.5665157,-3.9373276,-58.547234,14.296444
3.2745237,-0.4915882,1.5739218,-1.8804069,-49.70599,13.427736
3.239382,-0.47421098,1.5311434,-0.15947604,-41.07019,12.093068
3.1739793,-0.45239305,1.4487829,1.9405887,-32.70117,10.458626
3.0563192,-0.38678345,1.3207254,4.056458,-24.958445,9.023899
2.9183524,-0.3132636,1.1408558,6.106841,-17.947933,7.6101174
2.7576387,-0.24498112,0.94734573,8.074081,-11.796834,6.181561
2.5966394,-0.16008884,0.75946456,9.850434,-6.35752,4.9089108
2.44994,-0.031149067,0.57362574,11.017615,-1.6986182,3.7698183
2.3301291,0.120248474,0.3788968,11.274185,2.3451512,2.2329593
2.2328997,0.24469882,0.16013566,11.31091,5.99804,0.10698642
2.142147,0.33915916,-0.06672319,11.087022,9.237983,-2.4099429
2.0535104,0.41695935,-0.2978339,10.446941,12.087875,-4.8220015
1.9508291,0.48712456,-0.53792477,9.264311,14.461072,-6.8887835
1.8251309,0.55098575,-0.7859578,7.626126,16.01742,-8.714401
1.6822811,0.60766584,-1.0211778,5.9600167,16.933556,-10.749209
1.5532228,0.67232424,-1.2264521,4.1064715,17.537197,-13.043338
1.4235979,0.7171403,-1.4055026,2.1355102,17.956448,-15.553068
1.2765048,0.72096676,-1.5738541,0.21844174,18.109821,-18.026688
1.0993048,0.6814568,-1.7416098,-1.8196197,17.427986,-20.090021
0.89523953,0.5717596,-1.887138,-3.7594664,15.924424,-21.79191
0.69828004,0.43086055,-2.0011203,-5.5689354,13.625547,-23.00861
0.5344909,0.26479208,-2.071775,-7.4293685,10.782184,-23.638582
0.4026773,0.06383112,-2.0893018,-8.927352,7.722518,-23.7322
0.29905906,-0.14803149,-2.0613966,-10.087004,4.5426393,-23.03522
0.22225353,-0.37963858,-1.9858106,-10.89043,1.3381237,-21.844707
0.17907982,-0.611511,-1.8883222,-11.304049,-1.6582432,-20.453787
0.1581543,-0.86388874,-1.778153,-11.02568,-4.2582827,-19.245018
0.15200004,-1.1185408,-1.6458913,-9.934556,-6.3842125,-17.89164
0.15626052,-1.3307601,-1.5002195,-8.368782,-8.055261,-15.729035
0.16945049,-1.4519064,-1.3539835,-6.5639944,-9.526883,-13.201231
0.18793717,-1.5064038,-1.2155823,-4.4674788,-10.844815,-10.912365
0.22269525,-1.5073652,-1.0770913,-2.3239572,-11.912059,-8.8806505
0.26942238,-1.4628716,-0.93554354,-0.24753527,-12.568237,-7.1533875
0.31869397,-1.3670199,-0.80124384,1.5397104,-12.751862,-5.385602
0.36410323,-1.2107654,-0.6903815,2.9778938,-12.706757,-3.600142
0.3994916,-1.0149281,-0.60382044,4.07015,-12.592482,-2.0998504
0.43306196,-0.8019508,-0.5335715,4.874285,-12.440975,-1.0211825
0.47225466,-0.58854467,-0.4727581,5.3479133,-12.126393,-0.20408066
0.50414133,-0.37898767,-0.43344918,5.418936,-11.627164,0.30620682
0.5196902,-0.20090653,-0.43062437,5.230285,-11.111566,0.6511853
0.52585423,-0.06280741,-0.44466656,4.773528,-10.605439,1.1014222
0.5267823,0.045091446,-0.4683023,4.1046214,-10.085099,1.6240904
0.5232599,0.12686686,-0.4972267,3.4404233,-9.438405,1.9741572
0.51712304,0.18968092,-0.52776706,3.0288434,-8.669655,2.0238793
0.5007223,0.18366511,-0.5110287,2.9327824,-8.394693,1.9596912
0.48485988,0.17784679,-0.49483982,2.8398747,-8.128757,1.8976101
0.46951658,0.17221884,-0.47918066,2.7500072,-7.871524,1.8375604
0.4546738,0.16677451,-0.46403238,2.6630716,-7.6226826,1.7794698
0.44031388,0.1615073,-0.4493769,2.5789642,-7.381936,1.7232691
0.42641988,0.15641096,-0.43519694,2.4975855,-7.149001,1.6688918
0.41297558,0.15147959,-0.42147592,2.418841,-6.923605,1.6162745
0.39996538,0.14670745,-0.4081979,2.3426387,-6.705487,1.565356
0.3873743,0.14208904,-0.39534768,2.2688916,-6.4943957,1.516078
0.37518808,0.13761912,-0.3829106,2.1975155,-6.290091,1.4683844
0.36339286,0.13329263,-0.37087262,2.12843,-6.0923424,1.4222212
0.35197544,0.12910472,-0.3592202,2.0615568,-5.9009275,1.3775364
0.34092307,0.12505071,-0.34794033,1.9968219,-5.7156324,1.3342805
0.3302235,0.1211261,-0.33702055,1.9341534,-5.5362525,1.2924052
0.31986496,0.11732659,-0.3264488,1.8734823,-5.36259,1.2518648
0.30983612,0.113648,-0.31621352,1.8147423,-5.1944547,1.2126145
0.30012602,0.11008633,-0.30630353,1.7578692,-5.031663,1.1746118
0.29072416,0.106637724,-0.29670817,1.7028016,-4.874039,1.1378155
0.28162038,0.103298455,-0.287417,1.6494797,-4.721413,1.1021857
0.27280492,0.10006495,-0.2784201,1.5978467,-4.5736203,1.0676845
0.26426837,0.09693373,-0.26970783,1.5478473,-4.430504,1.0342747
0.25600162,0.093901485,-0.26127094,1.499428,-4.29191,1.0019209
0.2479959,0.09096499,-0.25310043,1.4525378,-4.157693,0.9705887
0.24024275,0.08812113,-0.2451877,1.4071268,-4.02771,0.940245
0.23273401,0.08536692,-0.2375244,1.3631473,-3.9018247,0.9108578
0.22546178,0.08269946,-0.23010248,1.3205531,-3.7799046,0.8823962
0.21841845,0.08011597,-0.22291417,1.2792995,-3.6618218,0.85483056
0.21159665,0.077613726,-0.21595198,1.2393436,-3.5474534,0.8281319
0.20498931,0.07519015,-0.20920862,1.2006437,-3.4366803,0.80227256
0.19858953,0.07284271,-0.20267713,1.1631595,-3.329387,0.77722555
0.1923907,0.07056898,-0.1963507,1.1268523,-3.2254624,0.752965
0.18638639,0.068366595,-0.1902228,1.0916845,-3.124799,0.7294658
0.18057041,0.066233285,-0.1842871,1.0576196,-3.0272932,0.7067036
0.17493676,0.064166866,-0.1785375,1.0246228,-2.9328442,0.684655
0.16947965,0.062165197,-0.17296807,0.9926599,-2.8413548,0.6632974
0.16419348,0.06022623,-0.1675731,0.9616983,-2.7527313,0.64260876
0.15907285,0.058347978,-0.16234706,0.9317062,-2.666883,0.62256795
0.15411249,0.056528512,-0.1572846,0.9026528,-2.5837216,0.6031545
0.14930733,0.05476598,-0.15238054,0.87450856,-2.5031624,0.5843484
0.14465249,0.053058583,-0.14762989,0.8472446,-2.4251232,0.5661306
0.1401432,0.051404577,-0.14302778,0.82083327,-2.3495243,0.5484825
0.13577488,0.049802274,-0.13856955,0.79524755,-2.2762887,0.5313861
0.13154308,0.048250053,-0.13425066,0.77046156,-2.205342,0.514824
0.12744352,0.04674633,-0.13006671,0.74644995,-2.1366122,0.4987794
0.12347202,0.04528958,-0.12601346,0.72318846,-2.0700293,0.483236
0.119624555,0.043878328,-0.1220868,0.70065343,-2.0055258,0.46817806
0.11589723,0.042511147,-0.11828276,0.6788221,-1.9430366,0.45359033
0.11228627,0.041186642,-0.11459747,0.65767235,-1.8824981,0.43945798
0.10878801,0.039903484,-0.11102721,0.6371827,-1.8238493,0.42576677
0.10539894,0.038660366,-0.107568376,0.6173325,-1.7670308,0.41250286
0.10211561,0.037456043,-0.10421746,0.59810174,-1.7119853,0.3996528
0.09893472,0.03628929,-0.1009711,0.57947093,-1.6586572,0.38720363
0.095853046,0.035158932,-0.097826004,0.5614213,-1.6069925,0.37514284
0.0928675,0.03406383,-0.094779,0.5439346,-1.5569392,0.3634582
0.08997506,0.033002883,-0.09182702,0.5269933,-1.5084469,0.35213795
0.087172806,0.031975016,-0.08896709,0.5105802,-1.4614668,0.34117073
0.08445793,0.0309792,-0.08619633,0.49467885,-1.4159514,0.33054543
0.08182769,0.030014426,-0.083511956,0.4792733,-1.371855,0.32025138
0.079279445,0.029079728,-0.080911264,0.46434793,-1.3291332,0.31027824
0.07681063,0.028174166,-0.07839163,0.4498878,-1.2877431,0.30061597
0.07441875,0.027296826,-0.075950526,0.43587837,-1.2476429,0.29125482
0.07210143,0.026446829,-0.073585495,0.42230552,-1.2087924,0.28218544
0.06985631,0.02562332,-0.07129417,0.40915567,-1.1711528,0.27339864
0.067681156,0.02482547,-0.06907424,0.39641553,-1.1346859,0.26488566
0.065573774,0.024052482,-0.066923484,0.3840724,-1.0993553,0.25663796
0.06353205,0.023303578,-0.064839736,0.3721138,-1.0651255,0.2486472
0.061553933,0.022578005,-0.062820904,0.36052778,-1.031962,0.24090539
0.059637442,0.021875035,-0.060864966,0.34930268,-0.9998317,0.23340477
0.05778065,0.021193963,-0.058969956,0.33842728,-0.9687023,0.22613779
0.0559817,0.020534107,-0.057133976,0.32789063,-0.9385426,0.21909718
0.05423878,0.019894805,-0.055355184,0.31768218,-0.90932226,0.21227588
0.052550152,0.019275414,-0.053631797,0.30779168,-0.8810121,0.20566703
0.050914112,0.018675314,-0.051962085,0.29820925,-0.85358363,0.19926403
0.04932903,0.018093906,-0.050344374,0.28892526,-0.8270095,0.19306044
0.04779331,0.017530603,-0.048777048,0.27993038,-0.8012629,0.18705006
0.046305418,0.016984845,-0.04725853,0.27121565,-0.77631813,0.18122685
0.04486386,0.01645608,-0.0457873,0.2627723,-0.7521502,0.17558499
0.043467198,0.015943782,-0.044361886,0.25459188,-0.72873485,0.17011881
0.042114023,0.015447438,-0.04298086,0.2466662,-0.70604867,0.16482286
0.040802985,0.014966549,-0.041642837,0.23898731,-0.68406886,0.15969181
0.03953277,0.014500634,-0.040346477,0.23154753,-0.6627735,0.15472053
0.038302105,0.014049226,-0.039090484,0.22433941,-0.6421412,0.14990406
0.037109762,0.013611874,-0.037873596,0.21735573,-0.6221514,0.14523754
0.035954542,0.013188139,-0.036694597,0.21058948,-0.6027839,0.14071633
0.03483529,0.012777598,-0.03555231,0.20403393,-0.58401954,0.13633588
0.033750888,0.012379838,-0.034445588,0.19768247,-0.56583935,0.13209182
0.032700248,0.011994463,-0.033373322,0.19152875,-0.54822516,0.1279799
0.03168232,0.011621086,-0.03233444,0.18556663,-0.5311594,0.123996004
0.030696081,0.011259333,-0.031327903,0.17979014,-0.51462495,0.120136134
0.029740548,0.010908844,-0.030352702,0.17419349,-0.49860528,0.11639644
0.028814765,0.010569266,-0.02940786,0.16877106,-0.48308435,0.11277317
0.027917802,0.01024026,-0.028492438,0.16351746,-0.46804664,0.109262705
0.027048763,0.009921496,-0.027605511,0.15842742,-0.45347705,0.10586152
0.02620678,0.009612656,-0.026746197,0.15349583,-0.43936107,0.10256623
0.025391009,0.009313431,-0.025913633,0.14871778,-0.4256845,0.09937352
0.024600632,0.009023521,-0.02510699,0.14408846,-0.41243374,0.0962802
0.023834862,0.008742636,-0.024325458,0.13960327,-0.39959547,0.093283184
0.023092931,0.008470495,-0.023568256,0.13525769,-0.38715687,0.09037947
0.022374097,0.008206827,-0.022834625,0.13104741,-0.37510547,0.087566145
0.02167764,0.007951366,-0.022123832,0.12696818,-0.36342925,0.0848404
0.021002863,0.0077038575,-0.021435166,0.12301595,-0.35211653,0.08219951
0.02034909,0.007464054,-0.020767938,0.119186744,-0.34115595,0.07964082
0.019715672,0.0072317156,-0.020121481,0.115476735,-0.33053654,0.07716179
0.01910197,0.00700661,-0.019495148,0.111882225,-0.32024774,0.07475993
0.018507373,0.006788511,-0.018888313,0.10839961,-0.31027922,0.07243284
0.017931284,0.0065772017,-0.018300368,0.105025396,-0.300621,0.07017819
0.01737313,0.0063724704,-0.017730722,0.10175622,-0.29126343,0.067993715
