ax,ay,az,gx,gy,gz
-2.3227484,0.7527341,-4.841862,25.579323,5.881871,-34.62395
-2.531561,0.5332095,-5.5442405,25.227535,2.1778784,-36.680405
-2.707828,0.45978314,-6.0673685,18.909145,-2.293406,-32.380875
-2.8802147,0.3976551,-6.55469,12.995048,-8.321449,-27.860533
-2.98514,0.4060101,-7.0411153,9.383318,-15.458775,-25.4584
-2.9574802,0.36893868,-7.4556484,6.325508,-22.607313,-24.113895
-2.8707762,0.2589047,-7.844202,3.4016678,-30.505083,-22.806528
-2.811867,0.072428815,-8.233112,-0.40834793,-39.181408,-21.397875
-2.7717462,-0.2994097,-8.448506,-2.2220654,-47.80719,-19.225496
-2.7452857,-0.6057946,-8.50866,-2.1697993,-55.59008,-16.017237
-2.767272,-0.7358395,-8.505521,-1.7283461,-63.117577,-12.775432
-2.8096359,-0.82209265,-8.456283,-0.60134673,-71.351524,-9.808107
-2.8214495,-0.89736146,-8.290476,0.44990322,-80.1245,-6.0958323
-2.715638,-0.8724101,-7.9665747,0.58564246,-89.564735,-1.2852421
-2.411675,-0.7406763,-7.442967,-0.45248863,-98.13222,3.9187772
-1.9721721,-0.5614763,-6.802882,-1.806419,-104.433395,7.9561963
-1.5230843,-0.44210333,-6.200263,-2.8479862,-107.91427,9.84087
-1.1519985,-0.5168956,-5.676961,-3.230594,-110.983475,11.672804
-0.75239265,-0.58944637,-5.092946,-3.918602,-114.24367,14.671022
-0.26703006,-0.61932296,-4.3974614,-4.524017,-116.399765,17.696756
0.25285652,-0.6050658,-3.6626122,-4.6187506,-116.25846,19.90092
0.684989,-0.563495,-2.9729033,-3.8469374,-113.44337,20.27768
0.97174335,-0.47796643,-2.3093755,-3.4880965,-110.556015,20.764494
1.2590774,-0.35719064,-1.6193467,-3.4608948,-107.856804,21.352905
1.6202275,-0.22261372,-0.9043674,-3.3605425,-104.12573,21.179821
2.0270767,-0.09285728,-0.21758977,-3.2138984,-98.76821,20.255901
2.4175937,0.022946078,0.40196508,-2.8823233,-91.02309,18.442394
2.6792464,0.10932408,0.9130041,-2.5594234,-82.634926,16.312246
2.8783202,0.15056534,1.3224986,-2.1206703,-73.956215,14.045869
3.0569572,0.16016404,1.625335,-1.6628106,-65.072556,11.634453
3.196113,0.14541355,1.8194327,-1.3841375,-55.820568,9.27954
3.2757778,0.123139784,1.9344432,-1.409766,-46.30251,7.0617185
3.2806292,0.0927585,1.9575574,-1.4779305,-36.979755,4.8811636
3.2480958,0.048556417,1.8760868,-1.477421,-28.05974,2.685433
3.1827326,-0.012242231,1.682995,-1.4413656,-19.894655,0.7323177
3.0901496,-0.08325806,1.3994694,-1.3136673,-12.777256,-0.67996013
2.981783,-0.15719101,1.0562515,-1.1254759,-7.0029073,-1.5522586
2.8599598,-0.21981852,0.66574734,-0.9921913,-2.1313484,-2.3016973
2.7298849,-0.27976388,0.26979947,-0.89011854,1.955357,-2.7556827
2.6017263,-0.30258954,-0.106966645,-1.0383518,5.260558,-2.5299373
2.4759939,-0.2623437,-0.4416167,-1.5333065,7.925165,-1.7709606
2.3497639,-0.1694971,-0.73132503,-2.2358298,10.128036,-1.0900218
2.233207,-0.045375325,-0.9753611,-2.9441895,12.133614,-0.69313693
2.1222036,0.095966525,-1.1819626,-3.8262963,14.103798,-0.42542952
1.9901379,0.26964232,-1.3640038,-4.880164,15.913074,-0.40199888
1.8365039,0.46797246,-1.5281274,-6.214346,17.402592,-0.7973833
1.6664263,0.66140085,-1.6843077,-7.702041,18.390383,-1.8758557
1.4791112,0.78921515,-1.8400437,-9.133494,18.83144,-3.4945815
1.2952363,0.84420204,-1.9786358,-10.326611,18.805342,-5.4459877
1.1137375,0.8465685,-2.0973141,-11.352609,18.30846,-7.4735126
0.939646,0.8348122,-2.184421,-12.556854,17.306002,-9.273825
0.76550585,0.81948084,-2.238777,-13.806969,15.631303,-11.320327
0.5909365,0.7236864,-2.2495081,-14.74855,13.408581,-13.568384
0.44268677,0.54364586,-2.233891,-15.654741,10.666418,-15.141165
0.32562402,0.29467016,-2.2044442,-16.567682,7.5551214,-15.719303
0.2464991,-0.022363305,-2.1530132,-17.175083,4.383123,-15.506698
0.19166622,-0.37489334,-2.0910277,-16.73474,1.2424996,-14.384631
0.16437736,-0.70872116,-2.018894,-15.412167,-1.8846704,-13.1330805
0.17338182,-1.0066763,-1.9188633,-13.307492,-4.76623,-11.738938
0.21731009,-1.2331004,-1.7969803,-10.712988,-7.2312675,-10.00864
0.28236204,-1.369945,-1.6627641,-7.8907647,-9.262441,-8.008264
0.36732906,-1.4058757,-1.5157193,-5.2009664,-10.631288,-5.812965
0.4527354,-1.327799,-1.3717831,-2.6145425,-11.4732,-4.021407
0.51681256,-1.180999,-1.2373009,-0.2296384,-12.032173,-2.555458
0.57022786,-0.9735071,-1.1026418,1.5156763,-12.526783,-1.025942
0.63013613,-0.721306,-0.96384573,2.507665,-12.808515,0.3788609
0.695061,-0.45911142,-0.83158857,2.7793787,-12.577977,1.2547694
0.7492195,-0.22903019,-0.72907126,2.6338406,-11.974472,1.7593994
0.78229934,-0.053311057,-0.66069156,2.261235,-11.213874,1.9410132
0.7982332,0.06770959,-0.6178135,1.7103496,-10.385297,1.9997803
0.8003909,0.14964257,-0.59142435,0.92908597,-9.454133,2.0915813
0.79335165,0.20895275,-0.5726196,-0.13095069,-8.330695,2.1842153
0.7690803,0.2439474,-0.56174,-1.2741674,-7.077715,2.262165
0.7446886,0.23621051,-0.5439242,-1.2337567,-6.8532424,2.1904194
0.7210976,0.2287276,-0.5266932,-1.1946725,-6.6361384,2.1210291
0.69827855,0.22148953,-0.5100261,-1.1568673,-6.426139,2.0539095
0.6762039,0.21448761,-0.49390268,-1.1202953,-6.22299,1.9889795
0.65484744,0.20771348,-0.4783038,-1.0849131,-6.02645,1.9261618
0.63418394,0.20115913,-0.46321106,-1.050679,-5.836287,1.8653823
0.61418915,0.19481692,-0.4486068,-1.0175529,-5.6522784,1.8065698
0.59484,0.18867949,-0.43447405,-0.9854963,-5.4742117,1.7496564
0.57611424,0.1827398,-0.42079666,-0.95447254,-5.3018813,1.6945766
0.5579905,0.17699106,-0.407559,-0.92444617,-5.135092,1.6412677
0.5404483,0.17142679,-0.39474612,-0.89538336,-4.9736543,1.5896693
0.523468,0.16604075,-0.3823436,-0.86725134,-4.817387,1.5397235
0.5070306,0.1608269,-0.37033764,-0.8400188,-4.666116,1.4913747
0.4911179,0.1557795,-0.35871494,-0.81365556,-4.519675,1.4445692
0.4757124,0.15089296,-0.34746265,-0.7881326,-4.3779,1.3992556
0.4607972,0.14616196,-0.33656853,-0.76342195,-4.2406383,1.3553842
0.44635603,0.14158131,-0.32602063,-0.7394967,-4.107739,1.3129072
0.43237332,0.13714609,-0.31580758,-0.71633095,-3.9790583,1.2717786
0.41883394,0.13285148,-0.30591837,-0.6938997,-3.8544574,1.231954
0.40572333,0.12869288,-0.2963423,-0.6721788,-3.7338028,1.1933906
0.3930275,0.12466585,-0.28706923,-0.6511451,-3.6169655,1.1560472
0.38073298,0.120766096,-0.27808923,-0.6307762,-3.503821,1.1198841
0.36882663,0.11698948,-0.2693928,-0.6110505,-3.394249,1.084863
0.35729593,0.11333201,-0.2609707,-0.5919471,-3.2881339,1.0509467
0.3461287,0.10978984,-0.2528141,-0.5734459,-3.1853638,1.0180995
0.33531323,0.10635924,-0.24491444,-0.55552745,-3.0858307,0.986287
0.3248382,0.10303662,-0.23726341,-0.538173,-2.9894307,0.9554758
0.31469265,0.09981851,-0.22985305,-0.52136445,-2.8960629,0.9256338
0.304866,0.09670157,-0.22267562,-0.5050842,-2.80563,0.89672977
0.29534808,0.09368254,-0.21572368,-0.48931548,-2.718038,0.8687338
0.28612897,0.0907583,-0.20899001,-0.47404182,-2.6331964,0.8416169
0.27719918,0.08792583,-0.20246765,-0.4592475,-2.551017,0.81535095
0.2685495,0.085182205,-0.19614987,-0.44491717,-2.4714153,0.7899088
0.26017097,0.08252459,-0.19003016,-0.4310361,-2.3943093,0.76526433
0.25205502,0.07995026,-0.18410222,-0.41759008,-2.3196194,0.7413921
0.24419327,0.07745656,-0.17835997,-0.40456522,-2.2472692,0.7182677
0.2365777,0.07504095,-0.17279752,-0.3919482,-2.1771846,0.6958673
0.22920051,0.072700955,-0.16740918,-0.37972608,-2.1092935,0.6741681
0.22205415,0.070434175,-0.16218944,-0.3678864,-2.0435266,0.6531479
0.21513134,0.0682383,-0.15713298,-0.35641706,-1.9798172,0.63278514
0.208425,0.06611109,-0.15223464,-0.3453064,-1.9180998,0.6130592
0.2019283,0.064050384,-0.14748943,-0.33454308,-1.8583119,0.5939499
0.19563466,0.06205408,-0.14289252,-0.3241161,-1.8003926,0.57543784
0.18953767,0.06012015,-0.13843925,-0.31401497,-1.744283,0.55750424
0.18363114,0.05824664,-0.13412508,-0.30422938,-1.6899261,0.5401308
0.17790908,0.056431636,-0.12994567,-0.2947494,-1.637267,0.5233
0.1723657,0.054673307,-0.12589675,-0.28556544,-1.5862522,0.5069947
0.16699536,0.052969873,-0.12197424,-0.2766682,-1.53683,0.4911985
0.16179267,0.05131961,-0.11817416,-0.26804867,-1.4889504,0.47589532
0.15675233,0.04972085,-0.11449267,-0.25969812,-1.4425651,0.46106973
0.15186927,0.04817197,-0.11092606,-0.25160816,-1.3976271,0.44670674
0.14713855,0.04667142,-0.10747072,-0.2437706,-1.3540912,0.4327919
0.14255542,0.045217674,-0.104123175,-0.2361775,-1.3119133,0.41931105
0.13811521,0.043809272,-0.100880034,-0.22882125,-1.2710508,0.40625072
0.13381349,0.042444795,-0.09773803,-0.22169441,-1.2314628,0.39359766
0.1296459,0.04112286,-0.094694,-0.2147898,-1.1931093,0.38133916
0.12560827,0.039842147,-0.09174489,-0.20810045,-1.1559515,0.36946288
0.121696495,0.038601357,-0.088887714,-0.20161967,-1.1199522,0.35795686
0.11790667,0.03739925,-0.08611961,-0.1953409,-1.085075,0.3468095
0.11423497,0.03623461,-0.083437786,-0.18925785,-1.051285,0.3360096
0.11067771,0.03510627,-0.080839545,-0.18336439,-1.0185481,0.32554632
0.10723131,0.034013096,-0.07832228,-0.1776546,-0.98683155,0.31540912
0.10389231,0.032953985,-0.075883456,-0.17212273,-0.9561033,0.3055878
0.10065736,0.031927876,-0.07352063,-0.16676325,-0.92633253,0.29607254
0.0975232,0.030933741,-0.071231425,-0.16157076,-0.8974894,0.28685376
0.09448669,0.02997058,-0.06901354,-0.15654005,-0.8695449,0.2779222
0.09154478,0.029037425,-0.06686475,-0.15166606,-0.842471,0.2692689
0.08869452,0.02813334,-0.06478291,-0.14694391,-0.81624055,0.26088518
0.085933045,0.027257418,-0.06276592,-0.14236887,-0.7908272,0.2527626
0.08325759,0.026408782,-0.060811754,-0.13793634,-0.7662055,0.24489304
0.08066548,0.025586579,-0.058918457,-0.13364187,-0.74235064,0.23726863
0.078154095,0.024789985,-0.057084136,-0.12948115,-0.7192389,0.22988167
0.075720936,0.024018202,-0.05530694,-0.12545003,-0.6968469,0.2227248
0.07336355,0.023270454,-0.053585097,-0.121544465,-0.6751523,0.21579082
0.07107959,0.022545995,-0.05191688,-0.117760524,-0.6541334,0.20907278
0.06886675,0.021844098,-0.050300613,-0.11409443,-0.63376904,0.20256397
0.066722825,0.02116406,-0.04873468,-0.11054249,-0.6140388,0.19625786
0.06464566,0.020505195,-0.04721751,-0.10710117,-0.5949231,0.19014812
0.06263319,0.01986685,-0.045747586,-0.103767015,-0.57640254,0.18422863
0.06068337,0.019248381,-0.044323433,-0.100536674,-0.55845875,0.17849346
0.05879427,0.018649172,-0.042943623,-0.097406924,-0.5410737,0.17293689
0.056963995,0.01806862,-0.04160678,-0.09437463,-0.52422994,0.16755332
0.055190705,0.017506143,-0.04031156,-0.09143675,-0.50791067,0.1623374
0.05347263,0.01696118,-0.03905667,-0.08859034,-0.49209952,0.15728386
0.051808048,0.016433185,-0.037840854,-0.08583256,-0.47678065,0.15238768
0.05019529,0.01592163,-0.036662888,-0.08316064,-0.46193874,0.14764394
0.048632752,0.0154260015,-0.0355216,-0.08057191,-0.44755894,0.14304788
0.047118858,0.014945803,-0.034415845,-0.07806378,-0.43362683,0.13859494
0.045652095,0.014480556,-0.033344515,-0.075633734,-0.42012846,0.13428062
0.044230998,0.014029793,-0.03230654,-0.07327934,-0.40705037,0.13010062
0.042854145,0.013593065,-0.03130088,-0.07099825,-0.3943794,0.12605076
0.041520156,0.013169931,-0.030326527,-0.06878818,-0.38210297,0.122126974
0.0402277,0.012759971,-0.029382508,-0.06664691,-0.37020868,0.11832535
0.038975477,0.012362774,-0.028467879,-0.064572304,-0.3586847,0.114642076
0.03776224,0.011977944,-0.027581723,-0.06256228,-0.34751946,0.11107347
0.03658677,0.011605091,-0.026723156,-0.060614828,-0.3367018,0.107615955
0.03544789,0.011243847,-0.025891315,-0.058728006,-0.32622093,0.10426608
0.034344472,0.01089385,-0.025085371,-0.05689992,-0.31606632,0.101020485
0.0332754,0.010554747,-0.024304515,-0.055128746,-0.30622783,0.09787593
0.03223961,0.0102262,-0.023547968,-0.053412706,-0.29669562,0.09482926
0.031236062,0.009907881,-0.022814972,-0.051750086,-0.28746015,0.09187744
0.030263754,0.009599471,-0.022104794,-0.050139226,-0.27851218,0.0890175
0.029321713,0.009300662,-0.021416724,-0.04857851,-0.26984274,0.086246595
0.028409,0.009011155,-0.020750074,-0.047066376,-0.2614432,0.08356195
0.027524697,0.00873066,-0.020104174,-0.045601316,-0.2533051,0.08096087
0.026667923,0.008458897,-0.019478383,-0.04418186,-0.24542037,0.07844076
0.025837818,0.008195593,-0.01887207,-0.042806596,-0.23778105,0.0759991
