ax,ay,az,gx,gy,gz
-2.127292,1.118192,-6.2073293,11.430104,10.986464,-7.435522
-2.4292328,1.4473392,-7.0162134,3.8318355,11.364557,-9.912425
-2.79789,1.5131555,-7.5493684,-1.5090744,6.2716055,-15.072278
-2.9587555,1.3853278,-7.852105,-7.1910415,1.0754153,-16.970694
-2.9603822,1.2800981,-8.053338,-15.105248,-2.6291218,-13.200792
-3.0556412,1.1973369,-8.423152,-21.53449,-7.466537,-6.945639
-3.2512288,1.1043733,-8.900411,-24.201708,-15.861392,-2.783336
-3.356759,0.93254143,-9.22332,-24.458479,-27.014547,-1.7202877
-3.3177745,0.60015154,-9.285455,-23.122252,-37.385605,-1.0740349
-3.2586107,0.25968465,-9.242317,-21.954382,-47.255985,0.94422823
-3.1594956,-0.028319992,-9.118045,-21.335558,-57.126377,4.6363225
-3.0011034,-0.24272765,-8.930658,-21.127535,-66.91765,8.490873
-2.7996368,-0.4564731,-8.639762,-20.006285,-76.589195,11.455438
-2.5348816,-0.5220514,-8.11074,-19.613256,-85.51131,14.916345
-2.2281442,-0.3995333,-7.3935575,-20.608482,-94.14965,19.203691
-1.7810506,-0.17819668,-6.5247064,-23.827484,-101.444046,24.305073
-1.2558632,-0.051275298,-5.5914106,-28.059826,-106.40334,29.842009
-0.73671037,-0.05920556,-4.702418,-32.46324,-108.70891,35.799805
-0.24337646,-0.18250225,-3.8389428,-35.69324,-109.34672,40.0307
0.23707603,-0.34743428,-2.960368,-36.95037,-108.166794,41.406742
0.6912929,-0.5429522,-2.093927,-36.831005,-105.27668,40.710083
1.11484,-0.7993651,-1.2854671,-35.607025,-101.13738,39.712357
1.5110185,-1.0399828,-0.56559527,-33.468678,-95.85724,39.50491
1.8646255,-1.2267061,0.04436465,-30.76943,-90.12312,39.840343
2.1895962,-1.3524747,0.55561054,-27.532862,-83.55076,40.24597
2.4851604,-1.4177091,0.95971936,-23.667976,-75.99645,39.143494
2.7151968,-1.4600928,1.2571362,-18.892174,-67.34464,36.174515
2.8460937,-1.4731132,1.4330056,-14.056583,-58.104977,32.990166
2.8852777,-1.4275898,1.4889454,-9.963335,-49.310337,30.568073
2.8885157,-1.3491495,1.4824482,-6.289444,-41.003185,28.443384
2.8594625,-1.2375715,1.4374945,-2.8364155,-33.13981,25.938345
2.8069956,-1.1221946,1.3676926,0.35102206,-25.587677,22.873833
2.7394807,-1.0226955,1.247843,3.468471,-18.469173,19.305677
2.6547427,-0.9275462,1.0540589,6.0326467,-12.113611,15.84891
2.566325,-0.82888365,0.8354535,8.182886,-6.523304,12.680585
2.4817643,-0.71940064,0.59447175,9.9738035,-1.5899973,9.62043
2.3989422,-0.6051242,0.33310145,11.489542,2.7985685,6.511757
2.310897,-0.4843348,0.05385776,12.460694,6.6286783,3.37383
2.1920953,-0.35945642,-0.24043499,13.197892,9.791729,0.15691946
2.0554092,-0.23065516,-0.5318847,13.49865,12.185478,-3.0491986
1.9047787,-0.11144244,-0.81027406,13.381175,13.817104,-6.240285
1.7569622,-0.0037775557,-1.0737011,12.62533,14.810263,-9.188875
1.6182443,0.09265302,-1.3140613,11.1367445,15.271146,-11.859465
1.4764485,0.16736802,-1.5151359,9.637443,15.294383,-14.480852
1.3443743,0.23203687,-1.6831706,7.896586,15.085904,-16.83663
1.1983769,0.27853096,-1.8449949,5.78332,14.614699,-19.027903
1.0390728,0.285761,-2.001318,3.451721,13.705767,-21.43215
0.883461,0.21178874,-2.1304383,1.7465448,12.352279,-24.20557
0.7347256,0.06556514,-2.2013738,0.60491,10.765789,-26.620354
0.587318,-0.09207615,-2.2352657,-0.48545644,8.881858,-28.078949
0.4421113,-0.2558533,-2.24153,-1.7289325,6.5669904,-28.529682
0.32000983,-0.43068153,-2.218019,-2.8713105,3.9048367,-28.469381
0.24424203,-0.62154734,-2.163264,-3.2362065,1.1889063,-28.291075
0.21652617,-0.80570465,-2.0761735,-3.1447937,-1.2421943,-27.944874
0.19222616,-0.9823842,-1.9601547,-2.779767,-3.346324,-27.154585
0.16218743,-1.1502166,-1.8329293,-2.381877,-5.2763333,-25.758904
0.13686112,-1.29996,-1.7061006,-1.8078042,-7.174084,-24.046837
0.13614467,-1.431741,-1.5846411,-0.69038725,-8.853265,-22.396631
0.16296162,-1.5588013,-1.4687741,0.83565116,-10.223023,-20.775614
0.19911867,-1.6765258,-1.3520405,2.7468066,-11.267762,-18.826536
0.25017697,-1.7378678,-1.2271448,4.790826,-12.053614,-16.347437
0.31710455,-1.7068353,-1.0993319,6.437015,-12.450108,-13.500328
0.37288237,-1.6124068,-0.98711234,7.9431396,-12.657264,-10.98496
0.4230254,-1.4507228,-0.8818324,9.342133,-12.780492,-8.751298
0.47900787,-1.2300805,-0.7667825,10.2139225,-12.860236,-6.515787
0.5507393,-0.9611964,-0.645963,10.4229555,-12.625639,-4.466335
0.61910605,-0.68778855,-0.54168,10.317776,-11.998022,-3.196518
0.66849643,-0.44076252,-0.46740764,9.89592,-10.98353,-2.8052862
0.6741973,-0.26591423,-0.44513443,9.264078,-10.049894,-2.7020562
0.66354084,-0.15338814,-0.44835073,8.38674,-9.369369,-2.4796753
0.6500235,-0.09440853,-0.46394104,7.315149,-8.8845005,-1.9148799
0.6340614,-0.07026266,-0.48114434,6.209261,-8.506911,-1.1417735
0.61665815,-0.06345893,-0.49244425,5.4384193,-8.037143,-0.64812964
0.5870785,-0.07238811,-0.5026108,5.0568695,-7.4976907,-0.5307785
0.5454498,-0.091003075,-0.51564324,4.8792815,-7.0087986,-0.5216937
0.50078464,-0.11400881,-0.524167,4.6669354,-6.6189713,-0.29272097
0.4849534,-0.11040466,-0.50759655,4.5194,-6.4097266,-0.28346723
0.46963716,-0.10691777,-0.4915652,4.376664,-6.207289,-0.27451453
0.4548179,-0.103544004,-0.47605398,4.2385597,-6.01142,-0.26585227
0.44047824,-0.100279436,-0.4610448,4.104925,-5.8218894,-0.2574704
0.4266016,-0.09712027,-0.44652024,3.9756052,-5.638479,-0.24935916
0.41317204,-0.094062895,-0.43246362,3.8504517,-5.460978,-0.24150924
0.40017423,-0.09110381,-0.41885892,3.729322,-5.2891836,-0.23391171
0.3875935,-0.08823968,-0.4056908,3.6120791,-5.1229014,-0.22655797
0.3754157,-0.08546728,-0.3929444,3.4985914,-4.961945,-0.21943974
0.36362728,-0.08278352,-0.38060558,3.3887322,-4.806135,-0.21254914
0.35221517,-0.080185436,-0.3686606,3.2823799,-4.655299,-0.20587847
0.3411668,-0.07767016,-0.35709637,3.1794174,-4.50927,-0.19942042
0.33047006,-0.075234935,-0.34590018,3.0797317,-4.3678894,-0.19316791
0.3201133,-0.07287711,-0.33505985,2.9832146,-4.231002,-0.18711412
0.3100853,-0.07059413,-0.32456362,2.8897612,-4.09846,-0.18125251
0.30037525,-0.06838354,-0.3144002,2.7992709,-3.9701204,-0.17557675
0.29097274,-0.066242956,-0.30455866,2.7116466,-3.8458452,-0.17008075
0.28186768,-0.06417009,-0.29502848,2.626794,-3.7255018,-0.16475861
0.2730504,-0.06216275,-0.2857995,2.5446236,-3.608962,-0.15960468
0.26451153,-0.060218785,-0.27686194,2.4650478,-3.496102,-0.15461351
0.25624204,-0.058336154,-0.26820633,2.3879826,-3.3868027,-0.1497798
0.24823324,-0.056512866,-0.2598236,2.3133466,-3.2809486,-0.14509845
0.2404767,-0.05474701,-0.2517049,2.2410614,-3.1784291,-0.14056456
0.2329643,-0.05303674,-0.24384174,2.1710517,-3.0791361,-0.1361734
0.22568822,-0.05138026,-0.23622592,2.103244,-2.9829667,-0.13192034
0.21864085,-0.049775854,-0.2288495,2.0375679,-2.88982,-0.12780097
0.21181487,-0.04822185,-0.2217048,1.9739548,-2.7995996,-0.123811014
0.2052032,-0.046716634,-0.21478443,1.9123392,-2.712212,-0.11994634
0.19879903,-0.04525866,-0.20808125,1.8526571,-2.6275668,-0.11620294
0.19259572,-0.043846413,-0.20158829,1.7948469,-2.5455766,-0.112576954
0.1865869,-0.042478442,-0.19529891,1.7388492,-2.4661567,-0.109064646
0.18076637,-0.041153338,-0.18920662,1.6846063,-2.3892255,-0.105662405
0.17512818,-0.03986974,-0.18330516,1.6320626,-2.3147044,-0.10236674
0.16966651,-0.03862634,-0.17758848,1.581164,-2.2425165,-0.09917426
0.16437581,-0.037421856,-0.17205074,1.5318586,-2.172588,-0.09608172
0.15925065,-0.03625506,-0.16668628,1.4840959,-2.104848,-0.09308594
0.1542858,-0.035124764,-0.16148964,1.4378273,-2.0392265,-0.09018386
0.14947622,-0.034029808,-0.15645547,1.3930056,-1.9756573,-0.08737254
0.144817,-0.032969087,-0.1515787,1.3495852,-1.9140753,-0.0846491
0.14030337,-0.03194152,-0.14685434,1.3075217,-1.8544179,-0.08201078
0.13593079,-0.030946054,-0.1422776,1.2667725,-1.7966247,-0.07945491
0.13169481,-0.029981686,-0.13784382,1.2272962,-1.7406367,-0.07697886
0.12759112,-0.029047439,-0.13354853,1.1890529,-1.6863974,-0.074580155
0.123615555,-0.028142363,-0.12938735,1.1520038,-1.6338518,-0.07225634
0.11976412,-0.027265541,-0.12535608,1.1161113,-1.5829465,-0.07000508
0.1160329,-0.026416091,-0.12145063,1.0813391,-1.5336301,-0.06782409
0.112418115,-0.025593149,-0.11766708,1.0476521,-1.485853,-0.06571116
0.10891613,-0.024795886,-0.11400158,1.0150162,-1.4395665,-0.06366417
0.10552341,-0.024023496,-0.11045044,0.98339856,-1.3947241,-0.061681036
0.10223651,-0.0232752,-0.107010074,0.9527672,-1.3512806,-0.059759762
0.09905213,-0.022550244,-0.10367702,0.9230912,-1.309192,-0.057898417
0.09596706,-0.021847896,-0.1004479,0.8943407,-1.268416,-0.056095116
0.092978194,-0.02116745,-0.09731948,0.86648667,-1.2289115,-0.05434805
0.09008252,-0.020508219,-0.094288595,0.83950114,-1.1906388,-0.052655455
0.087277114,-0.01986954,-0.0913522,0.8133569,-1.1535592,-0.051015627
0.084559165,-0.01925077,-0.08850735,0.78802764,-1.1176355,-0.049426917
0.08192593,-0.018651286,-0.08575117,0.7634879,-1.0828315,-0.047887728
0.07937477,-0.01807049,-0.08308089,0.739713,-1.0491123,-0.046396513
0.07690311,-0.017507792,-0.08049383,0.71667904,-1.016444,-0.04495177
0.07450848,-0.016962629,-0.07798739,0.6943629,-0.98479366,-0.04355205
0.07218847,-0.016434453,-0.07555905,0.6727421,-0.9541295,-0.042195942
0.069940746,-0.015922735,-0.07320637,0.65179497,-0.9244209,-0.040882092
0.067763045,-0.01542696,-0.070927,0.6315005,-0.89563787,-0.039609175
0.0656532,-0.01494663,-0.068718635,0.6118383,-0.86775154,-0.038375914
0.06360908,-0.014481265,-0.06657907,0.59278864,-0.84073395,-0.037181076
0.06162863,-0.014030396,-0.06450616,0.57433236,-0.814558,-0.036023457
0.059709873,-0.013593571,-0.062497813,0.556451,-0.78919744,-0.034901895
0.057850886,-0.013170353,-0.060552023,0.53912663,-0.7646268,-0.03381527
0.056049798,-0.012760317,-0.05866684,0.52234185,-0.7408215,-0.03276249
0.054304805,-0.012363052,-0.056840375,0.50607985,-0.7177576,-0.0317425
0.052614164,-0.011978159,-0.05507079,0.49032432,-0.695412,-0.030754276
0.050976172,-0.011605253,-0.05335632,0.47505948,-0.6737623,-0.02979683
0.04938919,-0.011243961,-0.051695243,0.46027002,-0.65278685,-0.0288692
0.04785163,-0.0108939195,-0.05008589,0.44594112,-0.63246465,-0.02797046
0.046361953,-0.010554778,-0.048526656,0.43205842,-0.61277527,-0.027099704
0.04491866,-0.0102261985,-0.047015976,0.41860804,-0.593699,-0.026256066
0.043520313,-0.00990785,-0.045552336,0.4055765,-0.5752167,-0.025438696
0.042165507,-0.009599415,-0.044134274,0.3929507,-0.55731,-0.02464678
0.040852886,-0.009300582,-0.042760365,0.38071808,-0.5399608,-0.02387952
0.039581135,-0.009011055,-0.041429233,0.36886632,-0.5231518,-0.02313615
0.038348984,-0.008730543,-0.040139552,0.3573836,-0.5068662,-0.022415927
0.037155196,-0.008458765,-0.038890023,0.3462584,-0.49108768,-0.021718128
0.035998575,-0.008195449,-0.0376794,0.33547956,-0.4758004,-0.021042055
0.034877967,-0.00794033,-0.036506467,0.32503635,-0.4609891,-0.020387031
0.033792246,-0.0076931547,-0.03537005,0.31491825,-0.4466389,-0.019752402
0.03274033,-0.007453675,-0.03426902,0.30511516,-0.4327355,-0.01913753
0.03172116,-0.007221651,-0.033202264,0.29561728,-0.41926497,-0.018541802
0.030733721,-0.00699685,-0.032168724,0.2864151,-0.4062138,-0.017964618
0.029777024,-0.006779048,-0.031167356,0.2774994,-0.39356893,-0.017405406
0.028850112,-0.0065680267,-0.030197164,0.2688613,-0.38131773,-0.016863601
0.027952055,-0.006363575,-0.029257176,0.2604921,-0.36944795,-0.016338667
0.027081957,-0.0061654877,-0.028346451,0.2523834,-0.35794768,-0.015830072
0.026238944,-0.0059735677,-0.027464079,0.24452718,-0.34680542,-0.015337311
0.025422176,-0.0057876217,-0.026609175,0.23691551,-0.33601004,-0.01485989
0.024630835,-0.005607465,-0.025780885,0.22954081,-0.3255507,-0.0143973315
0.02386413,-0.0054329163,-0.024978379,0.22239569,-0.315417,-0.013949173
0.02312129,-0.005263801,-0.024200855,0.21547298,-0.30559874,-0.013514965
0.022401575,-0.005099951,-0.023447538,0.20876579,-0.29608613,-0.013094274
0.021704266,-0.004941201,-0.02271767,0.2022674,-0.28686965,-0.012686679
0.021028664,-0.004787393,-0.022010522,0.19597128,-0.27794006,-0.012291772
0.020374091,-0.004638373,-0.021325387,0.18987116,-0.26928848,-0.011909159
0.019739896,-0.004493992,-0.02066158,0.18396094,-0.2609062,-0.011538456
0.019125443,-0.0043541053,-0.020018436,0.17823471,-0.25278482,-0.0111792935
0.018530117,-0.0042185728,-0.019395314,0.17268671,-0.24491629,-0.01083131
