ax,ay,az,gx,gy,gz
-2.1445649,0.30000275,-2.2791116,35.789417,-15.25923,-11.374649
-2.362994,0.43055338,-2.4677393,35.720608,-23.40194,-16.278614
-2.2922227,0.4041981,-2.5453835,28.338655,-28.265606,-15.298253
-2.1528726,0.22666408,-2.71641,23.104507,-32.701862,-13.465562
-1.9989977,-0.056998327,-2.986838,20.12348,-36.076447,-10.929058
-1.9311472,-0.38251725,-3.4427896,19.793083,-38.711964,-8.958726
-1.9559608,-0.6591916,-4.0632553,18.81482,-42.777985,-7.1399913
-1.9777058,-0.9052209,-4.7576513,15.959592,-48.41635,-4.2792134
-1.9274848,-1.220324,-5.3993015,13.259521,-55.859764,-0.058408126
-1.7657669,-1.5361917,-5.936332,10.391607,-63.60572,4.498915
-1.5475245,-1.854429,-6.37255,8.767628,-71.080086,7.922126
-1.34657,-2.1576512,-6.688857,9.431987,-77.47126,9.30091
-1.2059926,-2.4323294,-6.899145,13.309477,-83.66923,9.387096
-1.0935339,-2.5988915,-6.923983,17.639277,-90.313995,11.385833
-0.96511394,-2.4973812,-6.7064557,20.055613,-98.647316,16.168716
-0.7167783,-2.1612566,-6.1694293,18.914013,-107.88246,22.971666
-0.30491072,-1.6988748,-5.318362,16.477373,-115.01698,27.82112
0.27642542,-1.2190315,-4.1722183,15.840623,-118.11448,28.432726
0.86459976,-0.8333053,-2.9879665,16.547739,-117.41189,26.767117
1.3900173,-0.51854205,-1.8842925,16.56778,-114.69248,25.713139
1.8671284,-0.2556419,-0.8622394,15.726734,-111.04176,25.908995
2.340399,0.01938008,0.07919006,14.102919,-105.83043,26.772156
2.8257203,0.28933558,0.9139214,12.440825,-98.58515,26.641432
3.264978,0.51079327,1.591897,11.078847,-88.90136,25.066284
3.588463,0.65167284,2.0561137,10.490262,-77.68156,22.253233
3.764043,0.7214209,2.3178723,10.262453,-66.20676,18.970007
3.8283398,0.7229779,2.4332824,10.124649,-55.439877,15.914511
3.8443415,0.67114466,2.4685595,9.990679,-45.488644,13.651209
3.8481596,0.6057674,2.450018,9.741783,-35.823227,12.03036
3.8305538,0.5650502,2.3922396,9.209556,-26.207409,10.770465
3.7747447,0.5386668,2.2717538,8.689113,-16.689415,9.406818
3.6715677,0.50661737,2.0662024,9.207243,-7.8844414,7.2806582
3.5211873,0.46028873,1.7647988,10.253053,-0.18961065,4.881273
3.3637598,0.41594756,1.4392091,11.041924,6.1407104,2.9669232
3.2111857,0.40538642,1.109568,11.061112,11.266265,1.7969004
3.065987,0.43257108,0.77081704,10.487736,15.298289,0.86993843
2.9299407,0.45857129,0.41934082,10.278058,18.323235,-0.6103885
2.801684,0.5204745,0.06388769,10.245207,20.480572,-2.5241315
2.6882482,0.63915175,-0.26647285,9.950051,21.753674,-4.584841
2.5890727,0.77780354,-0.563991,9.077371,22.379873,-6.7583513
2.5105762,0.9144146,-0.8223187,7.7498775,22.829191,-8.959931
2.4399254,1.059785,-1.0564734,5.860482,23.295471,-11.278926
2.3507795,1.1924312,-1.2833288,3.6119049,23.682524,-14.168171
2.2393327,1.3038,-1.5109879,1.3963608,23.727688,-17.444365
2.1016624,1.3902943,-1.7423095,-0.93408376,23.134327,-20.875668
1.9536395,1.4234703,-1.9629606,-3.694926,21.817122,-24.24159
1.806752,1.3674,-2.167745,-6.556785,19.766352,-27.375965
1.6596228,1.1941136,-2.351213,-9.126558,17.265066,-30.217644
1.5196782,0.97573525,-2.5082786,-11.472778,14.270827,-32.53147
1.3870207,0.7114585,-2.6401577,-13.564966,10.602228,-34.327682
1.2895482,0.38324276,-2.725887,-15.285396,6.4569006,-35.395195
1.240496,-0.0037998278,-2.7590165,-16.368118,2.1760654,-34.81155
1.2316599,-0.40298876,-2.764361,-16.881584,-2.2234268,-33.214302
1.2457746,-0.77300334,-2.7376723,-16.772795,-6.5448356,-30.950266
1.271721,-1.1031203,-2.6572824,-16.103922,-10.588269,-28.3074
1.3061837,-1.3896674,-2.5195253,-14.974254,-14.15251,-25.286472
1.3456706,-1.6369609,-2.3559463,-13.193317,-17.303799,-22.034494
1.413554,-1.8543117,-2.17632,-10.688642,-19.819155,-18.387941
1.4941642,-2.0308802,-1.9920536,-7.7013855,-21.640247,-14.090366
1.5656562,-2.1205897,-1.816517,-4.613536,-23.22963,-9.299351
1.6382003,-2.10316,-1.6345669,-1.8347893,-24.786745,-4.1360526
1.72557,-1.9899254,-1.445185,0.379997,-25.925526,0.9671124
1.8131661,-1.7607595,-1.273537,2.040441,-26.628204,5.1393547
1.8920293,-1.5084912,-1.1114942,3.8442466,-26.631582,7.900065
1.9658684,-1.2259529,-0.95440346,5.3681417,-25.961277,9.876722
2.0144536,-0.919409,-0.8277201,6.2403483,-24.919939,11.525244
2.0244381,-0.6174395,-0.7413918,6.425703,-23.689009,12.663998
1.9976478,-0.3458557,-0.693489,6.3411927,-22.359087,13.27419
1.9595261,-0.11061129,-0.66278183,5.9535017,-20.873081,13.405797
1.9142936,0.085480645,-0.64164776,5.049397,-19.162378,13.313076
1.853343,0.08275896,-0.62121785,4.888625,-18.552254,12.889191
1.7944149,0.08012759,-0.6014658,4.733188,-17.962374,12.479371
1.7374346,0.0775832,-0.58236676,4.5828896,-17.391993,12.083098
1.6823312,0.07512262,-0.5638968,4.4375415,-16.840399,11.699879
1.6290365,0.07274281,-0.5460331,4.2969646,-16.306911,11.329238
1.5774859,0.07044087,-0.52875394,4.1609874,-15.79088,10.970725
1.527617,0.06821404,-0.51203847,4.0294466,-15.291685,10.623909
1.4793705,0.06605964,-0.49586684,3.9021852,-14.80873,10.288376
1.4326893,0.06397514,-0.4802199,3.7790527,-14.341444,9.963729
1.387519,0.061958116,-0.46507937,3.6599057,-13.889282,9.649589
1.3438072,0.060006212,-0.4504277,3.5446055,-13.45172,9.3455925
1.3015037,0.058117196,-0.43624806,3.43302,-13.028255,9.05139
1.2605603,0.056288913,-0.42252433,3.3250222,-12.618405,8.766646
1.2209306,0.054519292,-0.40924096,3.2204897,-12.221706,8.491039
1.1825702,0.052806355,-0.39638305,3.1193051,-11.837713,8.224259
1.1454364,0.051148184,-0.38393623,3.021356,-11.465997,7.9660096
1.1094879,0.049542945,-0.37188673,2.9265335,-11.106147,7.7160034
1.0746852,0.047988866,-0.3602213,2.8347332,-10.757767,7.473966
1.0409901,0.04648425,-0.3489271,2.7458546,-10.420474,7.2396317
1.0083661,0.04502746,-0.33799192,2.659801,-10.093902,7.0127454
0.97677755,0.043616913,-0.32740387,2.576479,-9.777697,6.7930613
0.94619066,0.042251088,-0.3171515,2.4957988,-9.471517,6.580343
0.91657245,0.04092852,-0.30722383,2.4176738,-9.175034,6.374361
0.88789123,0.03964779,-0.29761025,2.3420205,-8.88793,6.174896
0.86011654,0.03840754,-0.2883005,2.2687583,-8.6099,5.9817348
0.8332188,0.037206456,-0.27928475,2.1978092,-8.340651,5.794673
0.80716974,0.036043264,-0.2705534,2.1290987,-8.079895,5.613513
0.7819418,0.034916736,-0.2620973,2.0625541,-7.8273597,5.4380636
0.75750846,0.033825696,-0.25390756,1.9981056,-7.5827785,5.268141
0.7338442,0.032768995,-0.24597558,1.9356856,-7.3458953,5.103566
0.7109243,0.031745534,-0.23829311,1.875229,-7.1164637,4.944168
0.6887249,0.030754242,-0.23085214,1.8166728,-6.8942437,4.789781
0.66722286,0.029794093,-0.22364493,1.7599562,-6.679005,4.6402435
0.646396,0.028864091,-0.216664,1.7050204,-6.470525,4.4954014
0.6262226,0.027963273,-0.20990214,1.6518085,-6.2685866,4.355105
0.60668206,0.02709071,-0.20335238,1.6002656,-6.072982,4.2192087
0.5877541,0.0262455,-0.19700795,1.5503386,-5.88351,4.0875726
0.56941926,0.02542678,-0.19086234,1.5019763,-5.6999755,3.960062
0.55165875,0.024633706,-0.18490924,1.4551288,-5.52219,3.8365455
0.53445435,0.023865463,-0.17914255,1.4097482,-5.349972,3.7168965
0.51778847,0.023121268,-0.17355636,1.3657881,-5.1831436,3.6009927
0.5016441,0.022400357,-0.16814494,1.3232034,-5.021536,3.4887156
0.4860047,0.021701997,-0.16290282,1.281951,-4.864983,3.3799505
0.47085437,0.021025475,-0.1578246,1.2419884,-4.713326,3.2745864
0.45617765,0.020370103,-0.15290515,1.2032751,-4.5664096,3.1725163
0.44195965,0.019735215,-0.14813945,1.1657718,-4.424085,3.0736363
0.42818588,0.019120162,-0.14352265,1.1294403,-4.2862077,2.9778457
0.4148424,0.018524325,-0.13905008,1.0942438,-4.152637,2.8850477
0.40191564,0.017947095,-0.1347172,1.0601465,-4.0232387,2.7951477
0.38939255,0.01738789,-0.1305196,1.0271138,-3.8978803,2.708055
0.3772604,0.016846143,-0.12645306,0.9951124,-3.7764356,2.6236813
0.36550695,0.016321305,-0.12251344,0.96410996,-3.6587815,2.5419412
0.35412028,0.015812846,-0.11869678,0.934075,-3.5447993,2.4627519
0.34308892,0.015320254,-0.114999205,0.9049772,-3.4343739,2.3860335
0.33240175,0.014843029,-0.11141699,0.87678725,-3.3273933,2.311709
0.32204792,0.014380691,-0.107946515,0.84947664,-3.22375,2.2397027
0.31201705,0.013932773,-0.104584284,0.82301784,-3.1233394,2.1699424
0.302299,0.013498824,-0.10132691,0.7973842,-3.02606,2.1023574
0.29288396,0.013078406,-0.098171115,0.77254987,-2.9318144,2.03688
0.2837625,0.012671098,-0.09511371,0.7484899,-2.840507,1.9734442
0.2749254,0.012276487,-0.09215162,0.72518,-2.7520463,1.9119861
0.26636377,0.011894178,-0.08928187,0.7025967,-2.666343,1.8524437
0.25806904,0.011523784,-0.08650157,0.68071735,-2.5833113,1.7947574
0.25003278,0.011164935,-0.08380792,0.6595199,-2.5028672,1.7388688
0.24224702,0.01081727,-0.08119822,0.6389831,-2.4249303,1.6847222
0.23470385,0.010480438,-0.07866985,0.61908627,-2.3494222,1.6322628
0.22739574,0.010154103,-0.07622027,0.5998094,-2.2762668,1.5814381
0.22031534,0.009837936,-0.073846996,0.5811332,-2.205391,1.532197
0.21345554,0.009531619,-0.07154768,0.5630388,-2.1367233,1.48449
0.20680945,0.009234845,-0.06931999,0.5455082,-2.070195,1.4382694
0.2003704,0.008947317,-0.0671617,0.52852374,-2.005739,1.3934886
0.19413194,0.008668745,-0.065070644,0.51206833,-1.9432911,1.3501029
0.1880878,0.008398851,-0.06304473,0.49612552,-1.8827884,1.3080685
0.18223193,0.008137364,-0.061081912,0.4806793,-1.8241702,1.2673435
0.17655846,0.007884021,-0.05918023,0.4657142,-1.7673779,1.227887
0.1710617,0.007638569,-0.05733778,0.45121518,-1.7123543,1.1896594
0.16573611,0.0074007614,-0.055552714,0.4371677,-1.6590444,1.1526222
0.16057639,0.0071703596,-0.053823236,0.42355776,-1.6073948,1.1167387
0.15557736,0.006947133,-0.052147623,0.41037163,-1.5573537,1.0819726
0.150734,0.0067308587,-0.05052419,0.39759615,-1.508871,1.0482892
0.14604147,0.006521319,-0.04895131,0.3852185,-1.461898,1.0156547
0.14149506,0.006318304,-0.04742741,0.37322628,-1.4163877,0.9840364
0.13709022,0.006121611,-0.045950964,0.3616075,-1.3722947,0.95340264
0.13282254,0.0059310426,-0.04452049,0.3503505,-1.3295745,0.9237228
0.12868775,0.005746408,-0.04313456,0.339444,-1.2881845,0.89496714
0.12468171,0.0055675223,-0.041791778,0.32887712,-1.2480834,0.8671068
0.12080039,0.005394207,-0.04049081,0.31863925,-1.2092308,0.84011394
0.11703993,0.005226287,-0.039230347,0.30872014,-1.171588,0.81396157
0.11339654,0.0050635957,-0.03800913,0.29910985,-1.135117,0.7886234
0.10986659,0.00490597,-0.036825933,0.2897988,-1.0997818,0.76407415
0.106446534,0.0047532516,-0.035679575,0.2807776,-1.0655465,0.74028915
0.10313297,0.0046052877,-0.034568906,0.2720373,-1.0323771,0.71724474
0.09992256,0.0044619306,-0.033492815,0.2635691,-1.0002404,0.69491774
0.0968121,0.0043230364,-0.03245023,0.25536454,-0.96910423,0.6732859
0.09379848,0.0041884664,-0.031440098,0.2474154,-0.9389374,0.6523274
0.09087867,0.004058086,-0.030461418,0.23971374,-0.90970975,0.6320215
0.08804977,0.003931764,-0.029513203,0.23225184,-0.881392,0.6123477
0.08530894,0.0038093752,-0.028594509,0.22502224,-0.8539558,0.5932864
0.082653426,0.0036907964,-0.027704414,0.21801771,-0.8273737,0.5748185
0.08008058,0.003575909,-0.02684203,0.21123125,-0.8016192,0.5569255
0.077587835,0.0034645982,-0.02600649,0.20465603,-0.77666634,0.5395895
0.075172685,0.0033567525,-0.025196962,0.19828552,-0.75249034,0.52279323
0.072832726,0.003252264,-0.024412636,0.19211332,-0.72906697,0.5065198
0.0705656,0.0031510282,-0.023652725,0.18613327,-0.70637274,0.49075294
0.06836906,0.0030529439,-0.02291647,0.18033937,-0.68438494,0.47547692
0.06624089,0.002957913,-0.022203134,0.17472582,-0.66308165,0.46067646
0.06417897,0.0028658402,-0.021512004,0.16928703,-0.6424415,0.44633672
0.062181238,0.0027766337,-0.020842388,0.16401754,-0.6224439,0.43244335
0.06024569,0.0026902042,-0.020193616,0.15891208,-0.60306877,0.41898248
0.058370396,0.0026064648,-0.01956504,0.15396556,-0.58429676,0.40594062
