ax,ay,az,gx,gy,gz
-1.2309202,4.19822,-4.0373096,43.502216,18.421986,36.122147
-1.0227422,4.4778013,-3.6045299,27.107836,19.968128,27.344603
-0.64892256,4.880207,-3.384606,9.057134,18.564577,16.910027
-0.5510185,5.3465147,-3.3572838,-5.965274,14.03476,8.392428
-0.67275375,5.862571,-3.299022,-19.143213,7.628616,1.1367422
-0.73568064,6.4112406,-3.1300533,-29.934444,1.4875146,-5.8290167
-0.6348181,6.9250245,-2.8814147,-41.142036,-3.3157592,-13.325192
-0.35661712,7.2267447,-2.6389534,-51.664776,-5.5145617,-20.164396
-0.097070254,7.3750625,-2.488084,-60.005516,-6.527675,-27.140339
0.08192347,7.472954,-2.4462068,-66.44623,-8.16324,-34.97048
0.20374812,7.5226736,-2.4367666,-73.541756,-10.760748,-42.99799
0.3379103,7.464893,-2.4193838,-81.23525,-13.908893,-51.219585
0.5705604,7.152653,-2.2975802,-88.139404,-15.573075,-59.4487
0.8377783,6.697587,-2.140559,-92.35457,-15.132542,-68.823616
1.1077075,6.1189065,-2.0358908,-93.53627,-13.834047,-79.92319
1.3972647,5.379214,-1.9710734,-93.53424,-13.394453,-90.17005
1.7547673,4.4825726,-1.8439054,-94.7316,-14.149456,-94.39479
2.1995687,3.4346912,-1.5596404,-96.80845,-14.379647,-93.54848
2.6549006,2.39614,-1.1805584,-98.155174,-12.828348,-89.12531
3.055619,1.512366,-0.77618825,-98.24309,-9.034638,-83.520004
3.3558025,0.7928901,-0.4112646,-97.0046,-3.2786853,-77.89729
3.541491,0.17016244,-0.13216256,-93.91223,4.252479,-72.024124
3.6063728,-0.3843134,-0.0036476841,-89.57761,12.247149,-65.63395
3.5871024,-0.85512537,-0.007417827,-83.94431,19.71799,-58.543858
3.5173497,-1.2293034,-0.059661537,-77.68495,26.829334,-50.78688
3.4524002,-1.4923453,-0.10638113,-71.02669,34.807667,-42.443302
3.3779523,-1.6432158,-0.21321335,-65.01436,43.658936,-33.749542
3.2147956,-1.683996,-0.48975563,-59.395443,51.741947,-26.055265
2.9434588,-1.6512675,-0.8999498,-53.14474,57.34379,-19.813099
2.592427,-1.5226178,-1.3476542,-46.718487,60.212036,-14.7781315
2.2210832,-1.3025962,-1.7650895,-40.52184,60.248646,-11.471518
1.8577262,-1.0344309,-2.151022,-35.433434,57.871685,-9.62641
1.5625848,-0.77796113,-2.4393299,-31.04751,54.099792,-8.584095
1.3194373,-0.5544222,-2.7050593,-27.099182,50.005497,-7.4161086
1.0855161,-0.36007464,-2.9947286,-23.88506,45.273685,-5.9690285
0.8531132,-0.16534652,-3.3021696,-20.940466,39.629807,-4.611007
0.6226573,0.06352967,-3.6208544,-18.707945,32.050327,-4.7182336
0.4151835,0.22405787,-3.9079478,-16.818146,23.389206,-5.743998
0.25077042,0.3165874,-4.158938,-15.438811,13.879684,-6.945912
0.14466503,0.3552159,-4.3407087,-14.644391,4.0298724,-7.542229
0.0891739,0.3743971,-4.4763455,-14.686521,-6.3717895,-7.47687
0.08271088,0.37657097,-4.5873184,-14.890966,-18.04696,-7.5589833
0.15412547,0.29291376,-4.599468,-14.467805,-30.00441,-7.9282737
0.3108981,0.18417807,-4.4892316,-13.094275,-41.317917,-8.2385025
0.5653234,0.11409997,-4.2537374,-11.407606,-50.79673,-8.22788
0.8744126,0.0787211,-3.9587545,-10.179767,-58.247154,-7.7574396
1.1824878,0.02926935,-3.6242344,-8.452734,-63.13188,-7.1989565
1.4878933,0.0051144334,-3.2621098,-5.8433633,-66.388435,-6.7490044
1.7856432,0.037568383,-2.9089563,-3.3571544,-68.67601,-6.050683
2.0721147,0.0831846,-2.5543165,-1.0787653,-69.859314,-5.046747
2.3426037,0.12506767,-2.2128508,1.1149845,-69.96106,-3.7875473
2.2639816,0.12087017,-2.1385837,1.0775636,-67.613045,-3.6604307
2.1883485,0.11683225,-2.0671396,1.0415653,-65.35428,-3.538146
2.1155581,0.11294609,-1.9983809,1.0069201,-63.180424,-3.4204578
2.0454745,0.109204456,-1.9321793,0.97356313,-61.087402,-3.307146
1.9779711,0.10560055,-1.8684146,0.9414342,-59.071434,-3.1980057
1.9129288,0.10212806,-1.806975,0.91047674,-57.12897,-3.0928445
1.8502368,0.09878103,-1.7477553,0.8806378,-55.25669,-2.9914832
1.7897904,0.0955539,-1.6906569,0.8518678,-53.45148,-2.8937528
1.7314919,0.09244144,-1.6355876,0.8241201,-51.710415,-2.7994952
1.6752491,0.08943874,-1.5824599,0.79735076,-50.030743,-2.7085612
1.6209751,0.08654114,-1.5311921,0.7715186,-48.40987,-2.6208105
1.5685881,0.08374429,-1.4817067,0.7465845,-46.845352,-2.5361106
1.5180107,0.08104404,-1.4339308,0.7225117,-45.334873,-2.4543366
1.4691699,0.07843651,-1.3877951,0.6992654,-43.87626,-2.37537
1.4219961,0.07591798,-1.3432342,0.67681265,-42.46743,-2.2990992
1.376424,0.073484965,-1.3001863,0.65512216,-41.106434,-2.2254176
1.3323911,0.07113412,-1.2585922,0.6341643,-39.79141,-2.1542246
1.2898383,0.068862304,-1.2183964,0.61391085,-38.520584,-2.085425
1.2487094,0.0666665,-1.1795455,0.5943352,-37.292282,-2.0189273
1.2089508,0.06454385,-1.1419891,0.5754117,-36.104904,-1.954645
1.1705115,0.06249164,-1.1056788,0.5571161,-34.95693,-1.8924959
1.1333427,0.060507268,-1.0705689,0.5394253,-33.846897,-1.8324012
1.0973984,0.058588255,-1.0366154,0.52231723,-32.77343,-1.7742858
1.0626339,0.056732237,-1.0037764,0.50577074,-31.735199,-1.7180783
1.029007,0.054936953,-0.97201204,0.48976567,-30.730944,-1.6637099
0.99647707,0.053200237,-0.94128394,0.47428277,-29.759449,-1.6111152
0.96500546,0.05152002,-0.91155547,0.45930356,-28.81956,-1.5602316
0.934555,0.04989432,-0.8827916,0.44481036,-27.910166,-1.5109988
0.90509003,0.048321236,-0.85495865,0.43078622,-27.030205,-1.4633596
0.8765764,0.046798944,-0.8280244,0.41721493,-26.178658,-1.4172585
0.8489815,0.045325696,-0.80195785,0.40408084,-25.354544,-1.3726426
0.82227373,0.043899816,-0.7767294,0.39136904,-24.556927,-1.3294613
0.796423,0.042519685,-0.7523105,0.37906513,-23.784903,-1.2876655
0.7714002,0.041183762,-0.7286737,0.3671553,-23.037605,-1.2472085
0.7471775,0.03989055,-0.7057926,0.35562626,-22.314201,-1.2080449
0.723728,0.03863862,-0.68364197,0.34446526,-21.613892,-1.1701314
0.7010259,0.037426595,-0.6621973,0.33365998,-20.935902,-1.1334264
0.6790464,0.036253143,-0.64143515,0.32319862,-20.27949,-1.0978897
0.65776545,0.03511699,-0.62133294,0.31306973,-19.64394,-1.0634824
0.63716,0.034016903,-0.6018688,0.30326238,-19.028566,-1.0301673
0.6172079,0.032951694,-0.5830218,0.293766,-18.432703,-0.9979086
0.5978877,0.03192022,-0.5647717,0.28457034,-17.855713,-0.9666714
0.5791787,0.030921377,-0.547099,0.27566564,-17.296974,-0.9364225
0.561061,0.029954106,-0.52998483,0.26704237,-16.755898,-0.9071297
0.54351544,0.029017378,-0.51341105,0.25869137,-16.231905,-0.8787618
0.5265234,0.0281102,-0.4973602,0.25060385,-15.7244425,-0.8512889
0.51006705,0.02723162,-0.48181528,0.24277127,-15.232978,-0.824682
0.49412897,0.026380716,-0.46676,0.2351854,-14.756994,-0.7989132
0.4786926,0.025556594,-0.45217863,0.22783831,-14.295992,-0.77395546
0.46374175,0.024758393,-0.4380559,0.22072232,-13.84949,-0.7497828
0.4492609,0.023985283,-0.42437708,0.21383001,-13.417024,-0.72637
0.43523493,0.023236463,-0.411128,0.20715423,-12.998143,-0.7036927
0.42164937,0.022511153,-0.39829493,0.20068805,-12.592415,-0.68172735
0.40849015,0.021808602,-0.3858646,0.19442478,-12.199419,-0.6604514
0.39574367,0.021128088,-0.3738241,0.18835796,-11.818749,-0.63984275
0.38339677,0.02046891,-0.3621611,0.18248136,-11.450014,-0.61988014
0.37143683,0.019830389,-0.35086358,0.1767889,-11.092834,-0.6005432
0.3598515,0.019211868,-0.33991995,0.17127477,-10.746842,-0.5818119
0.34862894,0.018612714,-0.329319,0.16593328,-10.411685,-0.5636671
0.33775768,0.018032314,-0.31904984,0.16075899,-10.087018,-0.5460903
0.32722655,0.017470075,-0.30910203,0.1557466,-9.77251,-0.5290635
0.31702483,0.016925424,-0.2994654,0.15089099,-9.467839,-0.51256925
0.30714214,0.016397804,-0.29013008,0.14618723,-9.172696,-0.49659082
0.2975684,0.015886677,-0.2810866,0.14163053,-8.88678,-0.4811119
0.2882939,0.015391526,-0.27232578,0.13721623,-8.609798,-0.46611676
0.27930915,0.014911846,-0.2638387,0.13293986,-8.341473,-0.45159012
0.2706051,0.014447151,-0.25561672,0.12879707,-8.081529,-0.4375173
0.26217285,0.013996969,-0.24765156,0.12478367,-7.8297033,-0.42388397
0.25400394,0.013560844,-0.2399351,0.1208956,-7.585741,-0.4106764
0.24609004,0.013138333,-0.23245953,0.1171289,-7.3493953,-0.3978811
0.23842317,0.012729012,-0.22521731,0.11347978,-7.1204267,-0.3854852
0.23099555,0.012332465,-0.21820112,0.10994454,-6.898604,-0.37347618
0.22379972,0.01194829,-0.21140383,0.10651961,-6.6837025,-0.36184186
0.21682838,0.011576102,-0.20481862,0.10320153,-6.4755054,-0.3505705
0.2100745,0.011215525,-0.19843882,0.09998696,-6.273803,-0.33965078
0.20353127,0.010866192,-0.19225803,0.09687265,-6.078392,-0.3290716
0.1971921,0.010527755,-0.18626997,0.09385546,-5.8890753,-0.31882238
0.1910506,0.010199871,-0.18046865,0.09093236,-5.7056613,-0.30889273
0.1851006,0.00988221,-0.1748482,0.088100396,-5.5279665,-0.2992727
0.17933609,0.009574452,-0.16940297,0.08535672,-5.355811,-0.28995258
0.17375126,0.009276289,-0.16412748,0.082698576,-5.1890225,-0.28092298
0.16834053,0.008987418,-0.15901645,0.08012328,-5.027433,-0.27217484
0.16309844,0.008707551,-0.15406469,0.077628255,-4.870879,-0.26369935
0.1580197,0.008436407,-0.14926727,0.07521099,-4.719205,-0.255488
0.15309924,0.008173712,-0.14461933,0.07286905,-4.5722566,-0.24753255
0.1483321,0.007919202,-0.14011624,0.07060008,-4.429888,-0.23982498
0.1437135,0.0076726223,-0.13575345,0.06840181,-4.2919545,-0.23235758
0.13923879,0.007433725,-0.13152659,0.066272035,-4.158319,-0.22512282
0.13490349,0.007202271,-0.12743142,0.064208604,-4.0288467,-0.21811347
0.13070326,0.006978027,-0.123463824,0.06220946,-3.903408,-0.21132247
0.12663385,0.0067607686,-0.119619824,0.06027259,-3.781877,-0.20474301
0.122691214,0.006550278,-0.11589556,0.058396056,-3.6641314,-0.19836852
0.11887138,0.0063463436,-0.112287305,0.05657797,-3.5500534,-0.19219257
0.11517053,0.006148761,-0.10879143,0.05481651,-3.4395287,-0.18620898
0.11158494,0.0059573324,-0.105404444,0.053109918,-3.3324463,-0.18041177
0.108111024,0.0057718656,-0.10212294,0.051456474,-3.228699,-0.17479509
0.10474529,0.0055921753,-0.09894363,0.04985452,-3.1281826,-0.16935335
0.10148438,0.005418081,-0.095863335,0.04830246,-3.0307965,-0.16408108
0.09832502,0.0052494076,-0.09287897,0.046798732,-2.9364433,-0.15897298
0.09526405,0.0050859875,-0.08998753,0.04534183,-2.8450284,-0.15402396
0.09229839,0.0049276557,-0.087186135,0.0439303,-2.75646,-0.14922905
0.08942508,0.0047742547,-0.08447198,0.04256272,-2.6706495,-0.14458345
0.08664124,0.00462563,-0.081842326,0.041237723,-2.587511,-0.14008251
0.083944075,0.004481633,-0.079294555,0.039953984,-2.5069613,-0.13572171
0.081330895,0.00434212,-0.07682612,0.038710218,-2.4289196,-0.1314967
0.078799084,0.004206951,-0.07443453,0.037505176,-2.3533077,-0.12740323
0.0763461,0.00407599,-0.07211742,0.036337655,-2.2800503,-0.12343722
0.07396949,0.0039491067,-0.06987245,0.035206486,-2.2090735,-0.119594686
0.071666874,0.003826174,-0.06769737,0.03411053,-2.1403067,-0.115871795
0.06943595,0.0037070685,-0.06559001,0.0330487,-2.0736809,-0.112264805
0.06727448,0.0035916714,-0.06354826,0.032019928,-2.0091293,-0.108770125
0.0651803,0.0034798668,-0.061570078,0.031023188,-1.9465876,-0.10538424
0.06315132,0.003371543,-0.05965348,0.030057475,-1.8859929,-0.10210376
0.061185513,0.0032665918,-0.057796553,0.02912183,-1.8272846,-0.09892542
0.059280902,0.003164908,-0.055997435,0.028215311,-1.770404,-0.09584602
0.057435587,0.0030663894,-0.054254327,0.027337015,-1.7152942,-0.092862494
0.055647716,0.002970938,-0.052565485,0.026486062,-1.6619002,-0.08997184
0.053915504,0.0028784582,-0.05092922,0.025661599,-1.6101682,-0.08717118
0.05223722,0.0027888573,-0.049343888,0.024862804,-1.5600468,-0.08445771
0.05061118,0.0027020457,-0.047807913,0.024088874,-1.5114857,-0.08182871
0.049035758,0.0026179368,-0.046319753,0.023339037,-1.4644363,-0.07928156
0.04750938,0.002536446,-0.044877917,0.022612544,-1.4188515,-0.07681369
0.04603052,0.002457492,-0.04348097,0.021908665,-1.3746859,-0.07442266
0.044597697,0.002380996,-0.042127505,0.021226699,-1.331895,-0.07210605
0.043209475,0.0023068811,-0.040816177,0.02056596,-1.2904363,-0.06986155
0.041864466,0.0022350736,-0.039545666,0.019925792,-1.2502681,-0.06768693
0.04056133,0.0021655012,-0.038314708,0.019305551,-1.2113503,-0.06558
0.039298758,0.0020980947,-0.037122067,0.018704617,-1.173644,-0.06353866
0.038075488,0.0020327864,-0.03596655,0.018122392,-1.1371114,-0.06156087
