ax,ay,az,gx,gy,gz
0.8000073,3.9718542,-0.9827362,101.48547,97.15816,81.39983
-0.6003326,5.407995,-2.5799792,81.89245,65.98761,83.06755
-1.0804497,5.714035,-2.562858,82.686966,43.301815,64.29014
-0.8945306,5.9808664,-2.4625218,82.870094,30.205875,48.521553
-0.41595435,6.3463073,-2.130547,83.37893,26.55827,37.924236
-0.10235854,7.031881,-1.9141612,79.953964,24.738829,29.476435
0.106930785,7.977466,-1.7946755,70.815994,22.514591,20.913593
0.36292046,8.763321,-1.6738259,56.73189,19.999697,11.159978
0.85096747,9.198933,-1.4259478,42.13326,19.418716,2.014186
1.4774747,9.439048,-1.1188133,28.377752,22.545254,-5.664632
2.047529,9.553493,-0.8894668,15.158803,27.940086,-12.60556
2.487037,9.644773,-0.77492905,3.1309767,34.59317,-18.507952
2.6862473,9.643428,-0.80451614,-7.8356266,39.090893,-25.371643
2.7784185,9.448281,-0.8364585,-19.151634,41.865524,-32.60818
2.8823812,9.014759,-0.79591787,-30.505068,44.20019,-38.8335
2.958754,8.383519,-0.65302765,-41.293617,46.788223,-44.09164
2.9559085,7.468038,-0.46062797,-50.640076,50.2398,-49.069023
2.937715,6.282907,-0.38336483,-55.6435,54.223362,-51.84251
2.9399388,4.9285502,-0.49503583,-57.679546,57.596874,-53.369057
3.0492833,3.5223148,-0.6233423,-57.478573,60.819042,-52.550503
3.1875815,2.1461475,-0.7397674,-54.8688,64.517075,-48.195103
3.276706,0.9766468,-0.90672386,-50.919178,68.35897,-40.984158
3.2245746,0.10545146,-1.1630981,-45.862144,71.32709,-32.28377
2.9850876,-0.38620976,-1.5213314,-39.48881,72.723434,-23.853247
2.6792731,-0.62799555,-1.8818533,-32.487263,72.16093,-16.502228
2.390222,-0.7041435,-2.214603,-25.126253,70.79401,-9.763415
2.0981662,-0.6099403,-2.5529096,-18.371992,68.28793,-3.7256186
1.7915099,-0.3384515,-2.8829715,-13.049001,63.9215,1.1220927
1.4584317,0.11589206,-3.1752903,-9.09117,58.030468,4.280438
1.147073,0.62720066,-3.4027588,-6.206252,50.880253,5.4495606
0.8898834,1.1567235,-3.5725698,-4.6726885,43.08053,5.072206
0.69519085,1.6663249,-3.7013683,-4.3186655,35.330048,3.5967705
0.54518574,2.1201463,-3.8234568,-4.7247286,27.985334,0.8074194
0.4252712,2.47537,-4.0161653,-5.382712,20.109982,-2.5361288
0.3381534,2.7544253,-4.1751885,-6.832906,11.518828,-6.2182803
0.34297445,2.9392889,-4.2704177,-9.1572,2.7184637,-9.725853
0.44710037,2.9957087,-4.251869,-12.084303,-5.2517076,-12.705314
0.6051034,2.9382796,-4.1807933,-15.2046995,-11.925746,-15.02697
0.75391144,2.7586012,-4.0461054,-18.152348,-18.251427,-17.088018
0.914804,2.4983408,-3.8015864,-20.776037,-24.219194,-18.764154
1.1687574,2.1272206,-3.4125717,-22.352972,-28.504454,-19.300173
1.4835346,1.7309452,-2.982206,-22.956755,-30.96311,-18.546553
1.7842102,1.394088,-2.5816164,-23.114935,-31.654818,-16.812702
2.0325067,1.0937926,-2.185402,-22.960558,-31.278877,-15.080899
1.961367,1.0555087,-2.1089108,-22.156918,-30.184086,-14.553054
1.8932097,1.01883,-2.0356264,-21.386967,-29.135193,-14.047337
1.8278638,0.98366404,-1.9653648,-20.648775,-28.129564,-13.56248
1.765172,0.9499265,-1.897957,-19.940565,-27.16478,-13.097316
1.7049896,0.91753936,-1.8332473,-19.260704,-26.238613,-12.650771
1.6471827,0.8864306,-1.7710919,-18.60768,-25.349007,-12.221852
1.5916277,0.8565337,-1.7113578,-17.980093,-24.494053,-11.809643
1.5382098,0.8277869,-1.6539216,-17.37665,-23.67199,-11.41329
1.4868226,0.8001329,-1.5986688,-16.796144,-22.881174,-11.032004
1.4373668,0.7735183,-1.5454928,-16.23746,-22.120085,-10.6650505
1.3897502,0.74789345,-1.4942942,-15.699551,-21.387299,-10.311742
1.3438866,0.72321194,-1.4449804,-15.181444,-20.681488,-9.97144
1.2996951,0.69943035,-1.3974646,-14.682227,-20.001411,-9.643546
1.2571005,0.676508,-1.3516657,-14.201049,-19.34591,-9.327499
1.2160316,0.65440685,-1.3075075,-13.737107,-18.713888,-9.022775
1.176422,0.633091,-1.2649183,-13.289652,-18.104324,-8.728878
1.1382091,0.6125267,-1.2238309,-12.857973,-17.516254,-8.445344
1.101334,0.59268236,-1.1841818,-12.441406,-16.94877,-8.171736
1.0657408,0.57352793,-1.1459111,-12.039323,-16.401016,-7.90764
1.0313772,0.5550352,-1.1089625,-11.651128,-15.872184,-7.6526666
0.9981934,0.5371773,-1.0732825,-11.276261,-15.361508,-7.406448
0.9661423,0.51992905,-1.0388204,-10.914191,-14.868264,-7.1686335
0.93517935,0.50326633,-1.0055282,-10.564413,-14.391766,-6.938893
0.90526223,0.48716646,-0.9733606,-10.226449,-13.931362,-6.7169123
0.87635076,0.47160774,-0.9422742,-9.899845,-13.486434,-6.5023932
0.8484067,0.45656964,-0.91222805,-9.58417,-13.056394,-6.295052
0.8213936,0.44203258,-0.8831829,-9.279013,-12.640681,-6.0946193
0.7952769,0.4279779,-0.8551015,-8.98398,-12.238763,-5.900837
0.77002347,0.4143878,-0.82794845,-8.698701,-11.85013,-5.7134604
0.7456019,0.4012453,-0.80168974,-8.422818,-11.4742985,-5.532256
0.72198194,0.38853425,-0.77629304,-8.1559925,-11.110805,-5.3569994
0.6991349,0.37623912,-0.75172734,-7.897897,-10.759204,-5.187478
0.67703325,0.36434513,-0.72796303,-7.6482215,-10.419075,-5.0234866
0.65565056,0.35283807,-0.7049719,-7.4066687,-10.090011,-4.8648305
0.6349617,0.34170434,-0.6827267,-7.172953,-9.771623,-4.7113223
0.61494243,0.33093098,-0.6612014,-6.9468017,-9.46354,-4.562782
0.59556955,0.32050547,-0.6403712,-6.7279525,-9.165404,-4.4190383
0.5768208,0.31041583,-0.62021214,-6.5161543,-8.876874,-4.2799253
0.5586748,0.3006506,-0.60070115,-6.3111653,-8.597621,-4.1452847
0.5411112,0.2911987,-0.5818162,-6.1127543,-8.327328,-4.014965
0.52411,0.28204954,-0.56353617,-5.9206977,-8.065691,-3.8888187
0.5076524,0.2731929,-0.54584056,-5.734782,-7.812421,-3.7667062
0.49172023,0.264619,-0.5287098,-5.554801,-7.567235,-3.6484914
0.4762958,0.25631836,-0.51212513,-5.3805566,-7.329864,-3.5340447
0.4613623,0.24828191,-0.49606827,-5.211858,-7.100048,-3.4232402
0.44690347,0.24050088,-0.48052177,-5.048521,-6.8775363,-3.3159578
0.4329036,0.23296687,-0.46546873,-4.890369,-6.662088,-3.2120807
0.41934758,0.22567171,-0.450893,-4.7372313,-6.45347,-3.1114972
0.4062209,0.2186076,-0.43677887,-4.588944,-6.25146,-3.0140994
0.39350954,0.21176697,-0.4231113,-4.4453473,-6.0558405,-2.9197826
0.3811999,0.20514256,-0.40987566,-4.3062897,-5.8664036,-2.828447
0.36927897,0.19872731,-0.39705798,-4.1716228,-5.6829486,-2.7399955
0.3577341,0.19251445,-0.38464466,-4.0412045,-5.5052814,-2.6543345
0.3465532,0.18649745,-0.37262267,-3.9148974,-5.3332148,-2.5713737
0.33572447,0.18066996,-0.36097935,-3.7925687,-5.1665683,-2.4910262
0.3252366,0.17502591,-0.3497025,-3.6740904,-5.005167,-2.4132075
0.3150786,0.16955939,-0.33878037,-3.5593388,-4.848842,-2.3378365
0.3052399,0.16426471,-0.32820156,-3.4481945,-4.6974316,-2.264835
0.2957103,0.15913635,-0.31795508,-3.3405416,-4.5507774,-2.1941266
0.2864799,0.15416902,-0.30803034,-3.2362688,-4.408728,-2.1256385
0.27753916,0.14935757,-0.29841703,-3.1352682,-4.2711363,-2.0592995
0.26887885,0.14469703,-0.28910527,-3.0374358,-4.1378603,-1.9950414
0.26049006,0.1401826,-0.2800854,-2.9426703,-4.0087624,-1.9327978
0.25236413,0.13580965,-0.2713482,-2.8508744,-3.8837101,-1.8725047
0.24449275,0.13157366,-0.26288474,-2.761954,-3.7625751,-1.8141003
0.23686786,0.12747033,-0.25468624,-2.675818,-3.645233,-1.7575245
0.22948161,0.12349542,-0.24674436,-2.5923781,-3.5315638,-1.7027197
0.22232649,0.119644895,-0.23905098,-2.511549,-3.4214513,-1.6496297
0.21539518,0.115914814,-0.23159827,-2.4332483,-3.3147833,-1.5982004
0.20868061,0.11230137,-0.2243786,-2.3573961,-3.2114508,-1.5483793
0.20217596,0.108800896,-0.21738464,-2.283915,-3.1113486,-1.5001158
0.1958746,0.10540982,-0.21060926,-2.2127306,-3.014375,-1.4533606
0.18977013,0.102124706,-0.20404558,-2.1437705,-2.9204314,-1.4080664
0.18385635,0.09894221,-0.19768694,-2.0769646,-2.8294225,-1.364187
0.17812727,0.09585911,-0.19152689,-2.012245,-2.741256,-1.321678
0.17257708,0.09287228,-0.1855592,-1.9495465,-2.6558423,-1.2804965
0.16720018,0.089978695,-0.1797778,-1.8888052,-2.5730953,-1.2406006
0.16199109,0.08717543,-0.17417687,-1.8299599,-2.4929311,-1.20195
0.15694457,0.08445965,-0.16875072,-1.7729511,-2.415269,-1.1645056
0.15205553,0.08182861,-0.1634939,-1.7177211,-2.3400297,-1.1282296
0.147319,0.079279654,-0.15840107,-1.6642143,-2.267138,-1.0930853
0.14273025,0.07681021,-0.15346712,-1.6123765,-2.19652,-1.0590373
0.13828461,0.07441779,-0.14868706,-1.5621556,-2.1281047,-1.0260514
0.1339776,0.07209998,-0.14405607,-1.5135008,-2.061823,-0.9940941
0.12980491,0.06985445,-0.13956948,-1.4663632,-1.9976081,-0.9631333
0.12576231,0.06767893,-0.13522278,-1.4206953,-1.9353952,-0.9331378
0.121845745,0.06557123,-0.13101159,-1.3764513,-1.8751221,-0.9040775
0.118051276,0.06352924,-0.12693168,-1.3335863,-1.8167276,-0.87592304
0.11437507,0.061550893,-0.12297893,-1.2920575,-1.7601535,-0.84864616
0.11081345,0.059634205,-0.11914939,-1.251823,-1.7053425,-0.82221943
0.10736282,0.057777256,-0.11543919,-1.2128425,-1.6522398,-0.7966163
0.10401973,0.055978168,-0.11184461,-1.1750766,-1.6007919,-0.77181107
0.10078081,0.054235145,-0.10836204,-1.1384876,-1.5509471,-0.7477787
0.0976428,0.05254643,-0.10498798,-1.1030385,-1.5026554,-0.7244952
0.09460257,0.050910328,-0.101719044,-1.068694,-1.4558682,-0.7019371
0.09165705,0.049325198,-0.09855195,-1.0354195,-1.4105388,-0.6800818
0.08880329,0.04778945,-0.09548352,-1.0031816,-1.3666215,-0.65890735
0.08603843,0.046301544,-0.09251067,-0.97194785,-1.3240722,-0.6383925
0.0833597,0.044859983,-0.08963043,-0.94168705,-1.2828484,-0.6185167
0.080764405,0.043463327,-0.08683991,-0.91236883,-1.2429085,-0.59926
0.078249946,0.04211017,-0.08413629,-0.8839638,-1.2042127,-0.58060306
0.0758138,0.04079916,-0.08151689,-0.85644346,-1.166722,-0.5625272
0.07345352,0.03952898,-0.07897907,-0.8297803,-1.1303991,-0.5450143
0.07116676,0.03829836,-0.07652028,-0.80394745,-1.0952073,-0.52804685
0.06895121,0.037106063,-0.07413806,-0.7789191,-1.0611116,-0.5116078
0.066804655,0.035950895,-0.071830034,-0.7546702,-1.0280776,-0.4956807
0.064724945,0.0348317,-0.06959388,-0.7311764,-0.9960723,-0.48024955
0.06271,0.033747356,-0.06742736,-0.7084142,-0.96506363,-0.46529895
0.060757793,0.03269678,-0.0653283,-0.6863608,-0.93502057,-0.45081386
0.058866378,0.031678915,-0.0632946,-0.66499406,-0.905913,-0.43677983
0.057033855,0.030692743,-0.061324224,-0.64429265,-0.8777117,-0.4231828
0.055258393,0.029737279,-0.059415203,-0.6242358,-0.8503885,-0.41000912
0.05353821,0.028811563,-0.05756562,-0.6048035,-0.82391614,-0.39724562
0.051871587,0.02791467,-0.055773623,-0.5859762,-0.79826796,-0.38487953
0.050256852,0.027045703,-0.054037426,-0.5677351,-0.7734183,-0.37289843
0.048692394,0.026203789,-0.05235528,-0.55006194,-0.7493424,-0.3612904
0.047176644,0.02538809,-0.050725505,-0.532939,-0.72601604,-0.35004374
0.045708083,0.024597785,-0.049146473,-0.51634914,-0.7034159,-0.33914724
0.044285245,0.023832085,-0.0476166,-0.5002758,-0.6815194,-0.32858998
0.0429067,0.023090223,-0.04613436,-0.4847029,-0.6603046,-0.3183614
0.041571077,0.022371456,-0.04469826,-0.46961477,-0.63975024,-0.30845127
0.040277034,0.021675067,-0.043306872,-0.45499638,-0.6198358,-0.29884964
0.039023276,0.02100036,-0.0419588,-0.4408331,-0.60054135,-0.28954697
0.03780855,0.020346655,-0.040652696,-0.42711073,-0.58184755,-0.28053388
0.03663164,0.0197133,-0.039387252,-0.41381556,-0.56373566,-0.27180135
0.035491366,0.019099662,-0.038161203,-0.40093428,-0.5461877,-0.2633407
0.034386594,0.018505128,-0.036973324,-0.388454,-0.52918595,-0.25514343
0.03331621,0.017929103,-0.03582242,-0.37636223,-0.5127135,-0.24720135
0.03227915,0.017371008,-0.034707345,-0.36464688,-0.4967538,-0.23950651
0.03127437,0.016830288,-0.03362698,-0.35329625,-0.481291,-0.23205121
0.03030087,0.016306398,-0.032580253,-0.34229892,-0.4663095,-0.22482799
0.029357675,0.015798818,-0.031566106,-0.33164397,-0.4517944,-0.21782961
0.028443841,0.01530704,-0.030583529,-0.32132068,-0.43773112,-0.21104911
0.027558455,0.01483057,-0.029631538,-0.31131878,-0.4241056,-0.20447966
0.026700629,0.014368931,-0.028709183,-0.3016282,-0.41090426,-0.19811472
0.025869507,0.013921663,-0.02781554,-0.29223928,-0.39811388,-0.19194792
