ax,ay,az,gx,gy,gz
-2.0318365,11.097373,-4.9855,-12.761934,39.728542,29.40845
-2.465976,12.075382,-5.1839485,-48.96536,25.335646,11.441142
-2.624658,12.175117,-4.6158395,-66.21939,14.544281,-5.6689243
-2.3569224,11.99442,-3.6743486,-63.14231,13.777965,-21.658554
-1.8182871,12.0401125,-3.0957732,-60.992382,20.320305,-41.30202
-1.3305409,11.94262,-2.9064903,-59.74701,26.502626,-63.40551
-1.105811,11.635383,-2.903423,-56.56833,30.8129,-83.512856
-1.0359646,11.365028,-3.004028,-53.708763,31.79587,-100.039665
-0.96311706,11.214375,-3.1773846,-54.786274,28.70835,-111.834915
-0.7708754,11.025978,-3.346043,-62.492348,21.97854,-120.53783
-0.45748207,10.4742565,-3.4342775,-70.9757,15.009707,-127.42706
-0.105591,9.672838,-3.4702656,-79.04802,7.8061223,-132.82869
0.28839412,8.691374,-3.4211023,-87.336105,0.38887572,-135.77788
0.7635766,7.5406265,-3.2181723,-94.59453,-6.563851,-135.8348
1.3384985,6.3255467,-2.872603,-101.40412,-11.873128,-131.55217
1.988453,5.1017323,-2.3542314,-106.089966,-14.137106,-126.11195
2.577317,3.9570894,-1.818478,-108.37115,-13.443933,-120.39483
3.0743773,2.9413893,-1.2799968,-109.287346,-9.7810545,-114.083496
3.3996742,2.0454478,-0.8307306,-109.69657,-4.356226,-106.22714
3.5560055,1.2717228,-0.5006024,-109.130424,2.2063177,-96.72254
3.5873327,0.6893591,-0.30529752,-107.38563,8.611122,-86.9598
3.5767288,0.23490085,-0.19806816,-104.6287,15.189515,-77.91456
3.5140967,-0.14780097,-0.17922579,-100.997574,21.972462,-69.64323
3.402039,-0.44122475,-0.26494825,-97.0269,28.674807,-61.68838
3.2240665,-0.6726803,-0.45443553,-91.879974,34.320602,-53.77952
2.932625,-0.8249445,-0.7560991,-86.22847,38.009727,-46.03019
2.5963345,-0.91166925,-1.073671,-79.762505,40.228226,-38.483093
2.2428968,-0.91071576,-1.4051954,-72.3989,41.37741,-31.67895
1.8664796,-0.8016471,-1.7863024,-65.92989,41.03327,-26.390533
1.4563189,-0.6541161,-2.1530023,-59.84245,38.250523,-23.092335
1.0022326,-0.4312162,-2.5109098,-53.82774,33.488987,-21.069244
0.55354446,-0.14479691,-2.8462322,-49.017487,27.020359,-19.92884
0.1732863,0.115329295,-3.1120803,-44.10013,19.790812,-19.280272
-0.14030421,0.37400538,-3.357881,-39.96697,11.942551,-18.970308
-0.4190124,0.6300455,-3.6093433,-36.71771,3.253781,-19.224394
-0.67736864,0.8724638,-3.8457742,-33.732788,-5.9127016,-20.49176
-0.8611335,1.0705976,-4.0233965,-30.718658,-15.137737,-22.519236
-0.97559744,1.2199492,-4.140392,-27.946602,-24.131573,-24.405704
-1.0074663,1.318617,-4.2002788,-25.384665,-32.807507,-25.666828
-0.9392907,1.3631315,-4.1968317,-23.215559,-40.771614,-26.178974
-0.7314959,1.3499842,-4.091298,-20.912136,-47.635315,-26.214529
-0.44641092,1.3120332,-3.916739,-18.495857,-53.254505,-26.073322
-0.09634452,1.214171,-3.6738386,-16.023703,-57.3576,-25.43917
0.28511733,1.105532,-3.3737986,-13.902125,-60.201893,-23.728195
0.6936791,0.9976756,-3.0229213,-12.610167,-61.079163,-21.051947
1.0653405,0.8588958,-2.6594748,-11.003325,-60.54314,-18.288498
1.3958881,0.71313846,-2.2849257,-8.866569,-58.409184,-16.155188
1.3480121,0.68867934,-2.2065578,-8.562465,-56.405876,-15.601099
1.3020525,0.6651993,-2.1313264,-8.270533,-54.482754,-15.069189
1.257907,0.642646,-2.0590649,-7.990124,-52.63554,-14.558276
1.2154813,0.62097126,-1.9896183,-7.720639,-50.860287,-14.067265
1.1746875,0.6001304,-1.9228431,-7.4615207,-49.153324,-13.595142
1.1354445,0.5800817,-1.8586063,-7.2122526,-47.51125,-13.140967
1.0976766,0.56078666,-1.7967842,-6.9723535,-45.9309,-12.703863
1.0613132,0.5422091,-1.7372609,-6.741376,-44.409317,-12.283014
1.0262883,0.5243155,-1.6799289,-6.5189013,-42.94375,-11.877658
0.9925406,0.50707424,-1.6246872,-6.3045382,-41.531616,-11.487081
0.9600122,0.49045596,-1.5714417,-6.0979204,-40.170506,-11.110617
0.92864907,0.474433,-1.5201033,-5.898704,-38.858154,-10.747638
0.89840037,0.45897937,-1.4705893,-5.706567,-37.592434,-10.397557
0.86921823,0.44407067,-1.4228213,-5.5212045,-36.371346,-10.059821
0.8410577,0.4296839,-1.3767253,-5.342331,-35.193005,-9.733907
0.8138763,0.41579726,-1.332232,-5.169677,-34.05563,-9.419325
0.7876337,0.40239036,-1.2892758,-5.002986,-32.957546,-9.115609
0.76229215,0.38944373,-1.2477942,-4.8420186,-31.89716,-8.822321
0.7378157,0.37693906,-1.2077286,-4.686546,-30.87297,-8.539044
0.71417016,0.3648589,-1.1690234,-4.536351,-29.883553,-8.265385
0.6913233,0.3531868,-1.1316254,-4.39123,-28.927555,-8.000969
0.6692444,0.341907,-1.0954845,-4.2509866,-28.00369,-7.745441
0.6479043,0.33100465,-1.060553,-4.115436,-27.11074,-7.4984627
0.6272751,0.32046553,-1.0267851,-3.9844015,-26.247541,-7.2597136
0.60733056,0.31027615,-0.9941379,-3.857715,-25.412985,-7.0288863
0.58804524,0.30042356,-0.96256983,-3.7352161,-24.606014,-6.80569
0.5693951,0.29089552,-0.9320415,-3.6167524,-23.825626,-6.5898447
0.55135727,0.28168023,-0.90251535,-3.5021772,-23.070854,-6.381085
0.5339096,0.2727665,-0.87395537,-3.3913512,-22.340778,-6.1791563
0.5170312,0.26414356,-0.8463271,-3.2841408,-21.634521,-5.983815
0.5007019,0.25580114,-0.81959766,-3.1804183,-20.951242,-5.794829
0.48490235,0.2477294,-0.7937355,-3.080061,-20.29013,-5.6119747
0.4696142,0.23991892,-0.7687103,-2.9829516,-19.650417,-5.4350386
0.45481968,0.23236062,-0.7444932,-2.888978,-19.031359,-5.2638154
0.44050178,0.22504582,-0.7210563,-2.798032,-18.432245,-5.098109
0.42664424,0.2179662,-0.6983729,-2.71001,-17.852392,-4.9377294
0.41323134,0.21111375,-0.67641735,-2.6248124,-17.291147,-4.7824965
0.40024805,0.20448077,-0.655165,-2.5423434,-16.747877,-4.6322355
0.38767985,0.19805987,-0.63459224,-2.4625113,-16.221977,-4.4867787
0.37551287,0.19184394,-0.6146761,-2.3852277,-15.712865,-4.345965
0.36373368,0.18582614,-0.5953948,-2.3104072,-15.219979,-4.2096395
0.3523294,0.17999986,-0.57672715,-2.237968,-14.742782,-4.0776534
0.34128758,0.17435876,-0.5586528,-2.1678314,-14.28075,-3.9498618
0.33059627,0.16889672,-0.54115224,-2.099921,-13.833386,-3.8261268
0.32024395,0.16360787,-0.5242065,-2.0341637,-13.400206,-3.706315
0.31021947,0.15848652,-0.5077975,-1.9704893,-12.980744,-3.5902977
0.30051214,0.15352719,-0.4919076,-1.9088291,-12.5745535,-3.4779508
0.29111162,0.1487246,-0.4765199,-1.8491178,-12.181201,-3.3691547
0.28200796,0.14407367,-0.46161813,-1.7912918,-11.800269,-3.2637942
0.27319148,0.13956946,-0.44718647,-1.7352903,-11.4313545,-3.1617575
0.2646529,0.13520725,-0.43320972,-1.6810541,-11.074069,-3.0629373
0.25638333,0.13098243,-0.41967323,-1.6285263,-10.728039,-2.9672298
0.24837402,0.12689058,-0.4065628,-1.5776519,-10.392899,-2.8745348
0.24061663,0.122927465,-0.39386478,-1.5283775,-10.068301,-2.7847555
0.23310311,0.11908891,-0.3815659,-1.4806522,-9.753907,-2.6977983
0.22582561,0.11537095,-0.3696534,-1.4344262,-9.449389,-2.6135728
0.21877661,0.11176972,-0.35811493,-1.3896515,-9.154433,-2.531992
0.21194883,0.10828151,-0.34693852,-1.346282,-8.868732,-2.4529712
0.2053352,0.1049027,-0.33611268,-1.3042728,-8.591994,-2.3764288
0.19892891,0.10162982,-0.32562625,-1.2635806,-8.323931,-2.3022861
0.19272338,0.09845951,-0.31546843,-1.2241634,-8.064268,-2.230467
0.18671224,0.0953885,-0.3056288,-1.1859812,-7.812739,-2.1608975
0.18088931,0.09241366,-0.29609728,-1.1489943,-7.569086,-2.0935063
0.17524864,0.08953193,-0.28686407,-1.1131653,-7.3330593,-2.0282247
0.16978447,0.08674037,-0.2779198,-1.0784574,-7.1044183,-1.9649856
0.16449122,0.08403612,-0.26925528,-1.0448351,-6.882929,-1.9037247
0.15936351,0.08141644,-0.26086172,-1.0122641,-6.668366,-1.8443794
0.15439609,0.07887866,-0.25273058,-0.9807115,-6.4605103,-1.7868894
0.1495839,0.076420195,-0.24485354,-0.950145,-6.259151,-1.7311962
0.1449221,0.07403854,-0.23722263,-0.92053354,-6.064083,-1.6772431
0.14040591,0.07173129,-0.2298301,-0.8918471,-5.875109,-1.6249754
0.13603078,0.0694961,-0.22266845,-0.8640566,-5.692037,-1.5743402
0.13179226,0.0673307,-0.21573043,-0.8371338,-5.514682,-1.5252861
0.12768605,0.06523291,-0.209009,-0.8110516,-5.342863,-1.4777633
0.12370803,0.06320059,-0.20249738,-0.78578347,-5.1764073,-1.431724
0.11985415,0.061231703,-0.19618897,-0.76130396,-5.0151463,-1.3871214
0.116120525,0.05932425,-0.1900774,-0.7375882,-4.8589177,-1.3439106
0.11250338,0.057476304,-0.1841565,-0.7146124,-4.7075624,-1.3020478
0.108999066,0.055686,-0.1784203,-0.6923533,-4.5609293,-1.2614911
0.10560405,0.053951543,-0.17286302,-0.67078847,-4.418869,-1.2221992
0.10231492,0.052271172,-0.16747904,-0.64989614,-4.2812395,-1.1841327
0.09912835,0.050643202,-0.16226295,-0.6296553,-4.1479015,-1.1472532
0.096041135,0.04906599,-0.1572095,-0.61004555,-4.0187206,-1.1115236
0.09305016,0.047537945,-0.15231359,-0.59104717,-3.8935673,-1.0769079
0.09015243,0.046057537,-0.1475703,-0.572641,-3.7723153,-1.0433712
0.08734502,0.04462327,-0.14297485,-0.55480856,-3.6548429,-1.0108799
0.08462511,0.04323371,-0.13852264,-0.5375319,-3.5410316,-0.97940123
0.08198997,0.041887455,-0.13420917,-0.5207937,-3.430767,-0.9489036
0.079436935,0.04058315,-0.13003013,-0.50457704,-3.3239388,-0.91935635
0.07696346,0.03931949,-0.1259813,-0.48886573,-3.2204394,-0.89072984
0.07456706,0.038095202,-0.12205864,-0.47364396,-3.1201649,-0.86299527
0.072245315,0.03690906,-0.11825818,-0.45889646,-3.0230145,-0.8361248
0.06999591,0.03575987,-0.11457613,-0.4446084,-2.928891,-0.81009144
0.06781657,0.034646478,-0.111008786,-0.43076542,-2.8376994,-0.78486913
0.06570513,0.033567775,-0.107552566,-0.41735372,-2.7493486,-0.7604325
0.06365945,0.03252267,-0.10420401,-0.40435976,-2.66375,-0.7367571
0.0616775,0.03151012,-0.10095975,-0.39177054,-2.5808177,-0.7138191
0.059757277,0.030529104,-0.09781654,-0.37957343,-2.5004683,-0.6915956
0.057896864,0.029578647,-0.094771236,-0.36775622,-2.4226215,-0.6700642
0.05609439,0.028657788,-0.09182077,-0.35630706,-2.3471992,-0.6492035
0.05434805,0.027765611,-0.08896219,-0.34521446,-2.274126,-0.6289924
0.052656095,0.026901217,-0.08619264,-0.3344673,-2.2033284,-0.6094107
0.051016834,0.026063742,-0.08350933,-0.32405484,-2.1347353,-0.59043884
0.04942862,0.025252346,-0.08090959,-0.31396663,-2.0682786,-0.5720577
0.04788986,0.024466217,-0.07839079,-0.30419254,-2.003891,-0.55424905
0.046399016,0.023704568,-0.07595044,-0.29472283,-1.9415085,-0.53699493
0.044954594,0.022966634,-0.07358607,-0.28554797,-1.8810686,-0.52027804
0.043555148,0.022251679,-0.07129531,-0.2766588,-1.8225105,-0.50408167
0.042199276,0.021558983,-0.0690759,-0.2680464,-1.7657758,-0.4883896
0.040885624,0.020887857,-0.06692558,-0.2597022,-1.7108076,-0.47318614
0.03961287,0.020237627,-0.06484221,-0.25161776,-1.6575508,-0.45845604
0.038379744,0.01960764,-0.062823705,-0.24378505,-1.6059521,-0.44418457
0.03718501,0.018997269,-0.06086805,-0.2361962,-1.55596,-0.43035743
0.036027472,0.018405901,-0.058973283,-0.22884363,-1.5075244,-0.41696078
0.034905978,0.017832944,-0.057137508,-0.22171997,-1.4605968,-0.40398124
0.033819392,0.017277826,-0.055358883,-0.21481808,-1.4151301,-0.39140576
0.03276664,0.016739989,-0.053635634,-0.20813107,-1.371079,-0.37922183
0.031746663,0.016218897,-0.051966034,-0.20165224,-1.3283992,-0.3674172
0.030758437,0.015714029,-0.05034841,-0.19537511,-1.2870482,-0.35598004
0.029800978,0.015224876,-0.048781145,-0.18929341,-1.2469845,-0.34489897
0.028873324,0.014750952,-0.047262676,-0.18340105,-1.208168,-0.33416286
0.027974552,0.014291782,-0.045791473,-0.1776921,-1.17056,-0.323761
0.027103757,0.013846907,-0.044366073,-0.1721609,-1.1341227,-0.31368294
0.026260072,0.0134158805,-0.04298505,-0.16680187,-1.0988197,-0.30391863
0.02544265,0.012998272,-0.041647013,-0.16160968,-1.0646157,-0.29445827
0.024650676,0.012593663,-0.04035063,-0.1565791,-1.0314766,-0.28529242
0.023883354,0.012201651,-0.039094605,-0.15170515,-0.999369,-0.2764119
0.02313992,0.011821842,-0.03787768,-0.14698292,-0.96826094,-0.26780784
0.02241963,0.011453855,-0.036698636,-0.14240769,-0.93812126,-0.2594716
0.02172176,0.011097324,-0.035556298,-0.13797487,-0.9089198,-0.25139487
0.021045616,0.010751892,-0.034449518,-0.13368006,-0.88062733,-0.24356957
0.020390518,0.010417213,-0.03337719,-0.12951894,-0.85321563,-0.23598786
0.019755812,0.010092951,-0.032338243,-0.12548734,-0.82665724,-0.22864217
