ax,ay,az,gx,gy,gz
-0.77455246,6.7600613,-2.4445677,-26.74479,30.129364,23.360212
-0.71091914,6.576116,-1.444193,-12.751055,46.77409,18.540648
-0.72710353,7.1309543,-1.0424354,-5.47431,55.28819,7.9926257
-0.80321336,7.97188,-1.0766019,-10.20049,53.303246,-4.6026354
-0.9016279,8.663073,-1.1153527,-19.507998,45.074276,-20.40983
-0.91559064,9.232181,-1.1358151,-29.764069,35.07963,-36.001324
-0.69199544,9.591257,-1.0877424,-40.473312,26.570856,-50.454838
-0.26046008,9.770801,-1.014763,-52.123238,22.00456,-63.673004
0.17445254,9.697747,-1.034689,-62.649475,20.47765,-75.52195
0.4613758,9.436678,-1.2168652,-72.265396,18.864159,-85.38099
0.68660057,8.936753,-1.4679748,-81.11243,15.829339,-93.118546
1.0141032,8.301653,-1.548444,-89.10542,13.20362,-98.79944
1.4207791,7.499215,-1.5025532,-96.90037,11.489451,-101.64355
1.8321207,6.5691195,-1.3549182,-104.0777,11.007224,-101.445015
2.2844188,5.563121,-1.1515344,-110.42832,13.12007,-98.35953
2.7504072,4.438679,-0.94484854,-114.13482,16.513369,-95.20107
3.135368,3.3319347,-0.71927065,-115.500885,21.071066,-92.17884
3.4302325,2.2336805,-0.48551643,-114.647896,26.505692,-88.319725
3.6515124,1.1803771,-0.28556728,-112.33867,32.91776,-82.65817
3.769472,0.24799992,-0.16687821,-107.855865,39.821827,-74.56033
3.768533,-0.41610944,-0.15689006,-102.41119,46.458523,-65.96881
3.7030666,-0.9028218,-0.23292114,-96.0387,52.681885,-58.07619
3.574004,-1.2781526,-0.3866006,-88.43903,58.170002,-50.795357
3.386745,-1.5482129,-0.59444696,-80.52596,62.596413,-43.86029
3.162351,-1.7222407,-0.8385907,-73.24864,65.570625,-36.69496
2.8947098,-1.7847631,-1.1238637,-66.47118,67.490814,-29.711567
2.615915,-1.7890964,-1.4294239,-59.058987,68.3159,-23.083368
2.3317547,-1.7112088,-1.753963,-50.952,68.089516,-16.790339
2.0234277,-1.4739178,-2.1008873,-43.600864,66.45311,-11.25993
1.6629858,-1.1546042,-2.4726691,-37.86076,62.34507,-7.6832943
1.2657344,-0.8148526,-2.870473,-34.073376,56.8081,-5.6209435
0.8781817,-0.52568126,-3.2612724,-31.57684,49.859985,-4.751501
0.52379143,-0.2980164,-3.6447396,-28.959894,41.782295,-4.5930796
0.20635878,-0.051896658,-3.9992702,-26.053438,32.4614,-4.7391872
-0.059210043,0.26639238,-4.320077,-23.856478,21.04633,-5.510369
-0.25197348,0.59533775,-4.5841007,-23.608944,8.481232,-6.8354673
-0.38306677,0.84412044,-4.765795,-24.539717,-4.8109903,-8.853121
-0.4306382,1.0078405,-4.8366218,-25.299152,-17.05797,-11.446475
-0.4053384,1.115603,-4.851713,-25.746876,-28.239485,-14.327762
-0.29515344,1.1510862,-4.8202405,-25.794125,-38.760895,-16.91721
-0.042613473,1.08117,-4.7032514,-26.365118,-47.986748,-18.695732
0.28659713,0.92189646,-4.5156727,-26.693586,-55.844025,-19.128563
0.66795594,0.7337526,-4.266267,-26.443224,-62.19257,-18.459198
1.0631274,0.5841442,-3.972349,-25.72585,-66.62727,-17.15154
1.4114523,0.47542623,-3.6728687,-23.983719,-69.09977,-16.425182
1.7247417,0.40601587,-3.3772907,-21.990126,-70.639305,-16.24465
2.0647328,0.32842344,-3.0445123,-19.590021,-70.89346,-16.069458
2.427373,0.22640714,-2.6645432,-16.768234,-69.17163,-15.643909
2.7558937,0.1217917,-2.2870317,-13.720188,-65.468956,-14.554938
2.999603,0.052124966,-1.9714812,-11.272546,-59.836876,-13.173704
3.1109838,-0.04501384,-1.7542613,-8.220343,-53.141712,-11.553961
3.0065737,-0.043503094,-1.6953851,-7.9444537,-51.35818,-11.166189
2.9061327,-0.04204978,-1.6387471,-7.679052,-49.64245,-10.793159
2.8094668,-0.04065109,-1.5842379,-7.423626,-47.991207,-10.434149
2.7163959,-0.039304417,-1.5317559,-7.1776986,-46.40137,-10.0884905
2.626751,-0.038007315,-1.4812058,-6.9408245,-44.87006,-9.755556
2.5403748,-0.03675751,-1.4324989,-6.7125874,-43.394585,-9.434761
2.4571195,-0.035552863,-1.3855518,-6.4925966,-41.97242,-9.125557
2.3768466,-0.034391366,-1.3402865,-6.2804866,-40.601204,-8.82743
2.2994258,-0.03327114,-1.2966295,-6.0759134,-39.278706,-8.539895
2.2247353,-0.03219042,-1.2545121,-5.878554,-38.002846,-8.2625
2.1526594,-0.03114753,-1.213869,-5.688103,-36.771645,-7.9948153
2.0830894,-0.030140897,-1.174639,-5.504274,-35.583252,-7.7364373
2.0159223,-0.029169038,-1.136764,-5.326795,-34.43591,-7.4869847
1.9510616,-0.028230546,-1.1001894,-5.1554093,-33.32796,-7.246096
1.8884147,-0.027324088,-1.0648633,-4.9898734,-32.257828,-7.0134306
1.8278948,-0.026448406,-1.0307366,-4.829958,-31.22403,-6.788664
1.7694191,-0.0256023,-0.99776256,-4.675444,-30.22515,-6.5714893
1.7129089,-0.024784636,-0.96589684,-4.5261235,-29.259844,-6.3616147
1.6582896,-0.023994332,-0.9350974,-4.3817997,-28.32684,-6.158763
1.60549,-0.023230357,-0.90532416,-4.2422843,-27.42492,-5.9626694
1.5544424,-0.022491734,-0.8765388,-4.107398,-26.552927,-5.7730823
1.5050824,-0.021777527,-0.848705,-3.976971,-25.709759,-5.5897627
1.457348,-0.021086844,-0.82178795,-3.8508396,-24.894363,-5.4124813
1.4111807,-0.020418834,-0.79575455,-3.728849,-24.105736,-5.2410192
1.366524,-0.019772682,-0.77057296,-3.6108499,-23.342913,-5.0751677
1.3233243,-0.01914761,-0.74621296,-3.4967005,-22.604975,-4.914727
1.2815299,-0.018542873,-0.7226454,-3.3862646,-21.891045,-4.7595057
1.2410915,-0.017957758,-0.6998425,-3.279412,-21.20028,-4.6093206
1.201962,-0.01739158,-0.67777765,-3.1760175,-20.53187,-4.4639964
1.1640959,-0.016843682,-0.65642524,-3.0759616,-19.885042,-4.3233647
1.1274498,-0.016313437,-0.6357607,-2.9791293,-19.259054,-4.1872635
1.0919818,-0.01580024,-0.6157606,-2.88541,-18.653193,-4.055538
1.0576519,-0.01530351,-0.5964022,-2.7946982,-18.06677,-3.9280398
1.0244216,-0.01482269,-0.5776639,-2.7068918,-17.49913,-3.8046248
0.9922538,-0.014357243,-0.5595247,-2.6218927,-16.949642,-3.6851559
0.9611128,-0.013906654,-0.54196453,-2.539607,-16.417692,-3.5695007
0.93096435,-0.013470426,-0.52496403,-2.459944,-15.902698,-3.4575317
0.9017754,-0.013048083,-0.5085046,-2.3828163,-15.404094,-3.3491263
0.87351424,-0.012639162,-0.49256834,-2.30814,-14.921338,-3.2441664
0.8461502,-0.012243223,-0.47713795,-2.2358344,-14.453906,-3.1425383
0.81965375,-0.011859838,-0.4621968,-2.1658213,-14.001295,-3.0441325
0.79399645,-0.011488594,-0.44772884,-2.0980253,-13.563018,-2.9488432
0.7691509,-0.011129095,-0.43371862,-2.0323744,-13.138607,-2.8565686
0.7450906,-0.010780958,-0.42015117,-1.9687984,-12.72761,-2.7672105
0.72179,-0.010443815,-0.40701213,-1.9072298,-12.32959,-2.6806738
0.69922453,-0.010117307,-0.39428765,-1.8476037,-11.944127,-2.5968673
0.67737037,-0.009801093,-0.38196424,-1.7898571,-11.570815,-2.5157027
0.65620464,-0.009494838,-0.37002903,-1.7339295,-11.209263,-2.4370947
0.63570505,-0.009198224,-0.3584695,-1.6797624,-10.85909,-2.360961
0.6158503,-0.008910939,-0.34727353,-1.627299,-10.519932,-2.287222
0.59661967,-0.008632684,-0.3364295,-1.5764846,-10.191435,-2.2158008
0.57799315,-0.0083631715,-0.32592615,-1.5272667,-9.873258,-2.1466234
0.55995154,-0.008102121,-0.3157526,-1.4795941,-9.565071,-2.079618
0.542476,-0.007849262,-0.30589828,-1.4334176,-9.266555,-2.0147152
0.52554864,-0.0076043345,-0.29635307,-1.3886893,-8.977403,-1.9518483
0.509152,-0.0073670857,-0.2871071,-1.3453634,-8.697315,-1.8909522
0.49326912,-0.0071372716,-0.2781509,-1.3033952,-8.426004,-1.8319645
0.4778838,-0.006914656,-0.2694752,-1.2627414,-8.163193,-1.7748245
0.46298018,-0.006699011,-0.26107118,-1.2233609,-7.9086103,-1.7194737
0.4485431,-0.0064901165,-0.2529302,-1.1852129,-7.6619964,-1.6658554
0.43455774,-0.006287758,-0.24504396,-1.1482584,-7.423099,-1.6139148
0.42100984,-0.006091729,-0.2374044,-1.11246,-7.191674,-1.563599
0.4078856,-0.00590183,-0.23000373,-1.0777811,-6.9674864,-1.5148566
0.39517167,-0.0057178675,-0.22283442,-1.0441862,-6.7503076,-1.4676379
0.38285506,-0.0055396548,-0.21588919,-1.0116413,-6.5399156,-1.4218949
0.3709233,-0.0053670104,-0.20916097,-0.9801133,-6.336098,-1.3775814
0.3593643,-0.005199759,-0.20264292,-0.94957024,-6.138647,-1.334652
0.3481663,-0.0050377315,-0.19632843,-0.919981,-5.9473634,-1.2930634
0.3373179,-0.004880763,-0.19021113,-0.89131576,-5.762052,-1.2527734
0.32680824,-0.004728695,-0.18428479,-0.86354536,-5.582526,-1.2137413
0.3166266,-0.0045813737,-0.17854345,-0.83664185,-5.4086037,-1.1759274
0.30676273,-0.00443865,-0.17298128,-0.81057787,-5.2401094,-1.1392938
0.29720664,-0.0043003797,-0.16759266,-0.78532726,-5.0768723,-1.1038032
0.28794867,-0.0041664233,-0.16237216,-0.7608644,-4.9187284,-1.0694197
0.2789795,-0.0040366454,-0.15731451,-0.73716456,-4.765517,-1.036109
0.27029008,-0.0039109155,-0.15241462,-0.714204,-4.617085,-1.0038371
0.26187164,-0.0037891062,-0.14766753,-0.69195944,-4.473282,-0.9725717
0.25371572,-0.0036710955,-0.14306846,-0.67040855,-4.3339624,-0.9422812
0.2458141,-0.0035567642,-0.13861279,-0.64952964,-4.198987,-0.91293514
0.2381588,-0.0034459974,-0.13429603,-0.62930155,-4.0682197,-0.88450396
0.23074216,-0.0033386836,-0.13011383,-0.6097041,-3.9415288,-0.85695904
0.22355668,-0.0032347145,-0.12606199,-0.5907175,-3.8187869,-0.83027273
0.21659516,-0.0031339861,-0.122136444,-0.5723226,-3.6998703,-0.8044182
0.2098506,-0.0030363968,-0.11833323,-0.55450106,-3.58466,-0.77936935
0.20331621,-0.0029418485,-0.114648536,-0.53723484,-3.4730399,-0.75510114
0.19698544,-0.0028502464,-0.11107866,-0.5205066,-3.3648977,-0.73158914
0.19085191,-0.0027614986,-0.10762001,-0.5042997,-3.2601252,-0.7088097
0.1849095,-0.0026755158,-0.104269125,-0.48859766,-3.158617,-0.68674
0.1791522,-0.0025922116,-0.10102263,-0.47338483,-3.0602713,-0.6653578
0.17357427,-0.0025115027,-0.09787727,-0.4586459,-2.9649892,-0.6446418
0.1681701,-0.002433308,-0.0948299,-0.44436613,-2.8726754,-0.62457114
0.16293427,-0.002357549,-0.09187745,-0.43053117,-2.783237,-0.6051256
0.15786152,-0.0022841499,-0.08901697,-0.41712713,-2.6965845,-0.5862858
0.15294677,-0.0022130366,-0.086245574,-0.4041406,-2.612631,-0.56803286
0.1481851,-0.0021441386,-0.083560504,-0.39155856,-2.5312924,-0.55034834
0.14357173,-0.0020773862,-0.08095906,-0.37936836,-2.452487,-0.5332146
0.13910204,-0.0020127126,-0.078438625,-0.3675578,-2.3761358,-0.5166145
0.13477154,-0.0019500533,-0.07599669,-0.35611507,-2.3021624,-0.5005314
0.1305759,-0.0018893452,-0.0736308,-0.34502867,-2.2304926,-0.48494908
0.12651092,-0.0018305276,-0.07133859,-0.33428752,-2.1610546,-0.46985203
0.12257251,-0.0017735416,-0.06911775,-0.32388082,-2.093779,-0.4552251
0.11875674,-0.0017183301,-0.066966064,-0.3137982,-2.0285983,-0.44105363
0.11505979,-0.0016648377,-0.064881384,-0.30402952,-1.9654471,-0.42732343
0.11147796,-0.001613011,-0.062861614,-0.29456502,-1.9042623,-0.41402078
0.108007655,-0.0015627979,-0.06090473,-0.2853952,-1.8449826,-0.40113232
0.104645394,-0.0015141483,-0.05900878,-0.27651092,-1.7875488,-0.38864514
0.10138783,-0.0014670135,-0.05717186,-0.26790324,-1.7319031,-0.37654677
0.09823168,-0.0014213462,-0.05539213,-0.25956357,-1.6779898,-0.3648251
0.0951738,-0.0013771007,-0.053667817,-0.25148356,-1.6257553,-0.35346836
0.09221113,-0.0013342329,-0.051997185,-0.24365509,-1.575147,-0.3424652
0.08934069,-0.0012926996,-0.050378565,-0.23607036,-1.5261143,-0.3318046
0.086559616,-0.0012524594,-0.04881034,-0.22872177,-1.4786081,-0.32147592
0.08386513,-0.0012134719,-0.04729094,-0.22160196,-1.432581,-0.3114688
0.08125453,-0.0011756982,-0.04581884,-0.2147038,-1.3879868,-0.30177322
0.0787252,-0.0011391005,-0.04439257,-0.2080204,-1.3447809,-0.29237947
0.07627461,-0.0011036423,-0.0430107,-0.20154507,-1.3029201,-0.2832782
0.07390032,-0.0010692878,-0.041671854,-0.19527133,-1.2623625,-0.27446023
0.07159994,-0.0010360029,-0.040374685,-0.18919289,-1.2230674,-0.2659168
0.06937117,-0.0010037541,-0.0391179,-0.18330367,-1.1849957,-0.25763932
0.067211784,-0.0009725092,-0.037900236,-0.1775978,-1.1481092,-0.24961951
0.065119624,-0.00094223703,-0.03672048,-0.17206955,-1.112371,-0.24184938
0.06309259,-0.0009129072,-0.035577454,-0.1667134,-1.0777452,-0.23432113
0.061128657,-0.00088449044,-0.034470007,-0.16152398,-1.0441974,-0.22702724
0.05922586,-0.0008569583,-0.033397034,-0.15649611,-1.011694,-0.2199604
0.057382297,-0.00083028316,-0.03235746,-0.15162475,-0.98020226,-0.21311355
0.055596124,-0.0008044385,-0.03135025,-0.14690503,-0.94969094,-0.20647983
0.053865556,-0.00077939825,-0.030374395,-0.14233224,-0.92012936,-0.20005263
0.052188855,-0.0007551376,-0.029428916,-0.1379018,-0.8914881,-0.1938255
0.05056435,-0.00073163206,-0.028512869,-0.13360927,-0.8637383,-0.1877922
