ax,ay,az,gx,gy,gz
-1.0045546,5.059137,-4.7764072,77.07161,-5.270957,26.74479
-1.0023845,5.979606,-4.502245,65.38835,-18.318071,18.80028
-0.9259931,7.0658937,-4.208731,46.959377,-28.887836,8.444337
-0.3817874,8.009408,-3.3997078,36.06094,-30.1834,-2.1845582
0.054221008,8.792246,-2.8980114,21.828543,-27.864954,-12.772579
0.23854019,9.479319,-2.7422836,2.1156266,-27.36452,-26.628126
0.30012128,9.893183,-2.5872414,-12.716965,-26.76913,-40.78166
0.31418058,10.1803055,-2.5350597,-26.121475,-28.037834,-54.310364
0.4482836,10.296294,-2.4507341,-38.500454,-29.723331,-66.258095
0.7092471,10.129196,-2.2838972,-49.33913,-30.562815,-77.62663
1.0773816,9.6967535,-2.0320635,-57.04543,-29.550888,-88.56963
1.5085453,9.082762,-1.7844539,-63.835896,-27.478224,-98.38113
1.9269702,8.279032,-1.5803939,-69.50744,-25.216713,-104.95789
2.2370992,7.308336,-1.4577701,-74.29661,-24.450838,-108.84518
2.5204377,6.216569,-1.2342488,-77.87678,-23.473068,-109.80605
2.839047,5.07564,-0.9327196,-80.33512,-21.420944,-108.06226
3.1453166,3.9463902,-0.5843738,-81.36659,-18.006044,-104.38145
3.398933,2.9464443,-0.22643448,-81.75499,-12.307644,-98.57874
3.51696,2.1249611,0.058832746,-81.84194,-5.736354,-91.82855
3.5338097,1.4329902,0.2327837,-81.10345,0.9883119,-84.54367
3.5010417,0.8561468,0.31850246,-79.66429,7.45201,-77.27857
3.4661145,0.35380098,0.3772209,-76.99664,14.236274,-70.195885
3.4042668,-0.06255474,0.3594761,-73.71728,21.395159,-62.73547
3.273095,-0.37997055,0.23467878,-69.4728,28.55699,-55.376114
3.0801466,-0.5975549,0.01654242,-65.40592,35.32471,-48.122093
2.8372974,-0.7333954,-0.27750534,-61.51985,41.018085,-41.078926
2.5406003,-0.76543695,-0.6194637,-57.375652,45.340958,-34.58476
2.1992955,-0.701439,-1.0023474,-52.318447,47.30991,-28.808865
1.8577,-0.5882051,-1.4494218,-46.446106,46.73398,-24.266964
1.5048432,-0.39173585,-1.8872727,-40.570473,43.99138,-21.084177
1.1434631,-0.0733075,-2.3150775,-35.783634,39.43949,-19.012804
0.80352765,0.27724153,-2.6667502,-32.308556,34.09215,-17.650621
0.5201202,0.58118886,-2.987846,-29.579245,27.72762,-16.770823
0.31446457,0.81906503,-3.2725086,-27.184715,20.853281,-15.770867
0.14353295,1.006714,-3.558704,-25.761612,13.18849,-14.471021
0.0064041843,1.1265177,-3.8536956,-25.345245,4.5907173,-13.009412
-0.09970281,1.1789198,-4.1368833,-24.919886,-5.1262136,-12.205709
-0.1469515,1.2224979,-4.3429914,-23.14463,-15.424858,-13.635927
-0.04655052,1.2232926,-4.333864,-20.489494,-24.575928,-15.263438
0.102145925,1.2135553,-4.287723,-18.555185,-33.33873,-16.135918
0.2574991,1.179683,-4.221694,-18.20822,-42.32556,-15.918542
0.46316576,1.143357,-4.064267,-18.080511,-50.970463,-15.448253
0.7259121,1.1486427,-3.8166182,-18.034443,-58.40823,-15.691118
1.0454654,1.1189224,-3.4737325,-18.175508,-63.966663,-16.582186
1.3649375,1.003387,-3.1042721,-17.782887,-67.53208,-17.275023
1.6563871,0.84647775,-2.7459912,-16.78317,-69.50365,-16.916508
1.917487,0.72379154,-2.4102201,-16.041658,-70.429,-15.525773
2.1482947,0.6323263,-2.0941923,-16.085983,-70.11308,-13.241133
2.332667,0.5843444,-1.8178849,-16.594671,-69.14391,-10.925131
2.2535791,0.5645325,-1.7562504,-16.032036,-66.79962,-10.55472
2.177572,0.54549235,-1.6970168,-15.49132,-64.54665,-10.198738
2.1044888,0.52718467,-1.640062,-14.971403,-62.38035,-9.85645
2.0341837,0.5095729,-1.5852721,-14.4712515,-60.2964,-9.527174
1.9665214,0.49262315,-1.5325416,-13.989899,-58.29078,-9.210275
1.9013752,0.4763037,-1.4817722,-13.526446,-56.35974,-8.90516
1.8386272,0.460585,-1.4328716,-13.080054,-54.499794,-8.611277
1.778167,0.44543946,-1.3857541,-12.649939,-52.707657,-8.32811
1.7198914,0.43084112,-1.340339,-12.235364,-50.980278,-8.055174
1.6637033,0.41676575,-1.2965508,-11.835641,-49.314777,-7.792015
1.6095119,0.40319052,-1.2543185,-11.450121,-47.708458,-7.5382075
1.5572313,0.39009398,-1.2135752,-11.078195,-46.158775,-7.2933493
1.5067809,0.3774559,-1.1742585,-10.719289,-44.663345,-7.0570626
1.4580843,0.3652572,-1.1363086,-10.37286,-43.219906,-6.828991
1.4110701,0.3534799,-1.0996696,-10.038399,-41.82633,-6.608798
1.3656698,0.3421069,-1.0642885,-9.715421,-40.4806,-6.3961644
1.3218194,0.3311222,-1.0301151,-9.403467,-39.1808,-6.1907897
1.2794578,0.32051036,-0.99710196,-9.102105,-37.925137,-5.992387
1.2385269,0.310257,-0.9652039,-8.810922,-36.71188,-5.800686
1.198972,0.30034828,-0.934378,-8.529526,-35.53941,-5.6154284
1.1607405,0.2907711,-0.90458363,-8.257545,-34.406166,-5.43637
1.1237828,0.281513,-0.8757819,-7.9946275,-33.310684,-5.263277
1.0880514,0.27256215,-0.84793586,-7.7404337,-32.25155,-5.095928
1.0535011,0.26390713,-0.82101035,-7.4946423,-31.227427,-4.934111
1.0200889,0.2555372,-0.7949717,-7.2569466,-30.237036,-4.7776237
0.98777354,0.24744205,-0.7697878,-7.027054,-29.279158,-4.626273
0.95651555,0.23961177,-0.7454279,-6.804683,-28.352621,-4.4798756
0.92627734,0.23203696,-0.7218628,-6.5895677,-27.456312,-4.3382535
0.89702284,0.22470856,-0.69906425,-6.38145,-26.589163,-4.201239
0.86871755,0.21761794,-0.67700547,-6.180085,-25.750149,-4.0686703
0.8413283,0.21075681,-0.6556606,-5.9852376,-24.93829,-3.9403915
0.81482345,0.20411722,-0.635005,-5.796681,-24.152645,-3.8162553
0.78917253,0.19769154,-0.6150148,-5.6141996,-23.392311,-3.696118
0.7643463,0.19147244,-0.5956673,-5.437585,-22.656422,-3.5798435
0.7403167,0.18545291,-0.57694066,-5.2666373,-21.944147,-3.4673
0.7170567,0.17962617,-0.55881375,-5.101165,-21.254684,-3.358361
0.69454044,0.17398573,-0.5412665,-4.9409833,-20.587267,-3.2529051
0.6727429,0.16852535,-0.5242793,-4.7859154,-19.941154,-3.1508157
0.6516401,0.163239,-0.5078336,-4.6357894,-19.315634,-3.05198
0.63120896,0.1581209,-0.49191126,-4.4904413,-18.710024,-2.95629
0.61142725,0.15316547,-0.47649503,-4.3497133,-18.123661,-2.8636415
0.5922734,0.14836736,-0.46156818,-4.213453,-17.555912,-2.773934
0.5737269,0.14372136,-0.44711456,-4.081512,-17.006165,-2.6870706
0.5557678,0.13922252,-0.4331187,-3.9537501,-16.473827,-2.6029584
0.53837675,0.13486598,-0.41956565,-3.8300302,-15.958332,-2.5215073
0.52153546,0.13064715,-0.40644094,-3.7102206,-15.459128,-2.4426303
0.50522596,0.12656154,-0.39373067,-3.594194,-14.975689,-2.366244
0.48943093,0.12260482,-0.3814214,-3.481828,-14.507501,-2.2922676
0.47413388,0.11877283,-0.36950013,-3.373004,-14.054071,-2.2206233
0.4593186,0.11506154,-0.35795435,-3.267608,-13.614924,-2.1512353
0.4449697,0.11146706,-0.34677202,-3.1655293,-13.1896,-2.0840318
0.43107212,0.10798565,-0.3359414,-3.0666614,-12.777654,-2.0189419
0.4176114,0.10461368,-0.32545125,-2.9709013,-12.378656,-1.9558982
0.40457356,0.10134763,-0.31529066,-2.8781495,-11.992194,-1.8948349
0.39194506,0.09818413,-0.30544907,-2.78831,-11.617866,-1.8356888
0.37971285,0.09511991,-0.29591632,-2.70129,-11.255284,-1.778399
0.36786434,0.0921518,-0.28668258,-2.6169991,-10.904076,-1.722906
0.3563873,0.08927674,-0.27773833,-2.5353508,-10.563878,-1.6691527
0.3452699,0.08649178,-0.26907435,-2.4562614,-10.234341,-1.617084
0.33450073,0.08379405,-0.26068178,-2.3796492,-9.915126,-1.5666462
0.32406875,0.081180796,-0.25255197,-2.305436,-9.6059065,-1.5177878
0.31396335,0.078649335,-0.24467666,-2.2335455,-9.306366,-1.4704587
0.30417413,0.07619709,-0.23704776,-2.1639047,-9.016198,-1.4246105
0.29469112,0.073821545,-0.2296575,-2.0964422,-8.735106,-1.3801965
0.28550464,0.07152029,-0.22249833,-2.0310893,-8.462805,-1.3371713
0.27660534,0.06929097,-0.21556297,-1.9677795,-8.199016,-1.2954911
0.26798418,0.06713133,-0.20884436,-1.9064484,-7.9434714,-1.2551136
0.2596324,0.06503917,-0.2023357,-1.8470335,-7.6959114,-1.2159978
0.25154153,0.06301237,-0.19603033,-1.7894747,-7.456085,-1.1781038
0.24370334,0.061048865,-0.18992192,-1.7337135,-7.2237487,-1.1413934
0.2361099,0.05914667,-0.18400422,-1.6796936,-6.9986672,-1.1058292
0.2287535,0.05730386,-0.17827128,-1.62736,-6.780613,-1.0713754
0.22162674,0.055518575,-0.17271727,-1.57666,-6.5693645,-1.0379969
0.2147224,0.053789,-0.16733661,-1.5275422,-6.3647084,-1.0056602
0.20803349,0.052113395,-0.16212383,-1.4799571,-6.166439,-0.9743324
0.20155327,0.05049007,-0.15707369,-1.4338566,-5.9743547,-0.943982
0.19527519,0.04891738,-0.15218109,-1.3891941,-5.788263,-0.91457844
0.18919292,0.047393743,-0.14744107,-1.3459246,-5.6079745,-0.8860919
0.18330033,0.04591762,-0.1428489,-1.3040047,-5.433309,-0.85849375
0.17759149,0.04448753,-0.1383999,-1.2633917,-5.2640905,-0.8317562
0.17206065,0.043102026,-0.13408962,-1.2240452,-5.1001472,-0.8058523
0.16670224,0.04175972,-0.12991372,-1.1859252,-4.9413157,-0.78075594
0.16151085,0.040459253,-0.12586801,-1.1489936,-4.787435,-0.75644195
0.1564813,0.039199322,-0.121948384,-1.1132131,-4.638351,-0.73288584
0.1516085,0.03797866,-0.11815093,-1.0785478,-4.493913,-0.7100639
0.14688754,0.03679604,-0.11447182,-1.0449629,-4.353977,-0.6879532
0.14231372,0.035650276,-0.11090736,-1.0124245,-4.218402,-0.66653144
0.13788241,0.034540214,-0.10745398,-0.98090005,-4.087051,-0.6457773
0.13358918,0.033464737,-0.10410819,-0.95035785,-3.9597929,-0.6256698
0.12942971,0.03242277,-0.100866646,-0.92076725,-3.8364995,-0.6061887
0.12539983,0.031413265,-0.09772609,-0.8920985,-3.7170475,-0.5873146
0.12149548,0.030435206,-0.09468338,-0.86432284,-3.6013165,-0.5690285
0.117712766,0.029487617,-0.091735445,-0.8374125,-3.4891908,-0.55131197
0.11404788,0.028569546,-0.08887934,-0.81134033,-3.3805578,-0.5341474
0.11049714,0.02768007,-0.086112194,-0.7860803,-3.2753086,-0.5175174
0.107057005,0.026818298,-0.083431244,-0.76160705,-3.1733375,-0.50140536
0.10372401,0.025983367,-0.080833785,-0.7378961,-3.0745423,-0.48579517
0.100494824,0.02517444,-0.07831723,-0.7149235,-2.9788241,-0.47067115
0.09736621,0.024390707,-0.075879045,-0.6926664,-2.886087,-0.45601815
0.09433502,0.023631379,-0.07351679,-0.67110246,-2.796238,-0.4418215
0.09139823,0.0228957,-0.07122811,-0.65021,-2.7091868,-0.42806694
0.08855289,0.022182928,-0.06901069,-0.6299682,-2.6248467,-0.41474068
0.085796155,0.021492353,-0.06686232,-0.6103567,-2.5431328,-0.40182942
0.08312526,0.020823281,-0.06478085,-0.5913559,-2.4639633,-0.3893202
0.08053754,0.020175043,-0.0627642,-0.5729467,-2.387259,-0.37720048
0.07803039,0.019546991,-0.060810335,-0.55511075,-2.3129432,-0.36545816
0.0756013,0.018938493,-0.05891731,-0.5378302,-2.2409413,-0.35408145
0.07324785,0.018348942,-0.057083227,-0.52108765,-2.1711812,-0.34305897
0.070967674,0.017777747,-0.05530625,-0.50486636,-2.103593,-0.33237967
0.068758495,0.017224336,-0.053584594,-0.4891502,-2.0381095,-0.3220329
0.06661809,0.016688155,-0.051916547,-0.4739233,-1.9746647,-0.31200823
0.06454433,0.016168667,-0.05030043,-0.4591705,-1.9131951,-0.3022957
0.06253513,0.015665352,-0.04873463,-0.444877,-1.8536394,-0.29288554
0.060588486,0.015177709,-0.047217578,-0.4310285,-1.7959378,-0.2837684
0.058702447,0.014705247,-0.045747757,-0.41761115,-1.7400326,-0.27493504
0.05687512,0.014247494,-0.044323694,-0.4046115,-1.6858678,-0.2663767
0.055104688,0.013803991,-0.042943966,-0.39201656,-1.6333894,-0.2580848
0.05338937,0.013374295,-0.04160719,-0.37981373,-1.5825446,-0.25005105
0.05172745,0.012957977,-0.040312033,-0.3679908,-1.5332828,-0.24226739
0.05011727,0.0125546185,-0.03905719,-0.3565359,-1.4855545,-0.23472606
0.048557214,0.012163818,-0.037841417,-0.34543765,-1.439312,-0.22741948
0.047045726,0.011785182,-0.03666349,-0.33468485,-1.3945091,-0.22034037
0.045581292,0.011418334,-0.03552223,-0.32426682,-1.3511009,-0.21348163
0.044162445,0.011062906,-0.0344165,-0.3141731,-1.3090441,-0.20683642
0.042787764,0.010718542,-0.033345193,-0.3043936,-1.2682965,-0.20039806
0.04145588,0.010384899,-0.032307234,-0.2949185,-1.2288173,-0.19416012
0.040165458,0.010061641,-0.031301584,-0.28573838,-1.1905671,-0.18811637
0.038915202,0.009748447,-0.030327242,-0.27684402,-1.1535076,-0.18226077
0.037703868,0.009445001,-0.02938323,-0.26822656,-1.1176018,-0.17658743
0.03653024,0.009151002,-0.028468603,-0.25987735,-1.0828136,-0.1710907
0.03539315,0.008866155,-0.027582448,-0.25178802,-1.0491084,-0.16576509
