ax,ay,az,gx,gy,gz
-0.41364014,-1.2181929,-2.2972937,2.4972954,-37.50943,21.584742
-0.18701331,-1.5840276,-2.25856,2.3542147,-39.15113,21.01358
0.14552872,-1.9472572,-2.402511,11.278049,-38.116634,20.080736
0.49302614,-2.654933,-2.6366668,22.846422,-36.943607,20.1256
0.6846069,-3.6406963,-2.9727478,35.896873,-37.048653,22.404783
0.69956607,-4.7020335,-3.4017394,49.390114,-39.52328,25.535225
0.7458716,-5.658444,-3.724911,61.697468,-44.3881,32.34428
0.94255453,-6.097087,-3.8611438,68.992805,-49.716812,44.28701
1.119562,-5.9092145,-3.8778791,72.942665,-54.941685,55.927517
1.2384895,-5.392098,-3.8123887,75.47265,-59.883766,65.11527
1.3362896,-4.69411,-3.667496,77.5475,-63.9934,70.923035
1.4313778,-3.8262794,-3.4438856,78.69097,-66.846245,74.54077
1.554884,-2.757318,-3.1620297,76.31163,-67.6232,75.880135
1.568556,-1.5027492,-2.9020498,71.36623,-67.93046,73.798874
1.4776028,-0.26730078,-2.6752565,64.40946,-68.77198,67.9172
1.3416243,0.7720578,-2.4616988,56.601284,-69.859085,59.61305
1.2326057,1.6548847,-2.2747242,47.46084,-71.028854,49.815437
1.180762,2.361504,-2.1097355,36.028625,-71.50744,38.880936
1.1199638,2.818292,-2.0163546,24.435253,-72.06553,27.082863
1.0345012,3.010236,-1.957536,14.457639,-73.064125,14.519632
0.97918105,2.9685788,-1.8958195,6.3866796,-74.523346,1.9586935
1.0249425,2.7308204,-1.7932336,-0.1306753,-76.18307,-9.2098055
1.1532512,2.3753512,-1.6177937,-5.4777355,-77.23729,-17.360193
1.3302622,1.8831588,-1.3138618,-10.244168,-77.54531,-22.817736
1.5531397,1.3098637,-0.92286336,-13.914641,-76.38995,-25.672625
1.8124971,0.75892925,-0.46819824,-16.689253,-73.165955,-25.65681
2.0420232,0.27507085,-0.013190138,-18.482672,-68.024666,-23.003777
2.2174575,-0.10906843,0.39858758,-18.005089,-60.72099,-18.83593
2.336079,-0.36710435,0.72804415,-16.15209,-52.328873,-14.723504
2.399635,-0.56811863,0.9606719,-13.079914,-43.46156,-10.583376
2.3977451,-0.6846967,1.0859656,-9.598414,-34.849262,-6.2851543
2.354096,-0.69557303,1.1338581,-6.868444,-26.745775,-2.0682936
2.2830555,-0.64744526,1.1296616,-5.792351,-19.324472,1.5734388
2.1974277,-0.6019552,1.0721446,-5.359678,-12.483045,4.1545987
2.1156244,-0.58952963,0.9864687,-4.5447345,-5.887588,5.576603
2.024846,-0.5942597,0.8548206,-3.1056626,0.19749315,6.4829736
1.9285184,-0.57556564,0.6860262,-1.5892636,5.5503592,7.454366
1.8348087,-0.5198983,0.498196,-1.0394441,9.893476,8.610515
1.7562156,-0.47097558,0.3004873,-1.0754573,13.533566,9.835062
1.6876103,-0.43346003,0.089850806,-1.312862,16.725626,10.961797
1.6185441,-0.41429058,-0.14435816,-1.4863284,19.397219,11.853224
1.5440204,-0.40750054,-0.39906558,-1.2797711,21.462234,12.500832
1.4557599,-0.40133086,-0.6705632,-1.3558064,22.205286,13.054683
1.371331,-0.37028122,-0.9557753,-1.8698444,21.809576,13.382145
1.2928473,-0.3293553,-1.2432109,-2.6183097,20.328423,13.266252
1.2148391,-0.3007785,-1.532566,-3.293003,17.50105,12.760701
1.147642,-0.28974107,-1.8090192,-3.6027837,13.418847,11.892601
1.0944927,-0.2985302,-2.0628912,-2.916114,8.058031,10.883915
1.045755,-0.3004214,-2.295998,-2.0197008,1.7963923,9.830265
1.0046371,-0.3019328,-2.504172,-1.0820813,-5.5114355,8.410572
1.0315975,-0.31289643,-2.654219,0.41804376,-13.393017,6.043639
1.126423,-0.32615682,-2.7242887,2.319317,-21.290941,2.7496967
1.2435344,-0.3560176,-2.7114506,3.9953775,-27.85485,-0.13560319
1.3347563,-0.4363464,-2.645143,4.743576,-32.886936,-1.0203042
1.3734574,-0.5049423,-2.5740132,4.643048,-37.151592,0.39650923
1.365258,-0.4743849,-2.5118053,3.929853,-41.303577,2.1781056
1.3260196,-0.3717763,-2.4295375,2.4398491,-45.753754,2.4958534
1.2946227,-0.3200681,-2.3052125,1.9378395,-50.223164,0.9358374
1.3456647,-0.3055606,-2.1167352,1.5514951,-53.84454,0.09372062
1.4137528,-0.2398104,-1.9056394,0.21068457,-56.367058,1.1125419
1.4452362,-0.12911695,-1.6926647,-2.2842693,-58.259377,2.9598243
1.4460061,-0.07005244,-1.4730203,-4.484248,-59.69788,3.8763564
1.4465876,-0.070276976,-1.2430757,-5.3098083,-60.54194,3.6386447
1.4778775,-0.06307766,-1.0041138,-6.1166854,-60.79006,3.875552
1.5316447,-0.033346117,-0.7585882,-7.7226105,-60.220604,5.04301
1.5780216,-0.0155144585,-0.5211226,-9.2992115,-58.97093,6.247069
1.6124084,-0.023926597,-0.30351266,-9.949876,-57.161213,6.762783
1.6647643,-0.03141479,-0.09066163,-9.82486,-54.20206,7.061904
1.7527906,-0.01160051,0.12863995,-9.904835,-49.86675,7.9864554
1.8766459,0.030413665,0.35189152,-10.56407,-43.51036,9.642997
2.0008004,0.08551514,0.54468477,-11.801806,-35.323296,11.403672
2.0885627,0.12327195,0.68666226,-12.851005,-25.872833,12.409251
2.1059778,0.13593325,0.7420523,-14.448876,-17.225119,12.6974125
2.0780373,0.14180271,0.7605407,-16.152853,-9.17971,12.662512
2.035713,0.1502039,0.7619175,-17.932394,-1.6323543,12.766023
1.9535719,0.14408998,0.722807,-18.589457,4.8413777,13.631003
1.824352,0.11244264,0.65955573,-17.428743,9.886403,15.035027
1.6790912,0.086372785,0.61197436,-15.656162,14.264188,15.780381
1.5099865,0.08049184,0.5635071,-13.954569,17.369389,16.018135
1.3691498,0.08369222,0.5404754,-12.800676,19.63705,16.019201
1.3260168,0.08105562,0.5234485,-12.397409,19.018414,15.51454
1.2842733,0.07850396,0.50697017,-12.007134,18.419708,15.026136
1.2438719,0.07603434,0.4910216,-11.629407,17.84025,14.553436
1.2047669,0.07364396,0.4755848,-11.263801,17.279387,14.095903
1.1669143,0.071330145,0.46064243,-10.909904,16.736486,13.653025
1.1302722,0.06909031,0.4461778,-10.567322,16.210943,13.224306
1.0947995,0.06692197,0.43217492,-10.235676,15.702178,12.809274
1.0604576,0.06482275,0.41861835,-9.9146,15.209628,12.407469
1.0272086,0.062790334,0.40549323,-9.6037445,14.732754,12.018453
0.99501646,0.060822517,0.39278528,-9.302768,14.271037,11.6418
0.96384615,0.058917165,0.38048074,-9.011346,13.823977,11.277104
0.93366414,0.057072226,0.36856633,-8.729163,13.391091,10.923972
0.904438,0.05528572,0.35702923,-8.455918,12.971915,10.582024
0.87613654,0.053555727,0.34585714,-8.191318,12.566001,10.250893
0.84872955,0.051880416,0.33503816,-7.935079,12.172915,9.930228
0.82218796,0.050258007,0.32456082,-7.686932,11.792243,9.619689
0.79648376,0.04868678,0.314414,-7.4466143,11.423579,9.318946
0.77158976,0.04716508,0.30458704,-7.2138715,11.066537,9.027684
0.7474799,0.045691315,0.29506963,-6.98846,10.720741,8.745597
0.72412896,0.04426394,0.28585178,-6.7701435,10.38583,8.472387
0.7015125,0.04288146,0.27692387,-6.558694,10.061453,8.207772
0.679607,0.041542437,0.2682766,-6.353891,9.7472725,7.951475
0.6583896,0.040245477,0.259901,-6.1555223,9.442963,7.70323
0.6378384,0.038989242,0.25178835,-5.963382,9.148207,7.462779
0.61793214,0.037772432,0.24393031,-5.777271,8.8627,7.229873
0.5986503,0.036593784,0.23631872,-5.5969977,8.58615,7.004273
0.57997286,0.035452086,0.22894578,-5.4223757,8.318269,6.7857456
0.56188077,0.03434617,0.22180387,-5.2532263,8.058784,6.574066
0.5443554,0.033274893,0.2148857,-5.0893755,7.807425,6.3690176
0.5273788,0.03223716,0.20818412,-4.930655,7.563938,6.170389
0.5109336,0.031231912,0.20169233,-4.776902,7.328072,5.977978
0.4950029,0.030258115,0.19540367,-4.6279607,7.099586,5.791588
0.47957057,0.02931478,0.1893117,-4.4836783,6.8782477,5.6110277
0.4646208,0.028400943,0.18341024,-4.3439074,6.6638303,5.436114
0.4501384,0.027515676,0.17769328,-4.208506,6.456116,5.266668
0.4361086,0.026658075,0.172155,-4.077337,6.254894,5.102518
0.42251718,0.02582727,0.16678974,-3.950266,6.059959,4.943497
0.40935037,0.02502242,0.1615921,-3.8271642,5.8711133,4.7894435
0.39659473,0.024242705,0.15655679,-3.7079074,5.6881657,4.6402016
0.38423744,0.023487339,0.15167871,-3.5923746,5.510931,4.49562
0.3722659,0.022755552,0.14695291,-3.4804482,5.339229,4.3555512
0.36066803,0.022046609,0.14237463,-3.3720157,5.1728864,4.2198553
0.34943214,0.02135979,0.13793923,-3.2669673,5.0117354,4.088394
0.3385468,0.020694401,0.13364223,-3.1651964,4.8556128,3.9610345
0.3280011,0.020049773,0.12947929,-3.066601,4.704361,3.8376486
0.31778437,0.019425252,0.1254462,-2.971081,4.557827,3.7181118
0.3078863,0.018820211,0.12153891,-2.8785403,4.4158635,3.602303
0.2982969,0.018234039,0.11775347,-2.7888854,4.2783275,3.490106
0.28900653,0.017666144,0.11408606,-2.7020264,4.14508,3.3814077
0.2800058,0.017115956,0.110533014,-2.6178753,4.0159874,3.2760985
0.2712857,0.016582921,0.10709073,-2.536348,3.8909192,3.1740723
0.26283744,0.016066503,0.10375575,-2.457362,3.7697496,3.0752265
0.25465247,0.0155661795,0.10052472,-2.3808382,3.6523569,2.9794617
0.24672264,0.015081451,0.0973944,-2.306699,3.538623,2.8866818
0.23903994,0.014611829,0.094361626,-2.2348707,3.4284337,2.7967932
0.23159663,0.014156842,0.09142337,-2.1652806,3.3216782,2.7097058
0.22438528,0.013716032,0.08857667,-2.0978591,3.218249,2.625332
0.21739861,0.013288957,0.08581866,-2.0325382,3.1180427,2.5435874
0.21062963,0.012875188,0.08314659,-1.9692525,3.0209584,2.4643896
0.20407152,0.012474311,0.080557756,-1.9079384,2.9268987,2.387659
0.19771773,0.012085921,0.07804958,-1.8485345,2.8357694,2.313319
0.19156186,0.01170963,0.07561953,-1.7909809,2.7474787,2.2412946
0.18559773,0.011345061,0.07326518,-1.7352203,2.6619382,2.1715138
0.17981939,0.010991847,0.07098417,-1.6811965,2.5790622,2.1039064
0.17422102,0.0106496345,0.0687742,-1.6288553,2.4987676,2.038405
0.16879703,0.010318081,0.06663306,-1.5781444,2.4209738,1.9749435
0.16354196,0.009996853,0.0645586,-1.5290128,2.3456028,1.9134587
0.15845054,0.00968563,0.06254876,-1.4814113,2.2725792,1.8538886
0.1535177,0.009384098,0.060601503,-1.4352924,2.2018297,1.7961737
0.14873846,0.0090919575,0.058714885,-1.3906095,2.1332834,1.7402561
0.14410804,0.008808914,0.056887023,-1.3473182,2.0668716,1.6860799
0.13962182,0.008534684,0.055116076,-1.305375,2.0025282,1.6335906
0.1352753,0.008268994,0.053400274,-1.2647377,1.940188,1.5827358
0.13106413,0.008011577,0.0517379,-1.2253659,1.8797891,1.5334646
0.12698407,0.0077621746,0.05012729,-1.18722,1.821271,1.4857275
0.123031065,0.007520538,0.04856683,-1.1502619,1.7645748,1.4394768
0.11920113,0.007286425,0.047054954,-1.1144544,1.709644,1.3946662
0.11549045,0.0070596016,0.04559015,-1.0797619,1.6564234,1.3512508
0.11189529,0.00683984,0.044170953,-1.0461495,1.60486,1.3091872
0.10841208,0.0066269212,0.042795945,-1.0135837,1.5549018,1.2684331
0.10503731,0.006420631,0.041463748,-0.9820317,1.506499,1.2289479
0.10176761,0.0062207635,0.040173024,-0.9514621,1.4596033,1.1906921
0.0985997,0.0060271183,0.038922485,-0.9218442,1.4141676,1.1536272
0.09553042,0.005839502,0.03771088,-0.89314836,1.3701464,1.1177163
0.09255669,0.0056577264,0.03653699,-0.86534595,1.3274957,1.0829234
0.089675546,0.00548161,0.035399653,-0.83840907,1.2861727,1.0492136
0.086884096,0.005310977,0.03429772,-0.81231076,1.2461363,1.0165533
0.08417954,0.0051456555,0.03323009,-0.7870249,1.2073463,0.9849098
0.08155919,0.0049854806,0.0321957,-0.7625263,1.1697638,0.95425135
0.07902041,0.004830292,0.031193508,-0.73879033,1.1333513,0.9245474
0.07656066,0.0046799346,0.030222517,-0.71579325,1.0980724,0.89576805
0.07417749,0.004534258,0.029281752,-0.69351214,1.0638916,0.86788464
0.0718685,0.0043931166,0.028370276,-0.6719246,1.0307751,0.84086925
0.0696314,0.0042563686,0.027487172,-0.6510091,0.9986893,0.8146949
0.06746393,0.0041238777,0.026631558,-0.63074464,0.9676024,0.7893353
0.065363936,0.0039955107,0.02580258,-0.61111104,0.9374832,0.76476514
0.06332932,0.0038711403,0.024999408,-0.59208864,0.9083016,0.7409598
0.061358027,0.0037506411,0.02422124,-0.57365835,0.88002837,0.71789557
0.059448108,0.003633893,0.023467293,-0.5558018,0.8526353,0.6955493
0.057597637,0.0035207793,0.022736816,-0.53850114,0.826095,0.67389864
