ax,ay,az,gx,gy,gz
0.048182257,-1.191829,-0.12636478,12.540113,9.543723,-6.380967
-0.20062035,-0.88840103,-0.2167197,27.445377,7.119591,-15.438621
-0.4495808,-0.51145995,-0.27336434,31.929504,1.3473337,-19.20718
-0.52459455,-0.14487034,-0.27915052,18.987871,-4.7501717,-15.879711
-0.41359022,-0.07761394,-0.20236807,3.547965,-8.894983,-8.688094
-0.31668097,-0.026044982,-0.19270873,-5.3116965,-11.150117,-5.2503567
-0.2407956,-0.11310218,-0.19803122,-5.8341217,-12.041432,-6.504593
-0.17987342,-0.20469962,-0.1664852,-2.7309182,-12.223342,-8.663203
-0.17415397,-0.20484582,-0.11707597,-0.19382654,-11.892098,-9.63802
-0.24218781,-0.16890122,-0.12175428,-0.3171076,-12.328299,-9.221978
-0.28078628,-0.17282799,-0.11394207,-0.9194693,-13.028582,-7.775374
-0.30277374,-0.12123706,-0.08887649,-1.9602453,-13.478423,-6.7952633
-0.32604015,-0.07087355,-0.060266986,-3.530285,-13.78262,-6.6517444
-0.32205826,-0.08206892,-0.039601866,-4.2687564,-13.664334,-6.9130177
-0.2983006,-0.0955668,-0.019552626,-4.4761224,-13.237666,-6.9550095
-0.24476153,-0.119277924,-0.011554709,-4.8667355,-12.764514,-6.6040583
-0.18418342,-0.19021733,-0.025443813,-5.147147,-12.115885,-5.869814
-0.14747067,-0.28059325,-0.07934704,-5.2940054,-11.503066,-4.887981
-0.14697868,-0.38713977,-0.18091276,-5.2524185,-11.341884,-3.8808937
-0.14251696,-0.5302238,-0.30454004,-4.322661,-11.601241,-2.49991
-0.14001738,-0.72107804,-0.48360938,-3.113053,-12.411066,-0.7388618
-0.14691843,-0.9803905,-0.72571725,-1.3868337,-13.765612,1.51034
-0.18208855,-1.2854613,-1.0416731,1.6478852,-16.054438,3.9978168
-0.2282409,-1.5787066,-1.3960279,5.5865607,-19.511097,6.504128
-0.24737224,-1.8186209,-1.7387009,9.720611,-23.991823,9.435
-0.2156499,-1.9727339,-2.0168617,13.519711,-29.416737,13.641635
-0.15618482,-2.0067413,-2.1904025,17.170704,-34.891327,18.51836
-0.056468498,-1.8769473,-2.2399309,20.212696,-39.89833,23.292368
0.05969501,-1.5774832,-2.1690075,22.498972,-44.367443,26.994167
0.20602989,-1.1411134,-1.9801434,23.568977,-47.88384,28.907406
0.3869704,-0.59882176,-1.6866714,23.131264,-50.22826,29.646479
0.5485887,-0.06742948,-1.3962867,21.315908,-51.355907,29.25975
0.6788724,0.45825917,-1.1416237,18.36947,-51.52832,27.675941
0.78582066,0.9866209,-0.9363817,14.458933,-51.162163,24.873
0.88295436,1.4996871,-0.7875894,9.355916,-50.270344,20.050566
0.9756259,1.9036304,-0.71232766,3.7786481,-48.82853,14.072942
1.0304824,2.20176,-0.6870121,-1.9970013,-47.110996,7.5501385
1.0466837,2.4265213,-0.7006896,-7.4697223,-45.480404,0.78544205
1.036644,2.5985577,-0.74005663,-12.710558,-44.257595,-6.580598
1.0214822,2.6715226,-0.77775383,-17.501675,-43.545383,-14.488247
1.0610738,2.5720105,-0.7648373,-21.627972,-43.372017,-22.281431
1.1618687,2.333145,-0.70117205,-25.25285,-43.386005,-29.285166
1.3111184,1.9495194,-0.5870897,-28.294151,-43.030407,-35.176052
1.4626713,1.4191749,-0.4497435,-30.161505,-42.21882,-39.887684
1.6096166,0.78379685,-0.28391808,-30.400402,-41.106426,-41.975853
1.7778195,0.09756281,-0.035945605,-29.64093,-38.937775,-41.181057
1.8986316,-0.5400354,0.21022035,-27.364363,-35.64934,-37.977386
1.9562646,-1.0335802,0.4276954,-23.897045,-31.853897,-33.153793
1.975553,-1.3123842,0.6294422,-20.474854,-27.906555,-27.430752
1.9742798,-1.4026929,0.8147833,-18.69633,-24.003279,-21.935686
1.9904932,-1.4325181,0.97759223,-17.369959,-19.58712,-17.115797
2.022763,-1.4772722,1.0909104,-15.164616,-14.353492,-13.245392
2.0541403,-1.5083318,1.1467035,-12.043998,-8.460418,-10.042066
2.071432,-1.510516,1.142622,-8.79706,-2.3442261,-6.7175574
2.0603533,-1.4677643,1.0730665,-6.0085382,3.4191642,-3.04355
2.0251951,-1.3504851,0.9386496,-4.7004113,8.3681135,0.16486344
1.9866166,-1.2536936,0.76852286,-4.0661774,12.622815,2.9030612
1.9550688,-1.1743277,0.57442486,-3.550851,16.467766,5.4203095
1.9270035,-1.0846719,0.3565053,-3.0699608,19.919733,7.6021333
1.8922808,-0.98761564,0.11281168,-2.7631915,22.700352,9.453925
1.8351678,-0.86848307,-0.16893354,-2.5743008,24.827799,10.933139
1.7502809,-0.7417607,-0.48779228,-2.5442908,25.9059,11.854359
1.6584557,-0.6420021,-0.83082426,-2.594213,25.857683,12.258292
1.5716405,-0.5720973,-1.1831267,-2.5085986,24.716938,12.362914
1.4981339,-0.5145987,-1.5274839,-2.2059803,22.45084,12.4462805
1.4272969,-0.43693975,-1.8694624,-1.9764009,19.374313,12.446432
1.329573,-0.34993133,-2.226815,-1.8935119,15.068204,11.900832
1.2060703,-0.27827418,-2.5976899,-1.3897048,9.2342,10.582882
1.0795331,-0.21435918,-2.969544,-0.66113204,1.6430846,8.537312
0.9872673,-0.16906835,-3.3176677,0.078105755,-7.679144,6.0269427
0.9925442,-0.12086076,-3.569913,0.41375726,-18.204668,3.382556
1.0830172,-0.08325098,-3.697416,-0.26503953,-28.452723,1.2140456
1.2294353,-0.09397593,-3.7119145,-1.3885024,-37.536373,-0.16761342
1.3558708,-0.14789288,-3.66279,-1.7742091,-45.577515,-1.0198501
1.4552519,-0.19142322,-3.5543277,-1.2906858,-53.074337,-1.5908056
1.6019813,-0.18068223,-3.3063164,-1.2672153,-59.866142,-1.5327435
1.7979186,-0.18404323,-2.9515784,-2.3752086,-65.40408,-1.115746
2.025097,-0.24622856,-2.5370662,-3.1907666,-69.28527,-0.21305223
2.2581885,-0.27695566,-2.105206,-3.993337,-71.634605,1.0378422
2.4793854,-0.2727638,-1.6685952,-5.1606,-72.15291,1.9441923
2.6439795,-0.2706605,-1.2539264,-6.2305684,-71.41233,2.5347838
2.7365324,-0.26424918,-0.8971933,-7.1008253,-69.708,3.0064292
2.7637901,-0.25263312,-0.60915256,-7.7472415,-67.495895,3.5032408
2.7509072,-0.22469617,-0.37729156,-8.240529,-65.05926,4.1702247
2.7211564,-0.18379822,-0.19027677,-8.698821,-62.357407,4.913653
2.6707215,-0.13777074,-0.059294626,-8.914394,-59.264713,5.13884
2.6074913,-0.10507571,0.03386262,-8.684431,-55.97959,4.8434896
2.5297453,-0.08258229,0.09133359,-8.209063,-52.737915,4.4809513
2.4367905,-0.063030854,0.11621774,-7.875147,-49.737175,4.3576713
2.334317,-0.04980463,0.11602288,-7.741197,-47.074757,4.4544578
2.2307732,-0.0525988,0.094688885,-7.487228,-44.60775,4.378007
2.1326106,-0.06322685,0.06761192,-7.0693026,-42.182636,4.0975575
2.0348334,-0.08325341,0.031187838,-6.639759,-39.939407,3.902431
1.9358314,-0.10399195,-0.017257739,-6.1741447,-37.986786,3.9923189
1.8356103,-0.113752075,-0.06895825,-5.8779025,-36.512115,4.3180137
1.7457464,-0.10825593,-0.11452307,-5.661628,-35.297783,4.608625
1.6663457,-0.097086966,-0.15192877,-5.622029,-34.34692,4.609575
1.6034814,-0.099428356,-0.17590345,-5.4463134,-33.326824,4.38921
1.5500966,-0.09900876,-0.1946234,-5.3314395,-32.291183,4.2768397
1.4985483,-0.09216702,-0.20722471,-5.5309844,-31.339619,4.379654
1.4656432,-0.08600897,-0.19865994,-5.9815784,-30.242615,4.7404017
1.4548501,-0.07764009,-0.17094174,-6.6962957,-28.793203,5.0974293
1.4493288,-0.07431077,-0.14693534,-7.0017123,-27.019648,5.3384347
1.434398,-0.07230336,-0.118001685,-7.1718082,-25.313204,5.438525
1.4360709,-0.06692595,-0.06413499,-7.3327584,-23.311735,5.927865
1.4502352,-0.03931281,0.009385616,-7.917184,-21.001657,6.565646
1.4049891,-0.03808628,0.009092793,-7.6701746,-20.346422,6.360803
1.3611609,-0.036898192,0.008809146,-7.4309053,-19.711721,6.1623797
1.3187056,-0.035747316,0.008534383,-7.1991315,-19.096903,5.970172
1.2775795,-0.034632478,0.008268225,-6.9746146,-18.501333,5.7839823
1.2377409,-0.033552535,0.008010397,-6.7571254,-17.924408,5.6036205
1.1991487,-0.032506384,0.0077606365,-6.5464416,-17.365534,5.428902
1.1617637,-0.031492956,0.0075186887,-6.342348,-16.82414,5.2596493
1.1255478,-0.030511217,0.007284307,-6.1446366,-16.299677,5.0956893
1.090464,-0.029560171,0.0070572523,-5.953106,-15.791611,4.9368544
1.0564767,-0.028638847,0.006837294,-5.767561,-15.299422,4.7829843
1.0235515,-0.027746312,0.0066242083,-5.587814,-14.822613,4.6339216
0.9916547,-0.02688166,0.0064177793,-5.413682,-14.360698,4.4895153
0.9607541,-0.02604401,0.0062177973,-5.244988,-13.91321,4.3496194
0.9308184,-0.025232516,0.00602406,-5.081562,-13.479694,4.2140913
0.90181726,-0.024446357,0.0058363704,-4.923238,-13.059713,4.0827947
0.87372136,-0.023684736,0.00565454,-4.7698555,-12.652841,3.9555962
0.8465023,-0.022946885,0.0054783835,-4.62126,-12.258666,3.8323674
0.82013255,-0.022232056,0.0053077242,-4.477301,-11.876791,3.7129836
0.79458547,-0.02153953,0.005142389,-4.3378334,-11.50683,3.5973244
0.76983535,-0.020868607,0.004982211,-4.202717,-11.14841,3.4852734
0.7458571,-0.020218609,0.0048270295,-4.071814,-10.801168,3.3767169
0.72262675,-0.019588882,0.0046766875,-3.9449935,-10.464756,3.271546
0.70012075,-0.018978791,0.0045310333,-3.8221278,-10.138834,3.1696546
0.6783164,-0.018387722,0.0043899203,-3.7030928,-9.823074,3.07094
0.6571919,-0.017815081,0.004253207,-3.587769,-9.5171585,2.975303
0.6367259,-0.01726029,0.004120755,-3.4760401,-9.220778,2.8826473
0.61689776,-0.016722793,0.003992432,-3.3677936,-8.933637,2.7928796
0.59768766,-0.016202047,0.0038681081,-3.262921,-8.655445,2.7059097
0.57907623,-0.015697531,0.003747659,-3.1613169,-8.385922,2.6216502
0.5610448,-0.015208737,0.0036309634,-3.0628788,-8.124799,2.5400167
0.5435752,-0.014735173,0.0035179039,-2.967508,-7.8718123,2.4609265
0.52664995,-0.014276366,0.0034083673,-2.8751092,-7.6267085,2.384301
0.51025206,-0.013831853,0.0033022433,-2.785589,-7.389241,2.3100626
0.49436498,-0.013401188,0.0031994255,-2.6988575,-7.159172,2.2381372
0.47897285,-0.012983941,0.003099811,-2.6148283,-6.9362698,2.1684525
0.46406022,-0.01257969,0.0030032995,-2.5334165,-6.7203116,2.1009383
0.44961208,-0.012188032,0.0029097942,-2.4545407,-6.5110803,2.0355275
0.435614,-0.011808573,0.0028192017,-2.3781219,-6.3083663,1.972154
0.4220519,-0.011440934,0.0027314306,-2.304083,-6.111966,1.9107543
0.4089122,-0.011084745,0.0026463934,-2.2323503,-5.9216833,1.8512671
0.39618176,-0.010739649,0.0025640046,-2.1628518,-5.7373266,1.7936325
0.38384777,-0.0104053,0.0024841817,-2.0955176,-5.558711,1.737793
0.3718979,-0.010081365,0.0024068446,-2.0302804,-5.3856583,1.6836923
0.36032015,-0.0097675165,0.0023319158,-1.9670746,-5.2179947,1.6312764
0.34910297,-0.0094634425,0.0022593206,-1.9058372,-5.0555525,1.5804929
0.33823505,-0.009168836,0.0021889857,-1.8465067,-4.8981686,1.5312907
0.32770556,-0.008883405,0.002120841,-1.7890238,-4.745685,1.4836205
0.31750396,-0.00860686,0.0020548184,-1.7333306,-4.59795,1.4374348
0.30762,-0.008338926,0.0019908515,-1.6793717,-4.454815,1.3926871
0.2980438,-0.008079336,0.0019288764,-1.6270928,-4.3161364,1.3493328
0.28876576,-0.007827828,0.0018688308,-1.5764418,-4.181776,1.3073283
0.27977657,-0.007584151,0.0018106549,-1.5273678,-4.051599,1.2666317
0.2710673,-0.0073480606,0.0017542902,-1.4798217,-3.925475,1.2272022
0.26262918,-0.007119321,0.0016996805,-1.433756,-3.8032777,1.1890002
0.25445375,-0.006897703,0.0016467709,-1.3891244,-3.684885,1.1519878
0.24653287,-0.0066829845,0.0015955087,-1.3458824,-3.5701785,1.1161276
0.2388586,-0.006474951,0.0015458423,-1.3039867,-3.459043,1.0813838
0.23142324,-0.006273394,0.0014977222,-1.2633953,-3.3513675,1.0477217
0.22421937,-0.0060781124,0.0014511003,-1.2240676,-3.2470443,1.0151076
0.21723977,-0.00588891,0.0014059298,-1.1859642,-3.1459687,0.98350894
0.21047744,-0.005705598,0.0013621656,-1.1490471,-3.04804,0.9528939
0.20392565,-0.0055279927,0.0013197637,-1.1132792,-2.9531598,0.923232
0.19757782,-0.0053559165,0.0012786818,-1.078625,-2.8612332,0.89449346
0.1914276,-0.005189197,0.0012388789,-1.0450494,-2.7721686,0.8666496
0.18546884,-0.0050276676,0.0012003151,-1.0125191,-2.6858766,0.83967257
0.17969559,-0.004871167,0.0011629518,-0.9810015,-2.6022708,0.81353533
0.17410205,-0.004719538,0.0011267517,-0.950465,-2.5212677,0.7882117
0.16868263,-0.0045726295,0.0010916784,-0.9208792,-2.4427862,0.7636764
0.16343194,-0.0044302936,0.0010576969,-0.8922143,-2.3667479,0.73990494
0.15834469,-0.0042923894,0.0010247733,-0.8644418,-2.2930768,0.7168734
0.1534158,-0.004158777,0.0009928746,-0.8375338,-2.2216988,0.69455886
0.14864033,-0.0040293247,0.00096196885,-0.8114634,-2.1525426,0.67293894
0.14401354,-0.0039039021,0.00093202514,-0.78620464,-2.0855393,0.6519921
0.13953076,-0.0037823836,0.00090301357,-0.76173204,-2.020622,0.63169724
