ax,ay,az,gx,gy,gz
-4.1936746,-3.419122,-5.760052,48.1068,63.421486,14.315584
-4.356781,-3.5615275,-5.9067793,49.380966,51.495285,8.367092
-3.998784,-3.6243744,-6.175401,51.234013,43.72984,10.535183
-3.5973525,-3.7364047,-6.5390873,53.229927,38.19429,14.724775
-3.2652137,-3.9734888,-7.0041246,55.87781,33.211224,16.985771
-3.0543442,-4.195661,-7.495278,59.84232,27.745384,17.42717
-2.9004352,-4.346001,-7.988789,65.34398,20.919256,17.971365
-2.8137968,-4.339215,-8.497259,70.30187,13.297223,19.011078
-2.8035889,-4.198322,-8.937488,74.57798,4.974694,19.522491
-2.8621044,-3.995363,-9.319757,78.74459,-3.8513403,19.666384
-2.9959447,-3.6976876,-9.598393,82.19376,-13.847807,18.845339
-3.1608467,-3.3601665,-9.774112,84.16221,-26.284464,17.905378
-3.1460283,-3.0896716,-9.826051,85.52775,-38.42074,18.529924
-3.0201287,-2.8390276,-9.74219,86.86444,-48.98023,20.6075
-2.880709,-2.5439446,-9.498986,87.84743,-58.660694,22.714743
-2.643171,-2.2134018,-9.086021,87.72377,-68.01074,24.576015
-2.2411337,-1.9780607,-8.569165,86.94268,-76.3493,26.80099
-1.6485612,-1.8818442,-7.953235,86.58181,-83.2328,28.526028
-0.8863151,-1.8292307,-7.262565,86.67203,-88.303345,30.105804
0.0029358442,-1.7178684,-6.467691,86.66511,-90.708046,31.752905
0.9096617,-1.5944464,-5.6315928,87.05237,-90.307396,33.582207
1.7422737,-1.3994559,-4.776653,87.83704,-86.65032,35.421803
2.4595966,-1.1005218,-3.9510727,88.83013,-80.93889,37.257378
3.0312376,-0.70448476,-3.1868765,89.60835,-73.56694,38.803047
3.4349298,-0.2511955,-2.5062246,89.96366,-65.10684,40.038654
3.6873746,0.19919305,-1.9301218,89.5187,-56.477043,41.12597
3.8447726,0.606905,-1.4620593,87.99157,-47.624077,41.882244
3.9160655,0.96886843,-1.1250465,85.82516,-38.645187,42.115356
3.9347525,1.2943511,-0.8905185,83.02286,-29.663473,41.86036
3.8967369,1.5721244,-0.75759554,79.79973,-20.943893,41.41513
3.7991743,1.7947658,-0.71810246,76.350746,-12.763665,40.73882
3.6661952,1.9627806,-0.75956047,72.65553,-5.404853,39.707035
3.5095065,2.0774486,-0.8823615,68.93927,1.3504698,38.29134
3.3363442,2.1628199,-1.0485939,65.20783,7.555167,36.587685
3.1461937,2.2334292,-1.2459311,61.395508,13.197018,34.628735
2.932728,2.2866242,-1.4770143,57.596146,18.10204,32.46972
2.69094,2.3219266,-1.7376856,53.70252,21.692703,30.147398
2.419401,2.3268998,-2.0198522,49.690594,24.082212,27.66584
2.152988,2.299447,-2.3109038,45.786095,25.479343,25.148129
1.8940297,2.2545645,-2.6015317,42.02293,25.978271,22.672989
1.643196,2.1998012,-2.883989,38.437485,25.6233,20.243336
1.408126,2.1332674,-3.153345,35.160503,24.356037,17.910164
1.1790445,2.0671165,-3.400083,32.091415,22.534977,15.743136
0.94692826,1.9977355,-3.6379793,29.252415,20.052399,13.637911
0.7230298,1.9279879,-3.864716,26.59856,16.840418,11.539118
0.51098484,1.8573418,-4.071453,24.098389,13.005892,9.500754
0.3075483,1.7881255,-4.2611027,21.74349,8.301474,7.413755
0.14008746,1.718428,-4.423019,19.467468,3.0784795,5.3005705
0.014105724,1.6469516,-4.5494065,17.342896,-2.3891163,3.2678099
-0.076897606,1.5708375,-4.6432405,15.3642645,-8.083716,1.2759595
-0.1151478,1.4844337,-4.700636,13.59654,-13.933218,-0.70622563
-0.0838297,1.3946078,-4.7118244,12.165147,-19.867,-2.7227776
0.042209852,1.319722,-4.642978,10.837107,-25.638422,-4.7625933
0.24088094,1.261189,-4.506369,9.453408,-30.898537,-6.7257376
0.48622826,1.2099011,-4.310307,8.056468,-35.400932,-8.320677
0.7492088,1.17819,-4.0605097,6.4652243,-39.171574,-9.482238
1.0048039,1.1564479,-3.7729282,4.695174,-41.99791,-10.280308
1.2412993,1.1455199,-3.4507406,2.8230517,-44.05002,-11.069567
1.4528899,1.1377928,-3.1149392,0.8584686,-45.330727,-11.86443
1.635627,1.1275392,-2.777031,-1.1555884,-46.058968,-12.5435915
1.7952895,1.1160879,-2.4373627,-3.2869594,-46.28771,-13.097688
1.9323218,1.096517,-2.1119175,-5.385252,-45.68188,-13.753003
2.0453928,1.0634065,-1.8231249,-7.491485,-44.550716,-14.430909
2.1255705,1.0011948,-1.5768743,-9.709946,-43.053223,-14.918118
2.173878,0.8943056,-1.379103,-11.891524,-41.481472,-15.086192
2.2040966,0.74296564,-1.2286365,-13.779137,-39.80658,-15.058412
2.2236428,0.5664143,-1.119781,-14.92392,-37.683895,-15.11961
2.2200072,0.38280594,-1.0533432,-15.487216,-35.259956,-15.219753
2.189443,0.21440758,-1.0114627,-15.581296,-32.71671,-15.20737
2.1275685,0.068735294,-0.98928654,-15.390029,-30.276094,-15.0027075
2.0423152,-0.054571714,-0.9838328,-15.010784,-28.076155,-14.668845
1.9436117,-0.15537742,-0.9896885,-14.453955,-26.086985,-14.330513
1.8306743,-0.23113099,-1.0102434,-13.7527275,-24.351585,-13.987869
1.7135913,-0.2858676,-1.0349736,-12.9990835,-22.861101,-13.606178
1.5947447,-0.32138398,-1.059494,-12.260516,-21.63417,-13.267967
1.4881095,-0.34754214,-1.0839715,-11.474663,-20.625072,-12.9775
1.3967448,-0.36832628,-1.1086937,-10.455885,-19.834116,-12.6231985
1.3353873,-0.39478242,-1.1302114,-9.071232,-19.165281,-12.0818615
1.3012644,-0.42596537,-1.1448145,-7.067057,-18.460371,-10.8897915
1.2680883,-0.41962928,-1.1248629,-5.1970153,-17.57044,-9.917212
1.2281389,-0.40640944,-1.0894257,-5.0332904,-17.016909,-9.604784
1.1894767,-0.39361554,-1.0551302,-4.8748407,-16.48121,-9.302423
1.1520575,-0.38123295,-1.0219374,-4.721485,-15.962736,-9.009782
1.115839,-0.3692477,-0.9898095,-4.5730505,-15.460897,-8.726531
1.0807805,-0.35764632,-0.95871073,-4.42937,-14.975132,-8.452353
1.0468429,-0.34641588,-0.9286063,-4.2902837,-14.504898,-8.18694
1.0139887,-0.33554393,-0.8994628,-4.155637,-14.049675,-7.9300003
0.9821816,-0.3250185,-0.87124825,-4.025282,-13.608961,-7.68125
0.95138687,-0.31482807,-0.8439316,-3.8990755,-13.182274,-7.440417
0.9215709,-0.3049615,-0.81748325,-3.7768805,-12.769148,-7.207238
0.8927014,-0.29540816,-0.79187447,-3.6585646,-12.369137,-6.981461
0.8647473,-0.28615773,-0.7670776,-3.544,-11.981809,-6.762843
0.83767843,-0.27720025,-0.7430661,-3.4330633,-11.606747,-6.5511484
0.811466,-0.26852614,-0.71981424,-3.3256366,-11.24355,-6.3461514
0.78608197,-0.2601262,-0.6972972,-3.2216053,-10.891833,-6.147633
0.76149946,-0.2519915,-0.6754913,-3.1208587,-10.551223,-5.9553833
0.7376926,-0.24411345,-0.6543732,-3.0232906,-10.221357,-5.769199
0.71463615,-0.23648372,-0.6339209,-2.9287982,-9.901891,-5.588884
0.6923059,-0.22909433,-0.6141128,-2.8372822,-9.592487,-5.414248
0.67067856,-0.2219375,-0.5949282,-2.7486467,-9.292822,-5.245109
0.6497315,-0.21500582,-0.576347,-2.6627991,-9.002583,-5.0812907
0.6294429,-0.208292,-0.5583499,-2.5796502,-8.721466,-4.9226213
0.60979164,-0.20178913,-0.5409182,-2.4991133,-8.449182,-4.768937
0.5907574,-0.1954904,-0.5240338,-2.4211054,-8.185446,-4.6200776
0.5723205,-0.18938936,-0.5076792,-2.345545,-7.929987,-4.47589
0.55446184,-0.18347967,-0.49183768,-2.272355,-7.6825404,-4.3362246
0.53716314,-0.17775527,-0.47649276,-2.2014594,-7.4428515,-4.200938
0.5204065,-0.17221023,-0.46162868,-2.1327856,-7.210674,-4.069891
0.5041747,-0.1668389,-0.44723025,-2.0662627,-6.985769,-3.9429488
0.48845118,-0.16163576,-0.43328264,-2.001823,-6.767906,-3.8199816
0.47321984,-0.15659547,-0.41977158,-1.9394002,-6.556863,-3.7008634
0.45846507,-0.15171291,-0.40668333,-1.8789306,-6.352423,-3.585472
0.44417182,-0.14698306,-0.39400443,-1.8203526,-6.1543784,-3.4736905
0.43032557,-0.14240113,-0.38172206,-1.7636063,-5.9625263,-3.3654044
0.41691214,-0.13796243,-0.36982363,-1.708634,-5.776672,-3.2605033
0.40391794,-0.13366245,-0.35829708,-1.6553798,-5.5966263,-3.158881
0.39132977,-0.12949684,-0.3471307,-1.6037896,-5.4222064,-3.0604339
0.37913483,-0.12546135,-0.3363131,-1.553811,-5.2532353,-2.965062
0.36732075,-0.12155189,-0.32583338,-1.5053931,-5.089541,-2.8726687
0.35587555,-0.11776452,-0.3156809,-1.4584874,-4.9309583,-2.7831607
0.3447877,-0.114095375,-0.30584535,-1.4130459,-4.7773266,-2.696447
0.33404592,-0.11054076,-0.2963168,-1.3690227,-4.62849,-2.6124396
0.32363936,-0.10709708,-0.28708562,-1.3263735,-4.4842987,-2.5310543
0.31355754,-0.10376085,-0.2781425,-1.285055,-4.3446064,-2.4522083
0.30379024,-0.10052871,-0.26947838,-1.2450258,-4.209272,-2.3758223
0.29432765,-0.097397394,-0.26108456,-1.2062451,-4.07816,-2.3018188
0.28516015,-0.09436374,-0.2529525,-1.168674,-3.9511366,-2.2301238
0.2762786,-0.091424696,-0.24507406,-1.1322745,-3.8280747,-2.1606646
0.26767397,-0.0885773,-0.2374413,-1.0970101,-3.7088504,-2.0933712
0.25933763,-0.08581868,-0.23004651,-1.0628452,-3.5933433,-2.028176
0.25126117,-0.083146065,-0.22288227,-1.0297455,-3.4814374,-1.9650134
0.24343652,-0.08055676,-0.21594135,-0.99767756,-3.3730197,-1.9038197
0.23585573,-0.07804816,-0.20921679,-0.9666092,-3.2679815,-1.8445334
0.22851121,-0.07561776,-0.2027018,-0.93650913,-3.166217,-1.787095
0.2213956,-0.073263094,-0.19638987,-0.9073471,-3.067624,-1.7314465
0.21450171,-0.07098181,-0.19027463,-0.8790939,-2.9721036,-1.6775322
0.20782265,-0.0687716,-0.18434992,-0.851721,-2.8795593,-1.6252979
0.20135169,-0.06663027,-0.17860985,-0.82520103,-2.7898989,-1.5746912
0.19508234,-0.064555645,-0.1730486,-0.7995073,-2.7030318,-1.5256611
0.18900831,-0.062545665,-0.16766061,-0.7746141,-2.618871,-1.4781586
0.18312351,-0.06059829,-0.16244046,-0.7504964,-2.5373318,-1.4321358
0.17742203,-0.05871159,-0.15738294,-0.72712994,-2.458333,-1.3875468
0.17189814,-0.05688365,-0.15248296,-0.7044914,-2.381795,-1.3443468
0.16654631,-0.055112652,-0.1477356,-0.68255794,-2.3076408,-1.3024923
0.16136119,-0.053396817,-0.1431361,-0.6613077,-2.2357965,-1.2619414
0.15633754,-0.051734418,-0.13867986,-0.6407193,-2.1661897,-1.2226535
0.15147038,-0.0501238,-0.13436241,-0.6207721,-2.0987508,-1.1845893
0.14675477,-0.048563335,-0.13017942,-0.60144615,-2.0334122,-1.1477104
0.14218603,-0.04705147,-0.1261267,-0.582722,-1.9701084,-1.1119802
0.13775957,-0.04558669,-0.12220019,-0.56458104,-1.9087759,-1.0773625
0.13347095,-0.044167522,-0.118395954,-0.54700494,-1.8493534,-1.043823
0.12931587,-0.042792544,-0.114710175,-0.5299761,-1.7917813,-1.0113277
0.12529019,-0.041460384,-0.11113917,-0.5134776,-1.736002,-0.97984445
0.12138984,-0.040169705,-0.10767936,-0.49749285,-1.6819595,-0.9493415
0.117610954,-0.038919214,-0.10432728,-0.4820058,-1.6295997,-0.9197883
0.11394972,-0.037707657,-0.101079576,-0.46700096,-1.5788703,-0.8911553
0.110402495,-0.036533825,-0.09793299,-0.45246333,-1.5297204,-0.8634138
0.106965706,-0.035396542,-0.09488437,-0.4383783,-1.4821008,-0.83653605
0.10363593,-0.03429467,-0.09193067,-0.42473185,-1.4359639,-0.8104952
0.10040981,-0.0332271,-0.08906894,-0.41151026,-1.3912634,-0.7852651
0.097284146,-0.03219277,-0.086296305,-0.39870033,-1.3479545,-0.76082045
0.09425579,-0.031190643,-0.08360999,-0.38628918,-1.3059942,-0.7371369
0.09132172,-0.030219715,-0.08100731,-0.37426445,-1.2653401,-0.7141907
0.088479,-0.029279014,-0.07848566,-0.3626141,-1.2259517,-0.6919589
0.08572477,-0.028367601,-0.07604251,-0.35132644,-1.1877896,-0.6704192
0.08305629,-0.02748456,-0.073675424,-0.34039018,-1.1508155,-0.6495501
0.08047088,-0.026629012,-0.07138203,-0.3297944,-1.1149925,-0.62933064
0.07796597,-0.025800098,-0.06916003,-0.31952846,-1.0802847,-0.6097407
0.07553903,-0.024996988,-0.06700721,-0.30958214,-1.0466574,-0.5907606
0.07318764,-0.02421888,-0.0649214,-0.29994544,-1.0140771,-0.5723713
0.07090946,-0.023464995,-0.06290053,-0.29060873,-0.98251086,-0.5545546
0.0687022,-0.022734579,-0.060942564,-0.2815627,-0.9519273,-0.5372924
0.06656364,-0.0220269,-0.059045553,-0.27279827,-0.92229587,-0.52056766
0.06449167,-0.021341251,-0.0572076,-0.26430666,-0.8935869,-0.50436354
0.06248419,-0.020676946,-0.055426855,-0.2560794,-0.86577153,-0.48866388
0.0605392,-0.020033322,-0.05370155,-0.24810824,-0.8388221,-0.47345293
0.058654763,-0.019409733,-0.05202995,-0.24038523,-0.8127116,-0.45871547
0.056828983,-0.018805556,-0.050410386,-0.23290263,-0.7874139,-0.4444368
0.05506004,-0.018220186,-0.048841234,-0.22565295,-0.7629037,-0.43060258
0.05334616,-0.017653039,-0.047320932,-0.21862896,-0.7391564,-0.41719902
