ax,ay,az,gx,gy,gz
-5.811871,-2.905481,-8.291894,69.636086,0.94364494,27.410248
-6.2212176,-2.8752344,-8.661683,74.72757,-12.331032,20.515177
-6.30614,-2.6466804,-8.814643,78.90237,-25.210476,13.0570965
-6.094347,-2.5481012,-9.058314,82.37292,-35.175987,7.9481826
-5.6641474,-2.6751473,-9.359541,86.05075,-42.710785,5.8138676
-5.2470884,-2.9412308,-9.635158,90.55708,-48.005833,6.3264117
-4.979748,-3.1764123,-9.890189,96.13514,-52.409138,7.6013355
-4.844689,-3.3407314,-10.110332,103.3751,-57.688587,7.689259
-4.751411,-3.4681394,-10.24869,111.38505,-63.5063,6.769929
-4.590617,-3.490231,-10.247805,119.57411,-70.39252,5.7693634
-4.2244544,-3.3936696,-10.067708,126.217354,-78.486336,6.2274976
-3.635386,-3.2818713,-9.7276,131.23936,-86.91596,9.350765
-2.8740146,-3.1257975,-9.23469,135.65659,-93.394135,14.144896
-1.9943831,-2.781603,-8.458758,140.74911,-96.33046,18.01792
-1.1277764,-2.255448,-7.548223,145.41766,-95.802826,20.933884
-0.3253413,-1.6378092,-6.584198,147.96753,-93.11759,24.200489
0.36740196,-1.0812279,-5.659327,147.74127,-89.23437,28.882544
0.93846697,-0.659479,-4.852114,146.23582,-83.795166,34.705997
1.3939791,-0.20124026,-4.1247435,144.67627,-77.56328,39.539253
1.8001602,0.32974702,-3.4119763,142.66951,-70.70646,43.125294
2.188386,0.896986,-2.7241714,139.68988,-62.892685,46.24244
2.517325,1.4650233,-2.1072414,135.2154,-54.187355,49.23678
2.742773,1.9659872,-1.6160101,129.324,-44.80836,51.994255
2.8243747,2.4096184,-1.264595,123.249855,-35.794144,54.008614
2.8433576,2.8201158,-0.9847225,116.81704,-26.899817,55.107918
2.8198967,3.1879735,-0.7910892,110.30483,-18.315018,55.77862
2.741599,3.522121,-0.67788696,103.15053,-10.045379,56.03453
2.6068392,3.813936,-0.6590152,96.03883,-2.553519,55.48646
2.3929908,4.053374,-0.74333364,88.95135,3.825214,54.261406
2.1487975,4.2454295,-0.8872781,81.92834,9.153107,52.48138
1.8844131,4.388666,-1.087135,75.11267,13.483239,50.35086
1.5957072,4.4906464,-1.3398087,68.567154,16.60518,47.932102
1.2882402,4.560056,-1.6288056,62.337368,18.060886,44.924385
0.9676375,4.584209,-1.9468452,56.56447,18.318436,41.477837
0.6554168,4.5862594,-2.2704258,51.26978,17.412666,37.69347
0.35478917,4.5597777,-2.5946195,46.469425,15.468951,33.61196
0.0639054,4.4953747,-2.9196415,42.428734,12.653873,29.32578
-0.2185449,4.4089203,-3.2327533,39.540676,8.8119755,24.760487
-0.48987463,4.3402267,-3.5157528,37.294613,4.354344,19.997675
-0.7459857,4.3179865,-3.7655058,35.225666,-0.7839968,14.7604475
-0.98230046,4.3208833,-3.9813817,33.274082,-6.730956,8.739069
-1.1492695,4.340114,-4.1272917,31.384287,-13.296328,1.7829537
-1.184962,4.409203,-4.1471233,29.619295,-19.760113,-5.8725257
-1.0528755,4.552747,-3.9767277,27.620934,-25.609638,-13.283918
-0.82474387,4.7069345,-3.6933348,25.011372,-30.848696,-19.764029
-0.51523536,4.856987,-3.3301866,21.391321,-35.460888,-25.206835
-0.13886522,4.9374094,-2.9506426,16.970507,-39.193966,-29.833153
0.28079852,4.9264545,-2.5945747,11.948393,-41.552868,-33.38397
0.70763296,4.7803445,-2.3034914,6.544659,-42.937103,-35.89785
1.0897155,4.5368304,-2.0696352,1.0169109,-43.225834,-37.592335
1.4062557,4.2096815,-1.8904208,-4.1473074,-42.739594,-38.90587
1.6510131,3.816751,-1.7625698,-8.61098,-41.737385,-39.707966
1.8469793,3.395896,-1.6777967,-12.124045,-40.4083,-39.506954
2.0174513,2.9461544,-1.6302712,-14.883816,-38.790127,-38.747105
2.1682665,2.497899,-1.5959088,-16.71598,-36.49411,-37.653557
2.2809904,2.064099,-1.5737349,-17.519928,-33.416496,-36.27197
2.3436663,1.6868585,-1.5504622,-17.766685,-29.788794,-34.414883
2.3468235,1.3728008,-1.5274078,-17.696497,-26.03811,-31.83278
2.2886121,1.1267732,-1.49283,-17.495237,-22.32208,-28.762932
2.1984632,0.93326557,-1.4557352,-17.217611,-18.545261,-25.476109
2.127052,0.902951,-1.4084495,-16.658344,-17.94287,-24.648586
2.058141,0.8736976,-1.3628193,-16.118654,-17.361563,-23.850033
1.9916254,0.84546125,-1.3187754,-15.597729,-16.800468,-23.079243
1.9274077,0.8182003,-1.276253,-15.094797,-16.258757,-22.33508
1.8653948,0.7918753,-1.2351904,-14.609133,-15.735643,-21.616465
1.8054986,0.7664489,-1.1955296,-14.140047,-15.230386,-20.922379
1.747636,0.7418857,-1.1572152,-13.686887,-14.742282,-20.251858
1.6917278,0.7181522,-1.120195,-13.249032,-14.270665,-19.603985
1.6376988,0.6952165,-1.0844193,-12.825896,-13.8149,-18.97789
1.5854777,0.6730482,-1.0498405,-12.416918,-13.374387,-18.372744
1.5349965,0.65161854,-1.0164138,-12.021566,-12.948549,-17.78776
1.4861903,0.6308999,-0.9840963,-11.639333,-12.536842,-17.222187
1.4389975,0.6108662,-0.95284706,-11.269735,-12.138744,-16.67531
1.3933591,0.5914923,-0.92262715,-10.912312,-11.753759,-16.146446
1.3492188,0.57275444,-0.89339924,-10.56662,-11.3814125,-15.634943
1.306523,0.5546297,-0.86512774,-10.232241,-11.021249,-15.140177
1.26522,0.5370962,-0.83777857,-9.90877,-10.672835,-14.661552
1.2252607,0.5201332,-0.81131905,-9.595822,-10.335756,-14.198499
1.186598,0.5037205,-0.78571814,-9.293029,-10.009614,-13.750468
1.1491865,0.48783904,-0.76094574,-9.000035,-9.694028,-13.316939
1.112983,0.47247037,-0.7369732,-8.716502,-9.388631,-12.897408
1.077946,0.45759684,-0.7137731,-8.442103,-9.093074,-12.491393
1.0440353,0.44320148,-0.69131875,-8.176527,-8.807018,-12.098432
1.0112128,0.42926806,-0.669585,-7.9194717,-8.530143,-11.71808
0.9794415,0.4157809,-0.64854735,-7.6706505,-8.262135,-11.34991
0.9486861,0.40272498,-0.6281823,-7.4297843,-8.002695,-10.993511
0.9189125,0.39008582,-0.6084674,-7.1966076,-7.751538,-10.64849
0.8900878,0.37784952,-0.5893808,-6.9708624,-7.5083857,-10.3144655
0.8621805,0.36600265,-0.5709017,-6.752302,-7.272972,-9.991072
0.8351602,0.3545323,-0.55301,-6.5406885,-7.045041,-9.677957
0.80899763,0.3434261,-0.53568614,-6.3357925,-6.824345,-9.374782
0.7836646,0.332672,-0.5189116,-6.1373925,-6.6106467,-9.081219
0.7591339,0.3222585,-0.5026683,-5.9452763,-6.4037166,-8.796952
0.73537916,0.31217447,-0.48693892,-5.759238,-6.203333,-8.52168
0.7123753,0.30240914,-0.4717067,-5.579079,-6.009282,-8.255108
0.6900978,0.29295215,-0.4569554,-5.4046097,-5.821359,-7.996953
0.66852313,0.28379354,-0.4426695,-5.2356443,-5.6393647,-7.7469425
0.64762855,0.2749236,-0.42883396,-5.072005,-5.463107,-7.504813
0.6273921,0.26633307,-0.41543418,-4.9135203,-5.292402,-7.2703104
0.6077927,0.25801295,-0.4024562,-4.760024,-5.1270695,-7.043189
0.58880967,0.24995452,-0.38988644,-4.611356,-4.9669375,-6.8232117
0.5704234,0.2421494,-0.37771177,-4.467361,-4.811839,-6.610149
0.5526148,0.23458949,-0.3659196,-4.3278894,-4.6616135,-6.40378
0.5353653,0.22726694,-0.35449767,-4.1927977,-4.516104,-6.2038903
0.5186571,0.22017416,-0.34343415,-4.0619445,-4.375161,-6.0102735
0.502473,0.21330388,-0.3327177,-3.9351962,-4.2386394,-5.822729
0.48679623,0.20664898,-0.32233715,-3.8124213,-4.106397,-5.641065
0.47161075,0.20020261,-0.31228194,-3.6934938,-3.9782991,-5.4650936
0.45690095,0.19395818,-0.3025417,-3.578292,-3.854214,-5.2946343
0.44265175,0.18790928,-0.29310644,-3.466697,-3.734014,-5.1295123
0.42884856,0.1820497,-0.2839665,-3.3585951,-3.6175764,-4.969559
0.41547728,0.1763735,-0.27511257,-3.2538757,-3.504782,-4.8146105
0.40252423,0.17087482,-0.26653558,-3.152432,-3.395516,-4.664509
0.38997626,0.1655481,-0.2582268,-3.0541604,-3.2896667,-4.519101
0.37782055,0.1603879,-0.25017777,-2.958961,-3.1871266,-4.378239
0.36604476,0.15538898,-0.24238032,-2.8667371,-3.0877912,-4.2417793
0.3546369,0.15054625,-0.23482649,-2.7773945,-2.9915595,-4.1095834
0.3435854,0.1458548,-0.22750863,-2.690843,-2.898334,-3.981517
0.33287907,0.14130987,-0.22041932,-2.6069949,-2.80802,-3.8574507
0.32250705,0.13690686,-0.21355137,-2.5257647,-2.7205265,-3.7372582
0.3124588,0.13264132,-0.20689784,-2.4470704,-2.6357641,-3.620818
0.30272424,0.12850891,-0.20045199,-2.3708324,-2.5536475,-3.508012
0.29329345,0.12450547,-0.1942073,-2.296974,-2.4740934,-3.398727
0.28415695,0.12062694,-0.18815747,-2.2254198,-2.397022,-3.2928517
0.27530548,0.11686942,-0.18229637,-2.1560981,-2.322355,-3.1902797
0.26673013,0.11322912,-0.17661811,-2.088939,-2.2500172,-3.0909073
0.25842226,0.10970235,-0.17111696,-2.0238745,-2.1799355,-2.9946342
0.25037345,0.10628557,-0.16578737,-1.960839,-2.1120393,-2.9013636
0.24257563,0.10297534,-0.16062397,-1.8997693,-2.0462604,-2.8110015
0.23502095,0.09976831,-0.15562156,-1.8406036,-1.9825325,-2.7234566
0.22770178,0.09666126,-0.15077509,-1.7832824,-1.9207913,-2.638641
0.22061078,0.09365108,-0.14607972,-1.727748,-1.8609748,-2.5564697
0.21374081,0.09073472,-0.1415307,-1.6739448,-1.8030226,-2.4768593
0.20708495,0.08790925,-0.13712345,-1.6218184,-1.7468768,-2.3997302
0.20063652,0.08517184,-0.13285355,-1.5713165,-1.6924807,-2.325005
0.19438905,0.08251973,-0.12871672,-1.5223885,-1.6397798,-2.2526083
0.18833624,0.07995027,-0.124708794,-1.4749849,-1.588721,-2.1824675
0.18247204,0.07746086,-0.120825745,-1.4290584,-1.5392531,-2.1145122
0.17679054,0.07504902,-0.11706368,-1.3845628,-1.4913265,-2.048674
0.17128603,0.07271232,-0.11341882,-1.3414536,-1.444893,-1.9848872
0.16595301,0.070448406,-0.1098875,-1.2996871,-1.399906,-1.9230875
0.16078612,0.06825502,-0.1064662,-1.2592218,-1.3563205,-1.8632128
0.15578018,0.06612996,-0.10315146,-1.2200171,-1.3140925,-1.8052033
0.15093017,0.06407109,-0.09993997,-1.1820334,-1.27318,-1.7490005
0.14623122,0.062076345,-0.09682851,-1.1452328,-1.2335417,-1.6945485
0.14167863,0.06014373,-0.09381396,-1.1095785,-1.195138,-1.6417923
0.13726781,0.058271307,-0.090893306,-1.0750345,-1.1579304,-1.5906793
0.13299437,0.056457195,-0.0880636,-1.0415664,-1.1218816,-1.541158
0.12885402,0.05469958,-0.08532202,-1.0091405,-1.0869553,-1.493179
0.1248426,0.052996702,-0.082665816,-0.9777245,-1.0531168,-1.446694
0.1209561,0.05134685,-0.08009233,-0.9472867,-1.020332,-1.4016567
0.11719062,0.049748376,-0.07759898,-0.9177968,-0.9885681,-1.3580219
0.1135424,0.048199676,-0.07518327,-0.8892252,-0.9577933,-1.3157457
0.11000778,0.046699196,-0.072842784,-0.8615432,-0.9279768,-1.274786
0.10658321,0.045245443,-0.07057518,-0.8347232,-0.8990887,-1.2351016
0.10326528,0.04383695,-0.06837817,-0.8087383,-0.87110007,-1.1966529
0.10005065,0.042472318,-0.06624957,-0.7835624,-0.84398293,-1.1594014
0.096936114,0.04115017,-0.06418725,-0.7591704,-0.81771004,-1.1233096
0.09391855,0.03986919,-0.062189136,-0.7355379,-0.7922552,-1.0883417
0.09099493,0.03862809,-0.060253236,-0.7126411,-0.7675929,-1.0544624
0.08816234,0.037425634,-0.058377605,-0.6904572,-0.7436984,-1.0216379
0.08541794,0.036260612,-0.05656037,-0.668964,-0.72054785,-0.9898354
0.08275898,0.03513186,-0.054799713,-0.64813995,-0.69811803,-0.959023
0.0801828,0.034038253,-0.05309387,-0.6279642,-0.67638654,-0.92916983
0.077686824,0.03297869,-0.051441133,-0.60841656,-0.6553316,-0.9002461
0.07526855,0.031952113,-0.04983985,-0.5894775,-0.6349321,-0.87222284
0.07292557,0.030957498,-0.048288416,-0.5711281,-0.61516774,-0.845072
0.07065552,0.029993845,-0.046785284,-0.5533498,-0.5960186,-0.81876636
0.06845614,0.02906019,-0.045328945,-0.53612506,-0.57746565,-0.79327965
0.06632523,0.028155603,-0.04391794,-0.51943654,-0.55949026,-0.7685864
0.06426066,0.027279176,-0.04255086,-0.5032675,-0.54207444,-0.7446618
0.062260363,0.026430031,-0.041226342,-0.48760182,-0.5252008,-0.72148204
0.060322333,0.025607321,-0.039943058,-0.47242385,-0.5088524,-0.6990239
0.058444634,0.024810223,-0.038699716,-0.45771834,-0.493013,-0.6772648
0.056625385,0.024037937,-0.037495084,-0.4434706,-0.47766662,-0.6561831
0.05486277,0.023289694,-0.03632795,-0.4296664,-0.462798,-0.6357577
0.053155024,0.02256474,-0.03519715,-0.41629192,-0.4483922,-0.6159681
0.05150044,0.021862356,-0.03410155,-0.40333378,-0.43443486,-0.5967945
0.049897358,0.021181835,-0.033040054,-0.39077902,-0.420912,-0.5782178
0.04834418,0.0205225,-0.0320116,-0.37861508,-0.40781006,-0.56021935
