ax,ay,az,gx,gy,gz
-0.37000337,0.94364494,0.36091238,-1.4981954,31.017553,-20.25291
-0.37619582,0.8385149,-0.041184,-10.613868,33.89086,-9.585335
-0.4278391,0.5025791,-0.7407788,-15.5667515,31.952559,-3.213364
-0.4729231,-0.17690383,-1.3969173,-12.951288,30.58517,-4.787633
-0.27760348,-1.0190327,-2.016283,-0.7136063,32.631218,-12.417403
0.10891533,-2.0644271,-2.6169646,23.353195,40.28112,-25.038754
0.39866373,-3.1794941,-3.4837523,63.25457,53.06975,-41.69292
0.2764333,-4.3042655,-4.862587,106.426315,63.167397,-55.52118
-0.07955378,-4.9823847,-6.2542334,147.77135,67.85447,-65.596825
-0.46090075,-4.894533,-7.419303,180.83646,66.63126,-72.046165
-0.676749,-4.3464913,-8.180494,203.52432,61.48655,-73.46142
-0.7198472,-3.560215,-8.538074,216.09946,55.46362,-69.514534
-0.8378644,-2.6273015,-8.607813,224.37556,50.34695,-65.869644
-1.1212752,-1.5901452,-8.543564,230.79892,45.7425,-63.3027
-1.5653619,-0.3282288,-8.395913,233.78304,40.459145,-61.748703
-2.0660076,1.0587306,-8.167192,231.7647,33.51003,-60.712864
-2.473756,2.3751414,-7.83166,223.04774,25.077135,-59.69722
-2.6929493,3.4903162,-7.353346,210.11665,16.720804,-58.67872
-2.744994,4.3084445,-6.836452,194.49162,8.783585,-58.046337
-2.6097682,4.804304,-6.297866,177.86688,1.7731687,-58.29479
-2.307522,4.9441595,-5.7586436,161.47102,-4.31742,-58.632256
-1.8751104,4.764804,-5.2308435,146.30072,-9.202378,-58.117138
-1.346258,4.344429,-4.7038636,132.702,-12.5268545,-57.028038
-0.8543139,3.8665626,-4.2129135,120.77827,-14.0076275,-55.503895
-0.46443126,3.3849819,-3.7877018,110.69424,-14.2259865,-54.068382
-0.19655578,2.910559,-3.4278367,102.763275,-13.513105,-53.150528
-0.043798715,2.4767873,-3.1261172,96.742775,-12.2065935,-52.007763
0.0027463902,2.1652637,-2.8822098,91.202156,-10.850342,-50.406853
0.019939806,1.9372721,-2.6682594,86.12866,-9.47366,-48.57255
0.02496465,1.7595809,-2.480735,81.51483,-8.113011,-46.76214
0.03639663,1.6139834,-2.3143823,77.006454,-6.8038025,-45.07319
0.06335736,1.4521228,-2.1721177,72.673615,-5.3572316,-43.50246
0.11981222,1.2542157,-2.0576138,68.670845,-3.66747,-41.878723
0.19504239,1.0400056,-1.9680631,64.96921,-1.5580223,-40.067398
0.27962375,0.79017866,-1.9148566,61.772953,0.9486335,-38.061005
0.35690764,0.5166447,-1.9162794,59.51873,3.5006862,-35.534363
0.40819824,0.22871655,-1.9853325,58.407974,5.3997583,-32.61598
0.5206417,-0.17559518,-2.1278925,59.14483,7.506325,-29.866518
0.67186886,-0.6279585,-2.3451092,62.0543,10.000898,-26.696846
0.794442,-0.93745244,-2.632768,66.315475,12.5610895,-23.165258
0.7866418,-1.0318966,-2.961741,70.9395,14.366952,-19.608479
0.66160816,-0.9196957,-3.2737925,75.29143,14.646353,-16.22966
0.4316917,-0.5815673,-3.5135093,79.12965,14.066927,-13.267247
0.12432078,-0.06822144,-3.6572535,81.86047,12.946494,-10.414072
-0.2870214,0.6811562,-3.702746,82.535095,11.17312,-8.549885
-0.7541289,1.5107005,-3.6766574,80.83141,8.371196,-7.9855504
-1.136216,2.257291,-3.5834417,75.69249,3.7446008,-8.335592
-1.2124528,2.707852,-3.3883405,68.86987,-1.3304712,-8.895416
-1.0017681,2.8535762,-3.1108005,61.57743,-5.7029915,-9.470301
-0.58800524,2.7524533,-2.766846,55.332306,-8.007346,-10.357741
-0.17471085,2.5390456,-2.437403,50.505886,-8.338368,-11.126193
0.13773961,2.3033397,-2.1455362,46.24002,-7.581236,-10.4024935
0.34637606,2.1157804,-1.8478271,41.449165,-5.947551,-8.666408
0.48047873,1.9849323,-1.5479364,35.364483,-2.9764752,-5.9398837
0.4645616,1.9191762,-1.4966569,34.19294,-2.8778718,-5.7431097
0.44923043,1.8558407,-1.4472651,33.064526,-2.782898,-5.553579
0.43445826,1.7948145,-1.3996743,31.977253,-2.691387,-5.370959
0.4202198,1.7359933,-1.3538029,30.929268,-2.6031826,-5.194937
0.40649143,1.6792792,-1.3095748,29.918823,-2.5181377,-5.025221
0.39325085,1.6245804,-1.2669183,28.944283,-2.436115,-4.8615355
0.38047716,1.5718104,-1.225766,28.004107,-2.3569844,-4.703622
0.36815065,1.5208875,-1.1860541,27.096842,-2.280624,-4.551236
0.3562527,1.4717352,-1.147723,26.22112,-2.2069182,-4.404148
0.34476572,1.4242808,-1.110716,25.37565,-2.1357586,-4.262141
0.33367312,1.3784555,-1.0749794,24.559208,-2.067042,-4.12501
0.32295918,1.3341945,-1.0404629,23.770634,-2.0006714,-3.9925597
0.312609,1.2914363,-1.0071181,23.008833,-1.9365537,-3.8646061
0.30260837,1.2501222,-0.9748996,22.272762,-1.874602,-3.7409744
0.29294392,1.2101969,-0.9437641,21.561434,-1.8147324,-3.6214983
0.28360286,1.1716075,-0.91367036,20.873907,-1.7568663,-3.50602
0.274573,1.1343038,-0.8845793,20.209286,-1.7009281,-3.3943892
0.2658428,1.0982379,-0.8564536,19.56672,-1.646846,-3.2864625
0.25740117,1.0633643,-0.82925755,18.945393,-1.5945517,-3.1821034
0.24923758,1.0296392,-0.80295736,18.344532,-1.5439799,-3.0811818
0.24134198,0.99702126,-0.7775204,17.763395,-1.4950682,-2.983573
0.23370475,0.9654706,-0.7529159,17.201275,-1.4477569,-2.8891582
0.22631666,0.93494934,-0.72911406,16.657494,-1.4019891,-2.7978234
0.21916893,0.9054209,-0.7060865,16.131401,-1.3577102,-2.7094603
0.21225311,0.8768506,-0.6838062,15.62238,-1.3148681,-2.6239638
0.20556113,0.84920496,-0.6622469,15.129832,-1.2734125,-2.5412347
0.19908522,0.82245195,-0.64138377,14.653189,-1.2332954,-2.4611766
0.19281794,0.7965609,-0.62119275,14.191901,-1.1944709,-2.383698
0.18675217,0.7715022,-0.60165095,13.745444,-1.1568944,-2.3087103
0.18088102,0.74724764,-0.58273613,13.313313,-1.1205239,-2.2361288
0.17519793,0.7237699,-0.5644272,12.895022,-1.0853182,-2.1658719
0.16969655,0.70104283,-0.54670364,12.490107,-1.0512382,-2.0978615
0.16437078,0.6790412,-0.52954584,12.098116,-1.018246,-2.032022
0.15921475,0.6577409,-0.51293486,11.718618,-0.9863054,-1.9682809
0.15422283,0.63711846,-0.49685264,11.3512,-0.95538133,-1.9065686
0.14938956,0.6171515,-0.48128152,10.99546,-0.9254402,-1.8468177
0.14470972,0.5978184,-0.4662047,10.651011,-0.8964495,-1.7889637
0.14017826,0.5790982,-0.45160592,10.317484,-0.868378,-1.7329438
0.13579032,0.56097096,-0.43746948,9.99452,-0.84119546,-1.6786982
0.1315412,0.54341716,-0.4237803,9.681774,-0.814873,-1.6261687
0.12742637,0.52641815,-0.41052374,9.378912,-0.7893824,-1.5752994
0.12344148,0.50995594,-0.39768577,9.085613,-0.7646967,-1.5260364
0.1195823,0.49401307,-0.38525283,8.801568,-0.74078983,-1.4783276
0.11584478,0.4785728,-0.37321183,8.526476,-0.7176366,-1.4321228
0.11222498,0.46361884,-0.3615501,8.26005,-0.6952126,-1.3873733
0.10871912,0.44913557,-0.35025543,8.002009,-0.67349446,-1.3440323
0.10532353,0.4351079,-0.339316,7.752085,-0.65245944,-1.3020546
0.10203469,0.42152113,-0.32872048,7.5100174,-0.6320857,-1.2613965
0.098849155,0.40836123,-0.3184578,7.275554,-0.6123519,-1.2220156
0.095763646,0.3956145,-0.30851737,7.048453,-0.59323776,-1.1838713
0.092774965,0.3832678,-0.29888886,6.8284783,-0.5747234,-1.1469239
0.08988003,0.37130836,-0.28956237,6.615403,-0.5567898,-1.1111354
0.087075844,0.35972384,-0.28052828,6.409008,-0.53941846,-1.0764688
0.084359534,0.34850234,-0.27177727,6.2090807,-0.5225914,-1.0428888
0.08172832,0.33763236,-0.2633004,6.015416,-0.5062915,-1.0103605
0.07917948,0.32710275,-0.25508893,5.8278155,-0.490502,-0.97885066
0.07671043,0.31690273,-0.24713449,5.6460867,-0.47520667,-0.94832724
0.07431864,0.30702186,-0.23942897,5.4700446,-0.46038997,-0.91875887
0.07200166,0.29745004,-0.23196445,5.299509,-0.44603673,-0.8901154
0.06975713,0.28817758,-0.22473338,5.134306,-0.4321323,-0.8623676
0.06758278,0.27919495,-0.21772835,4.974268,-0.41866258,-0.83548725
0.06547638,0.2704931,-0.21094225,4.8192315,-0.40561384,-0.80944705
0.06343579,0.26206312,-0.2043682,4.6690392,-0.3929728,-0.78422046
0.061458956,0.2538965,-0.1979995,4.5235386,-0.38072667,-0.7597819
0.059543855,0.24598493,-0.19182973,4.382582,-0.368863,-0.73610663
0.057688557,0.2383204,-0.18585259,4.2460275,-0.35736975,-0.71317065
0.05589118,0.23089513,-0.18006206,4.1137357,-0.3462353,-0.6909507
0.0541499,0.22370166,-0.17445226,3.9855733,-0.33544844,-0.66942424
0.052462965,0.21673267,-0.16901754,3.8614104,-0.3249982,-0.64856964
0.05082867,0.20998113,-0.1637524,3.741122,-0.31487405,-0.6283658
0.04924536,0.20344023,-0.15865153,3.6245863,-0.30506575,-0.60879225
0.047711443,0.19710338,-0.15370977,3.5116858,-0.2955634,-0.58982927
0.046225365,0.19096418,-0.14892215,3.4023068,-0.28635743,-0.5714578
0.044785637,0.18501642,-0.14428383,3.296339,-0.27743858,-0.5536592
0.0433908,0.17925413,-0.13979015,3.1936753,-0.2687978,-0.53641564
0.042039454,0.17367151,-0.13543658,3.0942128,-0.2604265,-0.5197097
0.040730234,0.16826293,-0.13121873,2.997851,-0.25231612,-0.5035246
0.03946183,0.16302295,-0.12713237,2.904493,-0.2444586,-0.48784402
0.03823296,0.1579463,-0.12317338,2.814045,-0.23684599,-0.47265223
0.03704239,0.15302788,-0.11933778,2.726416,-0.22947064,-0.4579339
0.035888925,0.14826274,-0.115621716,2.641518,-0.22232515,-0.44367427
0.034771405,0.14364609,-0.11202145,2.5592656,-0.21540232,-0.429859
0.03368871,0.1391733,-0.108533375,2.4795763,-0.2086952,-0.41647425
0.032639746,0.13483986,-0.10515398,2.40237,-0.20219707,-0.40350652
0.031623464,0.13064145,-0.10187987,2.327569,-0.19590141,-0.3909428
0.030638848,0.12657383,-0.09870777,2.2550986,-0.18980189,-0.37877056
0.029684901,0.12263294,-0.09563449,2.1848857,-0.18389237,-0.36697745
0.028760673,0.11881481,-0.09265695,2.1168602,-0.17816696,-0.35555175
0.027865233,0.11511561,-0.08977215,2.0509534,-0.17261988,-0.34448195
0.026997685,0.11153164,-0.08697721,1.9870996,-0.16724558,-0.33375695
0.02615716,0.10805929,-0.08426932,1.9252348,-0.16203867,-0.32336602
0.025342813,0.1046951,-0.08164578,1.8652967,-0.15699394,-0.3132987
0.024553828,0.101435676,-0.07910394,1.8072253,-0.15210633,-0.30354494
0.023789413,0.09827776,-0.07664127,1.7509626,-0.14737093,-0.29409492
0.023048807,0.095218204,-0.07425529,1.6964519,-0.14278302,-0.2849392
0.022331262,0.092253916,-0.07194361,1.6436388,-0.13833797,-0.27606863
0.021636063,0.08938194,-0.069703914,1.5924704,-0.13403134,-0.2674743
0.020962512,0.086599395,-0.06753397,1.5428953,-0.12985882,-0.25914755
0.020309934,0.0839035,-0.06543159,1.4948639,-0.12581623,-0.25108013
0.019677678,0.08129155,-0.06339467,1.4483281,-0.12189951,-0.24326389
0.019065108,0.07876092,-0.061421186,1.4032414,-0.118104756,-0.23569103
0.018471612,0.0763091,-0.059509147,1.3595585,-0.114428155,-0.22835398
0.017896594,0.07393361,-0.05765664,1.3172357,-0.110866025,-0.22124536
0.01733948,0.07163209,-0.055861812,1.2762307,-0.10741481,-0.21435808
0.016799713,0.06940222,-0.054122865,1.2365024,-0.10407105,-0.20768523
0.016276749,0.06724178,-0.052438058,1.1980109,-0.1008314,-0.20122014
0.015770068,0.06514861,-0.05080571,1.160718,-0.0976926,-0.19495635
0.015279163,0.063120596,-0.04922418,1.124586,-0.094651535,-0.18888755
0.01480354,0.061155725,-0.04769189,1.089579,-0.09170514,-0.1830077
0.014342725,0.059252027,-0.046207305,1.0556618,-0.08885048,-0.17731091
0.013896257,0.057407595,-0.044768937,1.0228006,-0.08608469,-0.17179148
0.013463688,0.055620585,-0.043375347,0.9909623,-0.08340501,-0.16644387
0.0130445855,0.053889208,-0.042025145,0.9601153,-0.08080875,-0.16126275
0.01263853,0.05221173,-0.040716976,0.9302286,-0.078293316,-0.15624292
0.012245116,0.050586477,-0.03944953,0.9012723,-0.07585619,-0.15137936
0.011863949,0.049011815,-0.03822154,0.8732174,-0.073494926,-0.14666721
0.011494648,0.04748618,-0.03703178,0.8460359,-0.07120718,-0.14210176
0.011136844,0.04600803,-0.03587906,0.8197006,-0.06899065,-0.13767843
0.010790178,0.0445759,-0.034762222,0.79418504,-0.066843115,-0.1333928
0.010454304,0.043188352,-0.033680152,0.76946384,-0.06476244,-0.12924057
0.010128885,0.041844,-0.032631766,0.7455122,-0.06274653,-0.12521762
0.0098135965,0.040541492,-0.031616017,0.72230613,-0.06079338,-0.12131988
0.009508123,0.03927953,-0.030631885,0.6998225,-0.05890103,-0.11754349
0.009212159,0.038056858,-0.02967839,0.6780388,-0.057067584,-0.11388465
0.008925407,0.03687224,-0.028754575,0.6569331,-0.055291217,-0.1103397
0.008647582,0.035724506,-0.02785952,0.63648444,-0.05357014,-0.10690511
