ax,ay,az,gx,gy,gz
-0.81818926,-3.8627625,-5.950963,-84.007126,-5.7155066,-11.541014
-0.9777155,-3.5131488,-5.5712366,-79.57592,-24.250784,-5.547529
-0.51471066,-3.4604247,-4.7651844,-65.51694,-23.39608,-9.277662
0.024774512,-3.4064631,-4.1281495,-57.949947,-15.681192,-14.567059
0.4371924,-3.6492577,-3.7895398,-54.0186,-7.4810405,-17.100086
0.7449718,-3.9836702,-3.7048852,-48.604168,-1.2836022,-16.785309
1.0025985,-4.376788,-3.836496,-42.93887,4.3616323,-14.799073
1.0491452,-4.918811,-4.242585,-34.79701,8.622624,-12.647919
1.0167505,-5.50468,-4.8152137,-25.066038,9.979415,-9.435039
1.0657756,-6.0860877,-5.441492,-13.130066,9.963888,-5.787865
1.1725967,-6.7145686,-6.163117,6.2896667,9.31349,-2.1509814
1.2336279,-7.0076127,-6.893255,27.317616,7.838075,3.0929017
1.1009823,-6.5148606,-7.4576864,46.71543,5.1399884,9.24985
0.78342485,-5.4168534,-7.808151,62.040726,0.68065286,13.976082
0.42963693,-3.955103,-7.830197,72.25632,-4.8603277,18.001945
0.12239542,-2.1020684,-7.4526744,74.84976,-11.076401,20.664385
-0.059727453,0.07369844,-6.586332,72.05823,-16.13887,20.122772
-0.17221475,2.06525,-5.618663,64.50635,-19.517792,16.228773
-0.21948123,3.5814729,-4.7651057,53.091713,-21.613703,10.308927
-0.17493694,4.460694,-4.1623845,39.097965,-23.363457,4.153137
0.011627174,4.692039,-3.7664454,24.635761,-24.97451,-1.7373953
0.39665142,4.186066,-3.492783,12.70223,-25.572569,-7.415042
0.8459902,3.3086708,-3.2562773,4.027514,-24.438133,-11.942364
1.2434645,2.288171,-3.0882573,-1.9191667,-22.259357,-14.721884
1.5509584,1.2131836,-2.99817,-5.249524,-19.668957,-15.510818
1.7530057,0.12546177,-2.9945164,-4.807289,-17.054274,-14.561193
1.9009647,-0.92670804,-3.1018827,-1.5952656,-14.456061,-12.055965
2.0268116,-1.8725847,-3.3060565,4.5283957,-11.703654,-8.351011
2.1330152,-2.6328957,-3.6050897,13.364616,-8.602768,-3.6098046
2.1413288,-3.0874395,-4.0103307,23.823006,-5.9033113,1.4084792
2.0026994,-3.1524012,-4.436187,34.284622,-5.0951276,7.563379
1.7267176,-2.4682386,-4.7146144,42.354095,-6.0053782,13.215932
1.405603,-1.3418474,-4.77202,47.068607,-7.6678615,17.030106
1.0511773,-0.005851403,-4.638084,48.00617,-9.511003,18.881945
0.69944024,1.3579952,-4.4170694,45.077564,-11.725266,18.506565
0.4306849,2.443446,-4.1879015,38.318855,-14.736622,16.235695
0.39034036,2.9653018,-3.9891489,30.001762,-18.119846,13.36393
0.5934044,2.9535558,-3.7971659,22.379778,-20.704464,10.284707
0.95871216,2.4714763,-3.614055,17.23807,-21.867783,7.7822614
1.3680762,1.5911021,-3.4316998,16.009642,-21.016832,6.163084
1.6747353,0.66586304,-3.21788,18.793362,-17.816257,7.179663
1.7679378,0.30536392,-2.940924,22.45424,-14.431672,8.610141
1.7436881,0.25332683,-2.6156602,26.011787,-11.461577,8.983301
1.6821876,0.24439189,-2.5234046,25.094341,-11.0573225,8.666456
1.6233094,0.23583794,-2.4350832,24.216017,-10.670306,8.363123
1.5668995,0.2276426,-2.350464,23.374512,-10.299514,8.072505
1.5128165,0.21978529,-2.2693357,22.567719,-9.944016,7.7938747
1.4609301,0.21224713,-2.1915023,21.793694,-9.602959,7.5265617
1.4111207,0.2050107,-2.1167846,21.050652,-9.275552,7.269948
1.3632773,0.1980599,-2.0450158,20.336939,-8.961068,7.0234637
1.3172976,0.19137989,-1.9760431,19.65103,-8.658835,6.7865815
1.2730868,0.18495683,-1.9097235,18.991507,-8.36823,6.5588117
1.2305566,0.17877795,-1.8459251,18.357054,-8.088671,6.3397
1.1896249,0.17283131,-1.7845247,17.746449,-7.81962,6.128825
1.1502155,0.16710582,-1.7254075,17.15855,-7.560574,5.9257913
1.1122568,0.1615911,-1.6684667,16.592295,-7.3110647,5.7302322
1.075682,0.15627745,-1.6136019,16.046684,-7.070653,5.541803
1.0404289,0.15115578,-1.5607196,15.520789,-6.8389273,5.3601823
1.0064386,0.1462176,-1.5097317,15.013732,-6.615503,5.1850677
0.97365606,0.14145488,-1.4605554,14.524693,-6.4000173,5.0161757
0.9420295,0.1368601,-1.4131132,14.052897,-6.19213,4.8532386
0.91151005,0.13242617,-1.3673319,13.597618,-5.9915204,4.696006
0.88205165,0.1281464,-1.3231422,13.158168,-5.7978854,4.544239
0.85361093,0.12401446,-1.280479,12.733897,-5.610939,4.3977156
0.8261466,0.12002438,-1.2392805,12.324193,-5.430411,4.256222
0.7996198,0.11617051,-1.1994883,11.928474,-5.2560453,4.119559
0.77399355,0.11244748,-1.1610471,11.546191,-5.0875998,3.987535
0.7492329,0.108850196,-1.1239042,11.176819,-4.9248433,3.8599706
0.72530454,0.10537383,-1.08801,10.819863,-4.767558,3.736694
0.7021768,0.10201379,-1.0533167,10.474852,-4.6155353,3.6175425
0.6798197,0.09876569,-1.0197793,10.141335,-4.468578,3.5023608
0.6582044,0.09562538,-0.9873549,9.818885,-4.3264966,3.3910012
0.63730365,0.092588864,-0.9560022,9.507094,-4.189112,3.2833226
0.6170913,0.089652374,-0.9256822,9.205573,-4.056253,3.1791906
0.59754246,0.08681227,-0.8963575,8.913949,-3.9277546,3.0784771
0.5786333,0.08406511,-0.8679924,8.631868,-3.8034613,2.981059
0.560341,0.08140757,-0.8405526,8.35899,-3.683223,2.8868191
0.54264385,0.078836486,-0.81400555,8.094989,-3.5668962,2.795645
0.52552086,0.07634882,-0.7883198,7.839554,-3.4543438,2.7074292
0.5089521,0.07394167,-0.7634654,7.592386,-3.345434,2.6220684
0.49291825,0.07161225,-0.7394135,7.3531985,-3.2400408,2.539464
0.47740102,0.069357865,-0.7161365,7.1217175,-3.1380432,2.4595208
0.46238264,0.06717596,-0.69360787,6.8976784,-3.0393248,2.3821478
0.4478462,0.06506408,-0.67180216,6.680828,-2.9437742,2.3072574
0.43377534,0.063019834,-0.65069485,6.4709234,-2.8512838,2.2347658
0.4201544,0.06104095,-0.6302624,6.26773,-2.7617507,2.164592
0.4069682,0.059125233,-0.61048216,6.071023,-2.6750758,2.0966582
0.39420232,0.05727058,-0.5913324,5.8805857,-2.5911632,2.0308897
0.38184273,0.05547495,-0.5727921,5.6962094,-2.5099213,1.9672145
0.369876,0.053736392,-0.5548411,5.517693,-2.4312618,1.905563
0.35828912,0.052053027,-0.53745997,5.344844,-2.3550992,1.8458686
0.3470696,0.050423034,-0.5206299,5.1774745,-2.2813513,1.7880667
0.33620542,0.04884466,-0.5043328,5.015406,-2.209939,1.7320956
0.32568493,0.047316223,-0.48855132,4.858465,-2.1407862,1.6778953
0.31549698,0.045836095,-0.47326863,4.7064843,-2.0738187,1.6254079
0.3056307,0.0444027,-0.4584685,4.5593023,-2.008966,1.5745779
0.29607573,0.04301453,-0.4441353,4.416764,-1.9461592,1.5253516
0.28682193,0.041670118,-0.43025392,4.278719,-1.8853325,1.477677
0.2778596,0.040368054,-0.4168098,4.145022,-1.8264215,1.4315041
0.2691794,0.039106973,-0.40378883,4.015533,-1.7693648,1.3867844
0.2607722,0.037885558,-0.39117745,3.8901174,-1.7141029,1.3434715
0.2526293,0.036702536,-0.3789625,3.7686439,-1.6605781,1.3015201
0.2447422,0.03555668,-0.36713123,3.6509867,-1.6087347,1.2608865
0.23710273,0.034446806,-0.3556715,3.5370235,-1.5585191,1.2215289
0.22970301,0.033371758,-0.34457135,3.426637,-1.5098795,1.1834062
0.22253537,0.032330427,-0.3338194,3.3197124,-1.4627653,1.1464794
0.21559246,0.031321745,-0.3234045,3.21614,-1.4171282,1.1107101
0.20886712,0.030344673,-0.313316,3.1158135,-1.3729213,1.0760618
0.20235243,0.029398205,-0.30354348,3.0186296,-1.3300991,1.0424988
0.19604175,0.028481374,-0.29407698,2.9244888,-1.2886178,1.0099869
0.18992858,0.02759324,-0.2849068,2.8332944,-1.2484349,0.97849244
0.18400669,0.026732896,-0.27602354,2.7449536,-1.2095094,0.9479835
0.17827006,0.025899464,-0.26741815,2.6593764,-1.1718013,0.91842896
0.1727128,0.025092093,-0.25908187,2.576475,-1.1352725,0.8897985
0.16732928,0.024309963,-0.2510062,2.4961653,-1.0998856,0.86206317
0.16211401,0.023552278,-0.2431829,2.4183655,-1.0656047,0.83519465
0.1570617,0.022818267,-0.23560405,2.3429966,-1.0323949,0.80916566
0.1521672,0.022107184,-0.22826196,2.269982,-1.0002226,0.78394973
0.14742558,0.02141831,-0.22114918,2.199248,-0.969055,0.75952137
0.14283201,0.020750947,-0.21425849,2.1307228,-0.93886065,0.7358558
0.13838185,0.02010442,-0.20758294,2.0643368,-0.90960896,0.712929
0.1340706,0.01947807,-0.20111573,2.000023,-0.8812703,0.6907179
0.1298939,0.018871268,-0.19485037,1.937716,-0.85381603,0.66919994
0.12584752,0.018283403,-0.1887805,1.8773534,-0.8272185,0.6483534
0.12192737,0.017713876,-0.1829,1.818874,-0.80145067,0.62815726
0.118129514,0.017162114,-0.17720294,1.7622188,-0.7764867,0.6085911
0.11445012,0.016627563,-0.17168356,1.7073307,-0.75230134,0.5896352
0.11088546,0.016109683,-0.16633633,1.6541543,-0.7288702,0.57127047
0.10743197,0.015607951,-0.16115583,1.6026361,-0.7061698,0.5534784
0.104086146,0.015121863,-0.15613686,1.5527242,-0.6841771,0.5362411
0.10084464,0.01465093,-0.15127435,1.5043683,-0.66287005,0.51954114
0.09770417,0.014194676,-0.14656343,1.4575199,-0.6422272,0.5033618
0.09466159,0.013752643,-0.14199933,1.4121317,-0.6222278,0.48768675
0.091713846,0.013324388,-0.13757749,1.3681581,-0.6028517,0.47250026
0.08885796,0.012909479,-0.13329346,1.325555,-0.58407944,0.45778707
0.08609108,0.0125075,-0.12914293,1.2842795,-0.5658922,0.44353235
0.08341041,0.012118047,-0.12512173,1.2442901,-0.5482717,0.42972183
0.08081327,0.011740728,-0.12122583,1.2055467,-0.53120023,0.4163416
0.07829704,0.011375166,-0.1174513,1.1680105,-0.5146606,0.40337828
0.075859204,0.011020992,-0.11379437,1.1316437,-0.4986363,0.3908188
0.07349732,0.010677852,-0.11025137,1.0964098,-0.48311117,0.3786506
0.071209006,0.0103454,-0.106818736,1.0622734,-0.46806967,0.36686146
0.068991974,0.010023305,-0.10349302,1.0292004,-0.45349672,0.35543954
0.066844,0.009711242,-0.1002709,0.99715763,-0.4393777,0.34437338
0.06476293,0.0094089,-0.09714914,0.96611285,-0.42569843,0.33365193
0.062746674,0.0091159735,-0.09412461,0.936035,-0.41244522,0.32326436
0.06079321,0.008832171,-0.09119427,0.9068939,-0.39960477,0.31320035
0.058900587,0.008557206,-0.0883552,0.8786603,-0.3871642,0.30344975
0.057066906,0.008290805,-0.08560454,0.851306,-0.3751111,0.2940028
0.055290326,0.0080327,-0.08293954,0.8248036,-0.36343333,0.28485006
0.05356907,0.007782632,-0.08035754,0.7991265,-0.3521192,0.27598235
0.05190142,0.0075403517,-0.07785593,0.77424896,-0.3411574,0.26739076
0.05028569,0.007305615,-0.075432226,0.75014603,-0.33053693,0.2590667
0.048720274,0.0070781885,-0.07308399,0.72679365,-0.3202472,0.25100183
0.047203604,0.006857843,-0.070808865,0.70416844,-0.31027782,0.2431881
0.045734156,0.0066443584,-0.06860459,0.6822477,-0.3006189,0.23561765
0.04431046,0.006437521,-0.06646894,0.66100943,-0.2912607,0.22828293
0.042931095,0.006237123,-0.06439979,0.6404325,-0.28219384,0.22117656
0.041594673,0.006042965,-0.062395062,0.6204962,-0.2734093,0.21429147
0.040299863,0.005854852,-0.060452748,0.6011806,-0.26489827,0.20762074
0.039045364,0.005672596,-0.058570907,0.58246636,-0.25665224,0.20115769
0.03782992,0.005496014,-0.056747656,0.5643348,-0.24866292,0.19489585
0.03665232,0.0053249295,-0.05498117,0.5467677,-0.24092233,0.18882897
0.035511382,0.0051591713,-0.053269677,0.52974755,-0.23342274,0.18295097
0.03440596,0.0049985736,-0.05161147,0.51325727,-0.22615662,0.17725597
0.03333496,0.0048429756,-0.05000488,0.49728036,-0.21911672,0.17173827
0.032297295,0.004692222,-0.048448313,0.48180085,-0.21229596,0.16639234
0.031291936,0.0045461613,-0.0469402,0.46680322,-0.20568757,0.16121283
0.030317876,0.0044046477,-0.045479037,0.4522725,-0.19928488,0.15619457
0.02937414,0.0042675394,-0.044063363,0.43819413,-0.19308153,0.15133254
0.028459782,0.0041346992,-0.04269176,0.42455402,-0.1870713,0.14662185
0.027573887,0.0040059946,-0.041362856,0.41133854,-0.18124816,0.14205782
0.026715573,0.0038812968,-0.040075317,0.39853445,-0.1756063,0.13763587
0.025883976,0.0037604808,-0.038827863,0.38612896,-0.17014006,0.13335158
0.025078267,0.0036434256,-0.03761924,0.37410966,-0.16484399,0.12920065
0.02429764,0.0035300143,-0.03644824,0.3624645,-0.15971278,0.12517893
0.023541313,0.0034201334,-0.035313696,0.35118186,-0.1547413,0.12128241
0.02280853,0.003313673,-0.034214467,0.34025043,-0.14992459,0.11750719
0.022098556,0.0032105267,-0.033149455,0.32965928,-0.14525782,0.11384948
0.021410685,0.0031105913,-0.032117598,0.31939784,-0.14073631,0.110305645
