ax,ay,az,gx,gy,gz
-1.7527431,-4.715497,-4.941863,-71.91156,31.683018,34.013947
-2.5433242,-3.7704263,-5.227332,-57.53962,13.068397,21.471455
-2.8767266,-2.9943671,-5.109269,-46.696556,3.0856733,9.502858
-3.0229437,-2.5435865,-4.8624372,-45.141403,-3.512057,1.8421276
-2.8343284,-2.238038,-4.4590535,-47.95217,-6.877526,1.9723257
-2.5236497,-2.0720456,-4.1320367,-51.662758,-9.456433,4.746876
-2.022727,-2.3861816,-3.8816879,-46.449535,-9.892547,3.6685889
-1.1016319,-3.093531,-3.6296418,-32.397785,-6.2333446,-0.4203949
-0.18046069,-3.8367147,-3.5072508,-15.347281,0.42361838,-3.8521314
0.49702543,-4.512451,-3.6510665,1.2256612,8.245789,-3.9695747
0.9273952,-4.975334,-4.051025,15.993035,15.270462,-1.082931
1.0845045,-5.2677093,-4.616015,31.515594,20.217596,2.3756819
0.7977088,-5.165761,-5.1601033,46.4374,23.749119,6.055586
0.19391854,-4.4352436,-5.536812,58.722767,25.187433,9.408678
-0.55318063,-3.0899,-5.650432,67.00683,24.3561,11.190074
-1.2194798,-1.5531095,-5.488843,70.159706,21.117928,11.588852
-1.6576537,-0.15888506,-5.0781155,67.476204,16.360184,10.778259
-1.7695994,0.87111926,-4.509385,61.998062,11.746567,8.906219
-1.6665267,1.4700567,-3.951773,54.95837,8.008476,6.939018
-1.4267279,1.7067547,-3.4769328,47.738434,5.607296,5.0367045
-1.1628505,1.6690459,-3.116268,41.542564,4.3187714,2.8835099
-0.91501045,1.4555498,-2.8442752,36.865498,3.8634098,1.0013237
-0.73656744,1.1504319,-2.65331,33.017353,3.4822898,-0.24482569
-0.56517035,0.8009458,-2.495524,29.998,3.5535336,-0.7683493
-0.3973789,0.40340456,-2.403813,28.11097,4.079223,-0.7203811
-0.23505127,-0.0891287,-2.4229276,27.996702,5.0120463,-0.40543473
-0.11415112,-0.6722693,-2.5926383,31.38888,5.7372513,0.5554638
-0.064510375,-1.1989596,-2.924736,36.646667,5.831272,2.5291464
-0.12727556,-1.4937338,-3.3170595,42.654095,5.230562,5.061771
-0.34385595,-1.4862326,-3.7120461,48.651268,3.6110783,7.5451612
-0.6629638,-1.1912246,-4.034915,53.638275,0.98433393,9.601198
-1.0294926,-0.74029887,-4.2741704,58.21827,-2.758547,10.318172
-1.3157808,-0.09611428,-4.3652906,62.129356,-6.917913,9.936969
-1.4947242,0.73902446,-4.307355,63.91408,-11.18603,9.081227
-1.6063472,1.6354169,-4.140272,62.564983,-15.741123,8.245019
-1.6419613,2.4246454,-3.903588,58.39113,-20.670277,7.194966
-1.5134425,2.967107,-3.6017435,52.207397,-25.389626,5.3553634
-1.1176617,3.0776105,-3.2055027,46.46764,-28.754084,3.1981542
-0.64330155,2.9504309,-2.7924545,41.68531,-30.574007,1.309416
-0.16625385,2.6903229,-2.383633,37.237408,-31.141068,0.417928
0.2844795,2.344837,-1.9832479,32.448505,-30.20142,0.6569241
0.6836712,1.953131,-1.5885499,27.118122,-26.23683,1.638287
0.6593599,1.8836778,-1.5320612,26.153805,-25.30385,1.5800296
0.636104,1.8172396,-1.4780247,25.231348,-24.411371,1.5243012
0.61383975,1.7536346,-1.4262924,24.348228,-23.556952,1.4709493
0.59250885,1.692696,-1.376729,23.50213,-22.73835,1.4198339
0.57205784,1.6342709,-1.3292098,22.690931,-21.953514,1.370827
0.5524375,1.5782189,-1.2836208,21.912682,-21.200556,1.3238106
0.5336025,1.5244106,-1.2398566,21.165583,-20.477736,1.278676
0.515511,1.4727261,-1.1978198,20.447973,-19.783447,1.2353232
0.49812415,1.423055,-1.1574206,19.758318,-19.116205,1.1936591
0.48140624,1.3752948,-1.1185755,19.095194,-18.474632,1.1535977
0.4653238,1.3293501,-1.081207,18.457277,-17.857447,1.1150594
0.44984588,1.2851324,-1.0452431,17.843338,-17.26346,1.0779694
0.43494356,1.242559,-1.0106168,17.252232,-16.691563,1.0422589
0.4205898,1.2015527,-0.977265,16.682882,-16.140717,1.0078628
0.4067594,1.1620418,-0.9451293,16.134295,-15.609957,0.974721
0.39342874,1.1239583,-0.9141547,15.605528,-15.098374,0.9427766
0.38057563,1.0872391,-0.8842897,15.095703,-14.605118,0.9119765
0.3681792,1.0518247,-0.8554859,14.603993,-14.129388,0.88227093
0.35621992,1.0176591,-0.82769775,14.129622,-13.670433,0.8536127
0.34467927,0.98468935,-0.8008824,13.671857,-13.227545,0.8259578
0.33353984,0.952866,-0.7749993,13.230007,-12.800055,0.7992643
0.32278523,0.9221419,-0.7500103,12.803421,-12.387331,0.77349293
0.31239983,0.8924726,-0.7258793,12.3914795,-11.988777,0.7486063
0.30236897,0.86381614,-0.702572,11.993601,-11.603828,0.72456926
0.29267865,0.8361326,-0.6800559,11.60923,-11.231949,0.7013483
0.28331563,0.80938405,-0.6583004,11.237842,-10.87263,0.6789116
0.27426735,0.78353465,-0.6372762,10.878937,-10.52539,0.6572291
0.2655218,0.75855017,-0.6169554,10.532042,-10.189768,0.63627213
0.25706765,0.73439807,-0.5973117,10.196704,-9.865328,0.61601335
0.24889404,0.7110475,-0.5783198,9.872493,-9.551654,0.59642684
0.2409906,0.6884687,-0.5599557,9.559,-9.248348,0.57748777
0.23334748,0.6666336,-0.5421965,9.255833,-8.955033,0.5591725
0.22595526,0.6455153,-0.52502024,8.962617,-8.671347,0.5414585
0.21880494,0.6250881,-0.50840604,8.678996,-8.396943,0.52432406
0.21188788,0.60532725,-0.49233386,8.404628,-8.131492,0.50774866
0.20519584,0.58620924,-0.47678456,8.139185,-7.8746753,0.4917125
0.19872095,0.5677116,-0.46173975,7.8823557,-7.626192,0.47619668
0.1924556,0.5498126,-0.44718185,7.633838,-7.385751,0.46118298
0.18639258,0.5324915,-0.43309402,7.393345,-7.1530733,0.44665405
0.18052487,0.5157285,-0.41946006,7.1605997,-6.927892,0.43259323
0.17484581,0.49950442,-0.40626445,6.9353375,-6.7099504,0.41898447
0.16934898,0.48380095,-0.39349225,6.7173033,-6.4990025,0.40581238
0.16402821,0.46860042,-0.38112915,6.506253,-6.2948103,0.39306217
0.15887757,0.4538859,-0.3691613,6.30195,-6.097147,0.38071963
0.15389134,0.43964112,-0.35757554,6.104169,-5.9057937,0.3687711
0.14906403,0.42585033,-0.34635898,5.912692,-5.720539,0.3572034
0.14439037,0.41249847,-0.33549947,5.7273088,-5.5411806,0.34600386
0.13986525,0.39957097,-0.3249851,5.547818,-5.367523,0.3351603
0.13548379,0.38705388,-0.31480446,5.374025,-5.199378,0.3246609
0.13124123,0.37493363,-0.30494666,5.205742,-5.036564,0.31449443
0.12713303,0.3631972,-0.29540104,5.042789,-4.8789067,0.30464995
0.12315481,0.35183212,-0.2861574,4.8849907,-4.726237,0.2951169
0.119302325,0.34082624,-0.2772059,4.73218,-4.5783925,0.28588516
0.115571484,0.33016786,-0.2685371,4.5841947,-4.435216,0.2769449
0.111958355,0.31984577,-0.26014176,4.4408784,-4.296557,0.26828673
0.108459115,0.30984902,-0.2520111,4.302079,-4.162269,0.25990146
0.10507009,0.3001672,-0.2441365,4.1676526,-4.032211,0.25178033
0.101787746,0.2907901,-0.23650979,4.0374565,-3.9062462,0.24391483
0.09860865,0.28170794,-0.22912295,3.9113562,-3.7842436,0.23629673
0.09552948,0.2729113,-0.22196832,3.7892196,-3.6660762,0.22891809
0.092547044,0.264391,-0.21503846,3.67092,-3.5516212,0.22177126
0.08965825,0.2561382,-0.20832619,3.5563347,-3.4407597,0.21484882
0.08686011,0.2481444,-0.20182455,3.4453452,-3.3333774,0.2081436
0.08414974,0.24040133,-0.19552682,3.337837,-3.229363,0.20164871
0.081524335,0.232901,-0.18942656,3.2336993,-3.1286094,0.19535744
0.078981206,0.22563572,-0.18351744,3.132825,-3.0310133,0.18926333
0.07651774,0.21859802,-0.17779344,3.0351105,-2.9364743,0.1833601
0.07413141,0.21178068,-0.17224866,2.9404554,-2.8448956,0.1776417
0.071819775,0.20517674,-0.16687743,2.8487635,-2.7561834,0.17210232
0.069580466,0.19877943,-0.16167428,2.7599404,-2.6702468,0.16673625
0.06741121,0.19258222,-0.15663387,2.6738956,-2.5869985,0.16153803
0.06530978,0.18657881,-0.15175109,2.5905416,-2.5063534,0.15650237
0.06327405,0.18076308,-0.14702095,2.5097935,-2.4282293,0.15162413
0.061301943,0.17512912,-0.14243865,2.431569,-2.3525472,0.14689836
0.059391454,0.16967118,-0.13799952,2.3557887,-2.2792294,0.14232025
0.057540648,0.16438374,-0.13369906,2.2823756,-2.2082021,0.13788514
0.055747647,0.15926144,-0.12953292,2.2112553,-2.1393933,0.13358855
0.05401063,0.15429908,-0.12549685,2.142356,-2.072733,0.12942612
0.052327845,0.14949165,-0.1215868,2.0756073,-2.0081537,0.12539364
0.050697584,0.14483428,-0.11779879,2.0109422,-1.94559,0.12148704
0.0491182,0.14032225,-0.114129,1.9482954,-1.884979,0.11770235
0.047588095,0.13595101,-0.110573724,1.8876032,-1.8262593,0.11403575
0.04610573,0.13171615,-0.10712936,1.8288045,-1.7693714,0.11048355
0.044669606,0.12761338,-0.103792444,1.77184,-1.7142581,0.10704215
0.043278277,0.12363859,-0.1005596,1.7166522,-1.6608639,0.10370809
0.041930333,0.11978775,-0.097427584,1.6631855,-1.6091348,0.10047801
0.040624425,0.116057,-0.09439322,1.6113861,-1.5590187,0.097348645
0.039359234,0.11244256,-0.09145348,1.5612016,-1.5104651,0.094316855
0.038133483,0.10894081,-0.08860538,1.5125817,-1.4634254,0.09137959
0.036945947,0.10554822,-0.08584607,1.4654775,-1.4178519,0.08853388
0.035795424,0.10226137,-0.08317275,1.4198415,-1.3736991,0.08577687
0.034680758,0.099076964,-0.08058277,1.3756279,-1.3309222,0.083105795
0.033600833,0.095991805,-0.0780735,1.3327922,-1.2894785,0.080517955
0.03255456,0.09300278,-0.07564242,1.2912912,-1.2493265,0.07801077
0.03154089,0.090106905,-0.0732871,1.2510836,-1.2104254,0.0755817
0.030558804,0.08730125,-0.071005166,1.2121286,-1.1727365,0.073228315
0.029607316,0.084583014,-0.06879433,1.1743875,-1.1362219,0.07094826
0.028685471,0.08194946,-0.06665237,1.1378222,-1.1008447,0.068739235
0.027792346,0.079397954,-0.06457714,1.1023958,-1.0665698,0.06659903
0.02692704,0.076925926,-0.06256655,1.0680732,-1.0333625,0.06452549
0.02608869,0.0745309,-0.060618594,1.0348196,-1.0011897,0.06251655
0.025276452,0.072210476,-0.058731314,1.0026019,-0.9700189,0.060570173
0.024489515,0.06996233,-0.056902815,0.97138757,-0.93981904,0.058684427
0.023727085,0.067784205,-0.055131268,0.9411455,-0.9105598,0.05685741
0.022988401,0.06567391,-0.053414892,0.91184527,-0.8822118,0.0550873
0.022272723,0.063629344,-0.051751975,0.88345754,-0.85474664,0.053372312
0.021579333,0.061648443,-0.050140843,0.85595393,-0.82813686,0.051710736
0.020907536,0.059729237,-0.048579883,0.8293068,-0.8023557,0.050100904
0.020256659,0.057869792,-0.04706753,0.80348945,-0.7773774,0.048541203
0.019626051,0.056068253,-0.045602277,0.7784761,-0.7531769,0.04703007
0.01901508,0.05432281,-0.044182647,0.7542416,-0.72973,0.045565993
0.01842313,0.052631717,-0.04280722,0.73076177,-0.7070132,0.044147503
0.017849615,0.050993282,-0.04147462,0.708013,-0.68500376,0.04277318
0.017293956,0.04940586,-0.040183518,0.6859725,-0.6636796,0.041441653
0.0167556,0.047867868,-0.038932614,0.6646184,-0.6430194,0.04015158
0.016234005,0.04637776,-0.037720658,0.64392906,-0.6230024,0.03890168
0.015728649,0.044934046,-0.036546435,0.6238839,-0.6036087,0.03769069
0.015239027,0.04353528,-0.035408773,0.60446286,-0.58481884,0.036517408
0.014764651,0.04218007,-0.034306526,0.58564645,-0.5666139,0.035380654
0.014305042,0.040867046,-0.0332386,0.5674159,-0.5489758,0.03427929
0.013859743,0.039594904,-0.032203924,0.5497529,-0.5318869,0.03321222
0.013428307,0.038362365,-0.031201456,0.5326398,-0.5153299,0.032178365
0.0130103035,0.037168197,-0.0302302,0.5160595,-0.49928844,0.031176697
0.012605312,0.03601121,-0.02928918,0.49999535,-0.48374635,0.030206215
0.012212929,0.034890242,-0.028377455,0.48443133,-0.46868813,0.029265946
0.0118327625,0.033804167,-0.027494114,0.46935183,-0.45409867,0.028354947
0.01146443,0.032751907,-0.026638273,0.45474178,-0.43996343,0.02747231
0.011107565,0.031732403,-0.025809076,0.44058654,-0.4262682,0.026617149
0.010761809,0.030744636,-0.02500569,0.42687196,-0.41299933,0.02578861
0.010426816,0.02978762,-0.024227316,0.41358432,-0.40014353,0.024985865
0.010102252,0.028860396,-0.023473172,0.40071034,-0.38768792,0.02420811
0.009787791,0.027962036,-0.022742504,0.38823712,-0.37562007,0.023454566
0.0094831195,0.027091641,-0.022034582,0.3761522,-0.36392787,0.022724478
0.009187932,0.026248343,-0.021348696,0.36444345,-0.35259965,0.022017118
0.008901934,0.025431294,-0.020684164,0.3530992,-0.34162405,0.021331778
0.008624839,0.024639681,-0.020040317,0.3421081,-0.33099014,0.020667773
0.008356369,0.023872709,-0.019416511,0.33145913,-0.32068726,0.020024437
0.008096256,0.023129614,-0.018812126,0.32114166,-0.31070507,0.019401127
