ax,ay,az,gx,gy,gz
-1.2181929,1.6354694,-1.440013,18.921082,-9.6546335,-21.418377
-0.9407972,1.2254841,-1.2989726,5.9506583,-16.59979,-17.378233
-0.51783854,0.91767377,-1.0168576,-5.085024,-17.409065,-15.0562105
-0.18028836,0.70354694,-0.840631,-11.998385,-12.116309,-18.886175
-0.008770935,0.29086828,-0.9588912,-16.21833,-6.7871604,-23.493279
0.13285051,-0.38679105,-1.3077619,-13.1909685,-4.118609,-28.019217
0.31399274,-1.2337644,-1.6299313,-3.5290513,-1.0219115,-32.557198
0.5144304,-1.9620266,-1.9229923,9.071452,3.4017606,-36.266323
0.6271445,-2.4839017,-2.2694879,23.90254,8.344114,-40.313595
0.62030447,-3.0039608,-2.7158349,39.791134,12.803995,-44.868065
0.61738455,-3.4878767,-3.1543374,56.523403,17.08645,-48.066936
0.56505644,-3.7851157,-3.5516467,72.7871,20.29958,-48.327038
0.48328218,-3.7360446,-3.8396327,85.80949,21.857569,-45.749443
0.3981282,-3.4447582,-4.013379,94.73128,21.701223,-40.844067
0.33279696,-3.002295,-4.061496,101.358635,21.327726,-35.84663
0.2711299,-2.5418115,-4.073705,106.66406,20.590988,-31.341627
0.2073493,-2.0905848,-4.0660305,111.49715,19.867748,-27.218384
0.10650481,-1.4601307,-4.0063353,114.20463,18.855042,-22.879076
-0.054470457,-0.667126,-3.8939848,112.53444,16.579376,-18.267456
-0.27831456,0.15862963,-3.7039776,108.8273,13.826023,-14.701516
-0.4952791,0.92404914,-3.487696,104.00603,10.875815,-12.504538
-0.6665163,1.6314716,-3.2704296,98.76075,8.021423,-11.855621
-0.81378573,2.2641852,-3.08016,92.94993,5.147082,-12.370019
-0.94948804,2.7621028,-2.9134617,86.108116,2.0195372,-13.82271
-1.0577825,3.0157866,-2.765889,78.71091,-1.6825262,-15.611529
-1.0725607,3.066285,-2.5949538,71.54333,-5.6554313,-17.63459
-0.9592021,2.9523535,-2.3820226,64.71351,-9.407702,-19.608013
-0.7115068,2.6887228,-2.129187,58.772137,-12.377665,-21.156965
-0.3923815,2.3188589,-1.8516321,54.243572,-13.4979,-22.093649
-0.13850702,1.8683771,-1.6228164,51.26393,-13.286293,-22.62949
-0.012460442,1.4832442,-1.4507865,49.30766,-12.64758,-22.721079
0.018807516,1.2172903,-1.3064709,47.514954,-12.25218,-22.231178
-0.0056774295,1.0693623,-1.1720227,45.37889,-12.287031,-21.253546
-0.027520109,0.99310076,-1.0227189,42.87164,-12.259841,-20.238077
-0.017713448,0.94451404,-0.86090374,40.571487,-11.698407,-19.68677
0.0073297373,0.8883332,-0.7208493,38.23392,-10.717141,-19.29499
0.061894927,0.7975469,-0.61612487,35.34271,-9.637724,-18.352837
0.16956617,0.6341383,-0.5446285,32.1994,-8.4632225,-16.886871
0.33236256,0.3594205,-0.51319474,30.283272,-6.540078,-15.1779585
0.5277201,-0.05265423,-0.57176596,29.943676,-3.9553158,-12.987051
0.700576,-0.50831485,-0.7198193,31.3699,-1.0365858,-9.876115
0.8388382,-0.86941737,-0.9356978,34.16365,1.7592245,-6.1063867
0.9032785,-1.0401257,-1.1882906,37.799664,4.0645657,-2.9526708
0.8677161,-1.0988113,-1.4862802,42.17765,5.2924857,-0.28891844
0.6889413,-1.0146406,-1.8186393,46.401016,5.585777,2.4877026
0.42672056,-0.80643165,-2.1377254,50.58942,5.048064,5.0779014
0.1231278,-0.44544885,-2.39657,54.082596,3.8478732,7.420123
-0.20078538,0.09976502,-2.5736988,56.322327,1.9469883,8.875925
-0.53375846,0.7589197,-2.6579223,56.410175,-1.188808,8.977017
-0.8291089,1.4059902,-2.6370735,54.752136,-5.177546,8.281533
-0.99561685,1.9342611,-2.548773,51.386284,-9.677895,6.9749875
-0.988716,2.2668161,-2.403156,46.715984,-14.318519,5.5343485
-0.8103646,2.3880234,-2.2079194,41.6258,-18.440178,4.089343
-0.4941906,2.3128822,-1.9700606,37.106606,-20.83758,2.7412946
-0.13193344,2.0544243,-1.7273985,33.606716,-21.70216,1.7264526
0.16520888,1.7406,-1.5208297,31.158188,-21.447218,1.2968255
0.37927237,1.4276626,-1.3435285,29.62582,-20.511156,1.3645709
0.5067171,1.1834176,-1.186267,28.630907,-18.916817,1.8079362
0.552235,1.0406381,-1.0510718,27.364542,-16.908987,2.3390791
0.53424716,1.0067416,-1.0168355,26.473202,-16.358213,2.262889
0.51689357,0.9740404,-0.9838063,25.61329,-15.826861,2.1893852
0.50014746,0.94248384,-0.9519334,24.783484,-15.31411,2.1184545
0.48398364,0.9120245,-0.9211686,23.982527,-14.819185,2.0499897
0.46837813,0.8826173,-0.89146656,23.209236,-14.341357,1.9838902
0.45330837,0.8542197,-0.86278427,22.462496,-13.879934,1.9200599
0.43875307,0.82679147,-0.83508104,21.741245,-13.434262,1.8584086
0.4246919,0.80029446,-0.8083184,21.044481,-13.003721,1.7988502
0.41110566,0.7746924,-0.7824597,20.371252,-12.587722,1.7413036
0.39797613,0.74995095,-0.75747013,19.720654,-12.185706,1.6856914
0.3852859,0.7260373,-0.7333168,19.091824,-11.797142,1.6319399
0.3730185,0.7029205,-0.7099681,18.483944,-11.421523,1.5799793
0.36115813,0.6805707,-0.68739426,17.896235,-11.058369,1.5297428
0.34968984,0.6589597,-0.66556656,17.327955,-10.707219,1.4811671
0.3385993,0.63806057,-0.6444579,16.77839,-10.367636,1.4341913
0.3278728,0.61784744,-0.6240421,16.246868,-10.039199,1.3887576
0.3174973,0.5982957,-0.60429436,15.7327385,-9.72151,1.3448105
0.3074603,0.5793818,-0.58519083,15.235381,-9.414185,1.3022971
0.29774982,0.5610833,-0.56670886,14.754204,-9.116858,1.2611668
0.2883544,0.5433785,-0.5488265,14.288639,-8.829178,1.221371
0.27926308,0.52624667,-0.5315229,13.838141,-8.550809,1.1828632
0.27046528,0.509668,-0.514778,13.402191,-8.281427,1.1455988
0.26195094,0.49362347,-0.49857265,12.980285,-8.020725,1.109535
0.25371033,0.4780948,-0.48288825,12.571944,-7.7684045,1.0746306
0.24573417,0.46306437,-0.46770716,12.176705,-7.5241804,1.0408462
0.23801345,0.4485154,-0.4530123,11.7941265,-7.2877784,1.0081439
0.2305396,0.43443155,-0.43878725,11.4237795,-7.058935,0.9764872
0.22330432,0.42079732,-0.4250163,11.065254,-6.837397,0.945841
0.21629965,0.40759763,-0.4116843,10.718156,-6.6229196,0.91617167
0.20951793,0.39481807,-0.3987766,10.382106,-6.4152684,0.8874465
0.20295174,0.38244468,-0.38627914,10.056736,-6.214217,0.85963446
0.196594,0.37046406,-0.3741784,9.741694,-6.0195484,0.8327052
0.19043782,0.3588633,-0.36246133,9.436642,-5.8310513,0.8066298
0.18447663,0.34762993,-0.35111535,9.141251,-5.6485243,0.7813802
0.17870402,0.33675197,-0.34012833,8.855205,-5.471772,0.75692934
0.17311387,0.32621783,-0.32948855,8.578199,-5.300606,0.73325133
0.16770023,0.3160163,-0.31918475,8.30994,-5.134845,0.710321
0.16245738,0.3061366,-0.309206,8.050145,-4.974313,0.6881141
0.1573798,0.29656836,-0.29954183,7.798539,-4.8188415,0.6666072
0.15246215,0.2873015,-0.29018205,7.554858,-4.6682673,0.64577776
0.14769931,0.27832633,-0.28111687,7.3188477,-4.522433,0.6256039
0.14308627,0.26963344,-0.27233687,7.0902605,-4.381185,0.6060647
0.13861823,0.26121384,-0.26383284,6.8688593,-4.2443776,0.5871396
0.13429056,0.25305873,-0.25559595,6.654413,-4.111868,0.5688091
0.13009878,0.24515967,-0.24761769,6.4467,-3.9835188,0.55105406
0.12603852,0.23750849,-0.23988982,6.2455053,-3.8591974,0.5338563
0.122105636,0.23009731,-0.2324043,6.050621,-3.7387753,0.51719785
0.11829604,0.22291847,-0.22515349,5.861847,-3.6221287,0.50106174
0.11460583,0.21596459,-0.21812989,5.678988,-3.5091374,0.48543125
0.11103121,0.20922853,-0.2113263,5.5018573,-3.3996854,0.4702904
0.10756852,0.20270339,-0.20473574,5.330273,-3.2936606,0.4556236
0.104214214,0.19638251,-0.19835147,5.164059,-3.1909544,0.4414159
0.10096487,0.1902594,-0.19216697,5.0030465,-3.0914621,0.42765278
0.09781716,0.18432781,-0.18617593,4.84707,-2.995082,0.41432014
0.094767876,0.17858171,-0.18037221,4.695971,-2.9017155,0.40140444
0.09181393,0.17301525,-0.17474994,4.549596,-2.8112679,0.38889253
0.088952295,0.16762276,-0.16930339,4.4077954,-2.723647,0.37677163
0.08618008,0.16239877,-0.16402702,4.270426,-2.6387641,0.36502948
0.08349447,0.15733796,-0.15891548,4.137347,-2.5565329,0.35365412
0.08089273,0.15243521,-0.15396357,4.0084248,-2.4768696,0.34263405
0.078372225,0.14768556,-0.14916629,3.8835282,-2.399694,0.33195806
0.07593042,0.14308418,-0.14451876,3.7625306,-2.3249276,0.32161537
0.07356482,0.13862643,-0.14001632,3.64531,-2.252495,0.31159553
0.07127305,0.13430779,-0.13565439,3.5317473,-2.182323,0.30188838
0.06905279,0.13012391,-0.13142855,3.4217284,-2.1143405,0.29248413
0.06690181,0.12607056,-0.12733456,3.315142,-2.048479,0.28337327
0.06481792,0.12214365,-0.12336829,3.2118802,-1.984672,0.27454662
0.06279902,0.118339226,-0.119525716,3.1118393,-1.922855,0.26599526
0.06084309,0.11465344,-0.11580298,3.014918,-1.862966,0.2577106
0.058948148,0.11108259,-0.112196326,2.9210193,-1.8049444,0.24968427
0.057112288,0.10762308,-0.10870213,2.830048,-1.7487319,0.24190821
0.055333663,0.10427141,-0.10531686,2.741913,-1.6942718,0.23437455
0.053610485,0.10102423,-0.102037124,2.6565256,-1.6415095,0.22707576
0.051941015,0.09787827,-0.098859616,2.5737994,-1.5903918,0.22000445
0.05032358,0.09483036,-0.09578114,2.4936516,-1.5408672,0.21315354
0.04875655,0.09187742,-0.092798606,2.4160018,-1.4928861,0.20651615
0.047238357,0.08901652,-0.08990902,2.3407717,-1.4464002,0.20008558
0.045767467,0.08624476,-0.08710947,2.2678857,-1.4013627,0.1938554
0.04434241,0.083559364,-0.08439715,2.1972706,-1.3577286,0.18781935
0.042961754,0.080957636,-0.08176933,2.1288557,-1.315454,0.18197134
0.041624106,0.07843696,-0.07922339,2.0625725,-1.2744963,0.17630555
0.040328134,0.07599481,-0.07675675,1.9983538,-1.2348148,0.17081624
0.039072532,0.073628746,-0.074366964,1.9361359,-1.1963692,0.16549794
0.037856042,0.07133637,-0.07205161,1.8758559,-1.1591213,0.1603453
0.036677442,0.06911541,-0.06980838,1.8174535,-1.1230335,0.15535316
0.035535555,0.06696362,-0.067635015,1.7608703,-1.0880698,0.15051651
0.03442923,0.06487885,-0.06552934,1.7060493,-1.054195,0.1458305
0.033357363,0.06285901,-0.06348925,1.6529357,-1.0213754,0.14129043
0.032318875,0.060902074,-0.061512694,1.6014763,-0.9895778,0.13689175
0.03131273,0.059006084,-0.05959769,1.5516195,-0.9587704,0.13263007
0.03033792,0.057169136,-0.057742327,1.5033152,-0.9289225,0.12850109
0.029393464,0.055389393,-0.055944737,1.4565152,-0.90000397,0.1245007
0.028478418,0.053665068,-0.054203127,1.4111725,-0.87198603,0.12062488
0.027591866,0.05199444,-0.052515745,1.3672417,-0.8448405,0.11686974
0.026732918,0.05037583,-0.05088091,1.324679,-0.8185403,0.11323154
0.025900718,0.04880762,-0.049296975,1.2834414,-0.79305893,0.10970662
0.025094429,0.04728824,-0.04776236,1.243488,-0.768371,0.10629145
0.024313243,0.045816164,-0.046275526,1.2047784,-0.74445176,0.10298262
0.023556381,0.044389926,-0.04483499,1.1672741,-0.7212773,0.09977681
0.022823086,0.043008093,-0.043439303,1.1309376,-0.69882435,0.096670814
0.02211262,0.041669283,-0.042087067,1.0957323,-0.67707044,0.093661524
0.021424273,0.040372156,-0.040776934,1.0616231,-0.6559939,0.090745926
0.020757359,0.03911541,-0.03950759,1.0285759,-0.63557345,0.0879211
0.020111207,0.037897795,-0.038277768,0.99655753,-0.6157888,0.08518422
0.01948517,0.036718085,-0.03708623,0.965536,-0.5966201,0.08253255
0.018878624,0.035575103,-0.03593179,0.93548024,-0.57804817,0.07996342
0.018290963,0.034467705,-0.03481329,0.90636015,-0.5600544,0.07747429
0.017721595,0.033394784,-0.033729605,0.87814665,-0.54262084,0.07506264
0.017169952,0.03235526,-0.032679662,0.8508115,-0.52573,0.07272607
0.016635483,0.0313481,-0.031662405,0.8243273,-0.50936496,0.07046224
0.016117653,0.030372296,-0.030676816,0.79866755,-0.49350944,0.06826889
0.015615942,0.029426867,-0.029721906,0.77380663,-0.47814748,0.06614381
0.01512985,0.02851087,-0.028796727,0.7497197,-0.46326375,0.064084895
0.014658891,0.027623389,-0.027900346,0.7263825,-0.44884333,0.06209007
0.014202592,0.026763534,-0.02703187,0.7037718,-0.43487185,0.060157344
0.013760498,0.025930446,-0.02619043,0.68186504,-0.42133528,0.058284782
0.013332167,0.025123293,-0.025375184,0.6606402,-0.4082201,0.056470513
0.012917168,0.024341265,-0.024585316,0.64007604,-0.39551318,0.054712724
0.012515089,0.023583582,-0.023820035,0.62015206,-0.38320184,0.05300965
0.012125525,0.022849483,-0.023078578,0.60084826,-0.37127373,0.051359594
0.0117480885,0.022138238,-0.0223602,0.5821454,-0.35971692,0.0497609
