ax,ay,az,gx,gy,gz
-0.048182257,3.136392,-3.097301,-25.412958,21.751108,-17.700161
-0.7570783,2.8231666,-3.379226,-25.664076,12.085447,-27.00596
-0.92542243,2.0284476,-3.460914,-22.24237,6.365266,-35.182392
-0.7737831,1.1360143,-3.6621668,-12.778018,5.314976,-40.25618
-0.61262536,-0.03126181,-4.057539,-2.5253057,6.650755,-44.982258
-0.48195034,-1.6240588,-4.7252016,19.245438,9.600488,-50.860912
-0.227332,-3.5080502,-5.6591797,47.014534,12.054471,-54.93522
0.053195525,-4.9103475,-6.5584207,74.64747,12.234742,-52.83318
0.29679906,-5.4859257,-7.2074046,99.21976,11.119962,-46.207153
0.4308812,-5.068875,-7.445231,118.05554,8.986083,-38.919624
0.4375148,-4.010492,-7.2368326,129.22978,5.500658,-32.038647
0.36889255,-2.3647518,-6.471979,133.987,2.6499655,-26.670301
0.18548042,-0.3860242,-5.4202776,130.66347,0.96471,-22.775633
-0.12520774,1.5260869,-4.367433,120.87706,-0.7435545,-20.529701
-0.4495418,3.0145645,-3.511003,107.641396,-2.805265,-20.226088
-0.6957597,3.973319,-2.8903832,92.16783,-5.04709,-21.731236
-0.75070953,4.332535,-2.5416775,77.382,-7.077881,-23.869343
-0.6752613,4.4061484,-2.311417,64.097595,-8.644228,-26.290598
-0.5248712,4.258901,-2.1402245,52.784702,-9.616919,-28.978668
-0.3407836,3.9374661,-2.0146928,43.302555,-9.87036,-31.730568
-0.15352918,3.4188995,-1.9601684,35.600224,-9.589253,-33.64307
0.017075319,2.635091,-2.0116389,30.119793,-9.034593,-34.431084
0.17798121,1.7507615,-2.11394,27.091959,-8.145315,-34.00145
0.35471293,0.8148699,-2.2714214,26.73533,-6.8856173,-32.394817
0.54174745,-0.18737033,-2.5149977,30.043743,-5.150942,-29.931522
0.7245599,-1.1773205,-2.8640316,38.6737,-3.1499193,-26.378443
0.9030673,-1.9680725,-3.3403273,49.98646,-1.4608202,-21.47785
1.0492384,-2.36787,-3.8104725,62.453354,-0.26855385,-15.137278
1.099656,-2.1869643,-4.1996636,74.07293,0.27394593,-9.756906
1.0324392,-1.5934058,-4.438427,83.17216,0.3087667,-5.2390747
0.7877417,-0.6853669,-4.543562,87.695114,-0.9856054,-1.7840322
0.41768494,0.52380574,-4.437951,88.06567,-3.4984984,0.65532076
0.066596255,1.7345988,-4.2145576,84.88075,-6.8563724,1.5890701
-0.21847779,2.760229,-3.9513938,79.0589,-10.472764,0.7544454
-0.41236323,3.471797,-3.7172801,71.56562,-14.22596,-1.2825154
-0.47923705,3.8185406,-3.533807,62.796104,-18.415829,-3.5902753
-0.26655295,3.6605363,-3.3431518,54.55052,-22.248564,-5.4051704
0.14593701,3.2236805,-3.0839,47.829052,-24.571705,-6.1543508
0.5856126,2.7063427,-2.7855039,42.355858,-25.474825,-5.832214
0.9050285,2.2303174,-2.4659739,36.830013,-24.942799,-3.6259751
1.0474243,1.8399729,-2.167749,29.941092,-23.820974,0.71280044
0.9986962,1.5988845,-1.9178084,21.668327,-23.354006,6.162911
0.91350543,1.478056,-1.6518983,12.36161,-23.749823,12.031757
0.8812857,1.4259243,-1.5936351,11.9256115,-22.912157,11.607392
0.8504399,1.3760157,-1.5378563,11.5082035,-22.11021,11.201123
0.8208872,1.3281993,-1.484416,11.1082945,-21.341883,10.811885
0.7925535,1.2823552,-1.43318,10.724881,-20.605247,10.438703
0.7653706,1.2383732,-1.384025,10.357041,-19.898531,10.080677
0.73927575,1.1961516,-1.3368375,10.003924,-19.220102,9.736983
0.714211,1.1555966,-1.2915126,9.664746,-18.568455,9.406856
0.6901226,1.1166215,-1.2479534,9.33878,-17.94219,9.089587
0.66696084,1.0791457,-1.20607,9.025354,-17.34002,8.784525
0.64467955,1.0430945,-1.1657785,8.723843,-16.760738,8.491058
0.6232358,1.0083984,-1.1270015,8.433664,-16.203232,8.208623
0.6025894,0.9749925,-1.0896667,8.154277,-15.666456,7.936691
0.5827032,0.9428164,-1.0537062,7.8851743,-15.149441,7.674769
0.56354195,0.91181344,-1.0190568,7.6258836,-14.651278,7.422397
0.5450731,0.8819307,-0.9856594,7.375962,-14.171113,7.179144
0.5272658,0.8531185,-0.95345837,7.1349926,-13.70815,6.944605
0.51009125,0.82533,-0.92240155,6.902586,-13.261637,6.7183995
0.49352235,0.7985214,-0.89243984,6.678374,-12.830869,6.5001707
0.47753343,0.77265126,-0.863527,6.4620113,-12.41518,6.289581
0.46210042,0.7476806,-0.8356194,6.2531705,-12.013944,6.0863132
0.4472005,0.72357243,-0.80867577,6.051544,-11.626568,5.8900666
0.43281215,0.70029205,-0.7826572,5.85684,-11.252491,5.700558
0.41891494,0.6778063,-0.75752676,5.668782,-10.891184,5.5175185
0.40548956,0.65608394,-0.73324955,5.487109,-10.542143,5.340693
0.39251763,0.6350953,-0.7097923,5.311572,-10.204891,5.16984
0.37998173,0.6148122,-0.6871236,5.141936,-9.878977,5.00473
0.3678653,0.59520775,-0.66521335,4.9779754,-9.563967,4.8451447
0.35615256,0.57625645,-0.64403313,4.8194776,-9.259452,4.6908765
0.34482846,0.55793405,-0.62355566,4.6662393,-8.965042,4.541727
0.3338787,0.5402173,-0.6037552,4.518067,-8.680365,4.397508
0.3232896,0.52308404,-0.5846068,4.3747745,-8.405064,4.2580395
0.31304812,0.5065133,-0.56608707,4.236186,-8.138799,4.123149
0.30314174,0.4904847,-0.5481733,4.1021323,-7.8812475,3.9926724
0.29355857,0.4749791,-0.530844,3.9724522,-7.6320987,3.8664525
0.28428712,0.4599779,-0.5140784,3.8469906,-7.391055,3.7443388
0.27531654,0.4454634,-0.49785677,3.7255998,-7.157832,3.626187
0.26663625,0.4314187,-0.48216018,3.6081378,-6.932158,3.5118597
0.25823626,0.41782746,-0.4669704,3.4944687,-6.71377,3.4012234
0.2501069,0.40467408,-0.45227003,3.3844614,-6.502418,3.2941518
0.2422389,0.39194363,-0.43804225,3.2779913,-6.2978616,3.1905224
0.23462336,0.37962165,-0.42427102,3.1749372,-6.0998683,3.0902183
0.22725172,0.36769435,-0.41094086,3.075184,-5.908217,2.9931269
0.22011581,0.35614836,-0.39803693,2.9786203,-5.722693,2.89914
0.21320766,0.34497097,-0.3855449,2.885139,-5.543092,2.808153
0.20651971,0.33414984,-0.37345102,2.7946372,-5.3692145,2.720066
0.20004462,0.3236731,-0.36174205,2.7070158,-5.2008715,2.6347828
0.19377533,0.31352937,-0.35040525,2.6221793,-5.0378785,2.55221
0.18770504,0.30370763,-0.33942834,2.540036,-4.88006,2.4722586
0.18182722,0.2941973,-0.32879943,2.460497,-4.7272453,2.394842
0.17613555,0.28498814,-0.31850713,2.383477,-4.5792704,2.3198771
0.17062396,0.27607036,-0.3085405,2.3088937,-4.4359765,2.247284
0.16528656,0.26743442,-0.29888883,2.2366676,-4.297212,2.1769853
0.1601177,0.25907117,-0.28954193,2.1667223,-4.162829,2.1089063
0.15511191,0.25097176,-0.28048992,2.0989835,-4.0326858,2.042975
0.1502639,0.24312769,-0.27172327,2.0333803,-3.9066446,1.9791222
0.14556862,0.23553069,-0.26323274,1.9698433,-3.7845738,1.9172807
0.14102112,0.22817281,-0.25500944,1.9083062,-3.6663454,1.8573856
0.13661665,0.22104637,-0.24704483,1.8487047,-3.5518358,1.7993746
0.13235064,0.21414393,-0.23933057,1.7909768,-3.4409256,1.743187
0.12821865,0.20745835,-0.23185866,1.7350624,-3.3334997,1.6887646
0.124216385,0.20098269,-0.22462136,1.6809037,-3.2294466,1.6360509
0.12033972,0.19471022,-0.21761115,1.6284444,-3.128659,1.5849916
0.11658466,0.1886345,-0.21082084,1.5776305,-3.0310328,1.5355337
0.112947315,0.18274927,-0.2042434,1.5284098,-2.9364672,1.4876262
0.10942395,0.17704846,-0.19787209,1.4807315,-2.8448648,1.4412202
0.10601096,0.17152621,-0.19170034,1.4345467,-2.756132,1.3962677
0.10270483,0.16617689,-0.18572186,1.3898079,-2.6701775,1.3527228
0.09950219,0.160995,-0.1799305,1.3464696,-2.5869133,1.3105409
0.09639976,0.15597525,-0.17432036,1.3044873,-2.5062547,1.2696788
0.09339438,0.15111253,-0.1688857,1.2638183,-2.428119,1.230095
0.09048297,0.14640187,-0.16362098,1.224421,-2.3524265,1.191749
0.087662585,0.14183846,-0.15852085,1.1862553,-2.2791007,1.1546017
0.08493034,0.13741767,-0.15358011,1.1492825,-2.2080662,1.1186154
0.08228347,0.13313504,-0.14879377,1.1134648,-2.1392515,1.0837536
0.07971928,0.12898616,-0.14415693,1.0787661,-2.0725863,1.0499808
0.077235185,0.124966875,-0.13966492,1.0451511,-2.0080032,1.0172627
0.07482865,0.12107309,-0.13531315,1.0125858,-1.9454367,0.98556626
0.07249724,0.11730087,-0.13109726,0.981037,-1.8848236,0.9548594
0.070238605,0.11364639,-0.12701295,0.950473,-1.8261024,0.92511094
0.06805046,0.110105954,-0.12305611,0.9208629,-1.7692137,0.8962909
0.06593059,0.106676,-0.11922274,0.8921767,-1.7141001,0.8683702
0.06387686,0.103353046,-0.11550896,0.8643855,-1.660706,0.8413205
0.06188719,0.100133754,-0.11191103,0.8374612,-1.6089776,0.8151146
0.05995958,0.097014874,-0.10842532,0.81137663,-1.5588626,0.78972614
0.058092084,0.093993254,-0.105048314,0.7861056,-1.5103103,0.7651294
0.056282822,0.09106586,-0.101776615,0.76162255,-1.4632721,0.7412996
0.05452997,0.08822974,-0.09860692,0.7379028,-1.4177005,0.7182129
0.052831765,0.08548204,-0.095536046,0.7149226,-1.3735496,0.6958459
0.0511865,0.08281999,-0.0925609,0.6926588,-1.330775,0.6741761
0.049592514,0.08024091,-0.08967849,0.6710889,-1.2893338,0.6531818
0.048048213,0.07774223,-0.086885914,0.6501913,-1.2491841,0.6328418
0.046552036,0.075321406,-0.08418037,0.6299449,-1.2102858,0.6131357
0.045102485,0.07297603,-0.08155914,0.61032957,-1.1725996,0.59404373
0.043698102,0.07070373,-0.079019584,0.59132534,-1.1360875,0.5755466
0.042337477,0.06850223,-0.076559156,0.5729133,-1.1007134,0.5576259
0.041019246,0.066369325,-0.07417539,0.55507493,-1.0664412,0.5402635
0.039742082,0.06430287,-0.07186589,0.53779227,-1.0332367,0.523442
0.03850471,0.062300794,-0.06962833,0.521048,-1.0010668,0.5071446
0.037305877,0.06036108,-0.06746048,0.50482535,-0.96989894,0.4913548
0.03614439,0.05848179,-0.06536015,0.48910806,-0.939702,0.47605687
0.03501908,0.056661036,-0.06332525,0.47388032,-0.9104456,0.46123546
0.033928823,0.05489699,-0.061353724,0.45912686,-0.8821004,0.4468757
0.03287252,0.053187888,-0.059443608,0.44483292,-0.8546381,0.43296316
0.031849116,0.05153202,-0.05759298,0.43098417,-0.82803106,0.41948393
0.030857587,0.049927715,-0.055799987,0.41756672,-0.8022527,0.4064245
0.029896934,0.048373375,-0.054062832,0.4045671,-0.7772771,0.39377177
0.028966198,0.04686744,-0.052379776,0.39197233,-0.7530793,0.38151306
0.028064445,0.0454084,-0.05074913,0.37976974,-0.72963506,0.36963612
0.027190773,0.043994796,-0.04916926,0.36794716,-0.70692086,0.358129
0.026344305,0.042625207,-0.047638588,0.35649273,-0.68491393,0.34698018
0.025524195,0.041298267,-0.04615558,0.34539494,-0.6635922,0.33617854
0.024729623,0.040012643,-0.044718746,0.33464274,-0.6429345,0.32571325
0.02395979,0.038767047,-0.043326654,0.3242253,-0.6229199,0.31557378
0.023213927,0.03756024,-0.0419779,0.31413224,-0.60352856,0.30575004
0.022491286,0.036391005,-0.040671147,0.30435342,-0.58474094,0.29623216
0.021791145,0.035258174,-0.039405078,0.29487908,-0.56653833,0.28701064
0.021112803,0.03416061,-0.038178425,0.28569973,-0.5489024,0.2780762
0.02045558,0.033097222,-0.036989965,0.27680615,-0.5318155,0.26941994
0.019818818,0.03206694,-0.035838507,0.26818946,-0.5152607,0.26103318
0.019201882,0.031068733,-0.0347229,0.25984102,-0.49922124,0.2529075
0.018604154,0.030101605,-0.033642016,0.25175253,-0.4836811,0.24503483
0.018025031,0.029164584,-0.03259479,0.24391581,-0.4686248,0.23740725
0.017463941,0.028256735,-0.031580165,0.23632309,-0.45403725,0.23001713
0.016920317,0.02737715,-0.030597126,0.22896674,-0.4399038,0.22285707
0.016393617,0.026524946,-0.02964469,0.22183941,-0.42621037,0.21591993
0.015883313,0.025699275,-0.028721906,0.21493395,-0.4129432,0.20919873
0.015388897,0.024899306,-0.027827848,0.20824347,-0.4000891,0.20268677
0.014909871,0.02412424,-0.026961623,0.20176128,-0.3876351,0.19637755
0.0144457575,0.023373302,-0.026122363,0.19548087,-0.37556887,0.19026472
0.013996093,0.022645742,-0.025309231,0.18939596,-0.3638782,0.18434219
0.0135604255,0.021940831,-0.02452141,0.1835005,-0.3525515,0.17860402
0.01313832,0.021257862,-0.023758115,0.17778854,-0.34157735,0.17304449
0.012729355,0.020596156,-0.023018582,0.1722544,-0.33094487,0.16765803
0.012333121,0.019955046,-0.022302069,0.16689254,-0.32064334,0.16243923
0.011949222,0.019333895,-0.021607859,0.16169758,-0.3106625,0.1573829
0.011577272,0.018732078,-0.020935262,0.15666434,-0.30099237,0.15248397
0.011216901,0.018148998,-0.0202836,0.15178779,-0.29162323,0.14773753
