ax,ay,az,gx,gy,gz
1.1963745,1.1527377,2.1100192,-13.594669,-25.357502,16.59106
0.8450399,0.9841934,1.9413408,-25.670881,-20.5459,20.085917
0.48534334,0.69554377,1.8875852,-26.093298,-17.397327,18.34828
0.5364241,0.47851107,2.2595494,-19.70546,-14.45319,13.169062
0.8601226,0.371864,2.8937857,-9.964675,-7.3986073,7.788859
1.1295198,0.4370895,3.5259926,-4.537984,3.3608193,4.2373033
1.3439647,0.5454067,4.0416675,-1.2419853,13.988174,1.5766813
1.5082142,0.5941139,4.402118,2.9101324,23.796736,-0.845736
1.5920594,0.6219826,4.583447,8.14104,32.450363,-4.0375185
1.6472671,0.65173054,4.674168,11.751124,39.882595,-7.2946754
1.7301639,0.71676856,4.723775,13.883013,47.969975,-10.605139
1.7822725,0.72307765,4.6227365,15.047975,55.96301,-13.188257
1.7429692,0.6685583,4.354601,15.784144,62.701153,-15.286993
1.668499,0.58068097,3.9866982,16.963531,68.04251,-17.319296
1.5735203,0.49092084,3.5458653,18.474033,71.6031,-19.48643
1.4784894,0.40522888,3.098322,19.242966,73.51753,-21.147228
1.3948485,0.34112406,2.6162257,19.234129,74.43918,-22.344519
1.3136894,0.25800708,2.108031,19.192932,74.40362,-23.217987
1.242092,0.18493918,1.5739628,19.382748,73.3861,-23.790854
1.1623683,0.13138774,1.0235217,19.772373,71.35213,-24.360216
1.0788444,0.09348381,0.4748068,19.680681,68.06902,-25.03216
1.0007514,0.039955534,-0.059903547,19.600054,64.20403,-25.65888
0.9197313,-0.010631069,-0.576648,19.424875,59.693836,-25.942827
0.82124114,-0.033654276,-1.0635278,19.046318,54.288494,-26.091442
0.7170344,-0.01869761,-1.5049233,18.146736,48.242817,-26.090048
0.61661005,0.014193504,-1.8862195,16.703632,41.239124,-26.102829
0.53778505,0.06051771,-2.1792011,15.283673,34.003933,-26.243908
0.48569635,0.10858896,-2.3717885,13.418713,26.64489,-26.367512
0.44665048,0.16385764,-2.4552984,11.153392,19.599297,-26.275505
0.4152653,0.22619927,-2.4132504,8.160844,12.888687,-26.186644
0.41036734,0.24023066,-2.2455096,4.6505218,6.728107,-25.744183
0.45498833,0.20124114,-1.9224583,1.3619269,1.4501576,-25.310104
0.5377115,0.13803886,-1.4896965,-1.147446,-2.7359705,-25.220493
0.6615311,0.07680307,-0.97091174,-2.9204633,-5.622453,-25.453274
0.81572497,0.027723067,-0.3961546,-4.466279,-7.049084,-25.87276
0.9547593,-0.035284825,0.16749339,-6.053492,-6.743949,-26.137218
1.0458825,-0.14832507,0.67081463,-7.0941935,-5.2699757,-26.201319
1.1171169,-0.27903846,1.1099741,-7.52706,-2.714513,-26.050138
1.179638,-0.3852415,1.4843144,-7.2037883,1.0576864,-25.942303
1.2124507,-0.44973466,1.760228,-6.248516,5.542852,-26.058279
1.2198204,-0.49043941,1.944941,-4.6853547,10.625841,-26.405373
1.2407755,-0.52758604,2.0377417,-3.429174,15.781664,-26.491592
1.2551852,-0.55476856,2.0525792,-2.8145502,20.761522,-26.241905
1.2431514,-0.57537466,1.9845574,-2.1641793,25.320665,-25.897564
1.2214106,-0.5838668,1.8546494,-1.4689144,29.335073,-25.520935
1.2022492,-0.5715699,1.6669774,-0.7243312,32.52157,-25.251278
1.1660333,-0.54127973,1.4013433,0.04221063,34.858246,-25.211851
1.1334149,-0.5204171,1.116934,0.7964815,36.608044,-25.268208
1.1127055,-0.5139249,0.8261452,1.3540787,37.871613,-24.981056
1.077726,-0.5029763,0.53028935,1.4757932,38.55972,-24.378267
1.0226586,-0.47697335,0.24885911,1.172828,38.486103,-23.685736
0.9472231,-0.4506954,-0.003117992,0.46978164,37.923702,-22.954298
0.8653681,-0.4391467,-0.21768829,-0.4940413,36.877,-22.299608
0.8142977,-0.4321899,-0.37453225,-1.9657477,35.993477,-21.460403
0.78145826,-0.4264194,-0.47783977,-3.6172688,35.365227,-20.581646
0.77523893,-0.41376603,-0.5277762,-5.014605,35.3805,-19.737251
0.7497465,-0.40016,-0.51042116,-4.849708,34.21707,-19.088224
0.72517514,-0.38704565,-0.49369317,-4.690769,33.09568,-18.46265
0.701484,-0.37440103,-0.47756445,-4.537524,32.01446,-17.859484
0.6786347,-0.36220574,-0.46200883,-4.3897243,30.97166,-17.27775
0.6565911,-0.35044047,-0.44700176,-4.247136,29.96563,-16.71653
0.6353192,-0.33908707,-0.43251997,-4.109539,28.994818,-16.174955
0.6147868,-0.3281284,-0.41854173,-3.9767263,28.057756,-15.652209
0.59496367,-0.31754825,-0.4050463,-3.8485012,27.153067,-15.147522
0.57582116,-0.30733138,-0.39201424,-3.7246783,26.279436,-14.660161
0.5573321,-0.29746324,-0.37942702,-3.6050823,25.435627,-14.189437
0.5394707,-0.28793013,-0.36726713,-3.4895465,24.620466,-13.734694
0.5222126,-0.27871904,-0.35551798,-3.3779132,23.832838,-13.29531
0.5055346,-0.26981753,-0.34416375,-3.2700324,23.071684,-12.870695
0.4894147,-0.2612139,-0.33318943,-3.1657612,22.336,-12.460289
0.47383183,-0.2528969,-0.32258075,-3.064964,21.624826,-12.063557
0.45876607,-0.2448559,-0.3123241,-2.9675117,20.937252,-11.679988
0.4441983,-0.2370807,-0.3024065,-2.8732808,20.272408,-11.309099
0.4301104,-0.22956158,-0.29281557,-2.7821534,19.62946,-10.950427
0.41648492,-0.2222893,-0.28353944,-2.6940176,19.007618,-10.603528
0.4033053,-0.21525498,-0.2745669,-2.6087658,18.406124,-10.267981
0.39055565,-0.20845014,-0.26588702,-2.5262952,17.824253,-9.94338
0.3782208,-0.20186669,-0.25748953,-2.4465075,17.261312,-9.629339
0.36628613,-0.19549684,-0.24936453,-2.3693085,16.716635,-9.325488
0.35473773,-0.18933316,-0.24150248,-2.294608,16.189589,-9.031471
0.34356222,-0.18336847,-0.23389429,-2.2223198,15.679558,-8.746947
0.33274677,-0.17759597,-0.22653122,-2.1523604,15.18596,-8.471591
0.32227904,-0.17200905,-0.21940486,-2.0846503,14.708231,-8.205087
0.31214717,-0.16660142,-0.21250719,-2.0191128,14.245832,-7.947134
0.30233985,-0.16136697,-0.20583044,-1.9556743,13.798243,-7.697443
0.29284608,-0.15629989,-0.19936717,-1.8942642,13.3649645,-7.455736
0.28365538,-0.15139456,-0.1931102,-1.8348144,12.945518,-7.2217445
0.2747576,-0.14664558,-0.18705267,-1.7772595,12.539439,-6.9952106
0.266143,-0.14204773,-0.18118793,-1.7215364,12.146285,-6.775887
0.25780222,-0.13759604,-0.1755096,-1.6675843,11.765627,-6.5635343
0.2497262,-0.13328564,-0.17001152,-1.6153449,11.397052,-6.3579226
0.24190626,-0.12911193,-0.16468775,-1.5647619,11.040163,-6.1588297
0.23433396,-0.1250704,-0.15953259,-1.5157807,10.694577,-5.9660425
0.22700122,-0.12115671,-0.15454054,-1.4683492,10.359925,-5.779354
0.21990025,-0.11736673,-0.14970626,-1.4224168,10.03585,-5.5985665
0.2130235,-0.11369642,-0.14502461,-1.3779348,9.722007,-5.423487
0.20636371,-0.1101419,-0.14049068,-1.3348562,9.418066,-5.2539315
0.19991384,-0.10669944,-0.13609967,-1.2931354,9.123706,-5.089721
0.19366714,-0.10336541,-0.13184696,-1.2527289,8.838617,-4.9306827
0.18761706,-0.10013631,-0.12772812,-1.2135942,8.562503,-4.7766504
0.18175729,-0.09700879,-0.12373884,-1.1756904,8.2950735,-4.627463
0.1760817,-0.09397958,-0.11987495,-1.1389781,8.03605,-4.482965
0.17058443,-0.09104553,-0.116132446,-1.1034192,7.7851644,-4.3430066
0.16525975,-0.08820361,-0.112507455,-1.0689766,7.5421553,-4.2074423
0.16010216,-0.085450865,-0.10899621,-1.0356151,7.3067727,-4.076133
0.15510635,-0.08278447,-0.105595104,-1.0032998,7.078773,-3.9489415
0.15026715,-0.080201656,-0.10230063,-0.9719977,6.857921,-3.8257377
0.14557962,-0.07769979,-0.09910939,-0.9416765,6.64399,-3.706395
0.14103891,-0.07527629,-0.09601811,-0.91230506,6.4367604,-3.5907905
0.13664038,-0.072928675,-0.09302363,-0.8838534,6.2360196,-3.4788058
0.13237953,-0.07065454,-0.09012288,-0.8562922,6.041562,-3.3703263
0.128252,-0.06845157,-0.08731289,-0.8295934,5.853189,-3.2652411
0.12425358,-0.066317506,-0.0845908,-0.8037298,5.670708,-3.163443
0.12038019,-0.06425017,-0.08195383,-0.7786749,5.493934,-3.0648284
0.116627894,-0.06224747,-0.079399295,-0.75440335,5.322686,-2.9692965
0.112992875,-0.06030736,-0.0769246,-0.73089033,5.1567903,-2.8767502
0.109471425,-0.05842787,-0.074527234,-0.70811194,4.9960775,-2.7870958
0.10605998,-0.05660709,-0.072204754,-0.68604517,4.840386,-2.700242
0.10275509,-0.05484318,-0.069954805,-0.6646676,4.689556,-2.6161008
0.09955339,-0.053134345,-0.067775115,-0.6439575,4.5434365,-2.534587
0.09645165,-0.05147886,-0.06566348,-0.623894,4.4018784,-2.4556177
0.09344672,-0.049875047,-0.06361774,-0.6044567,4.264739,-2.3791137
0.09053557,-0.048321288,-0.06163586,-0.58562607,4.1318793,-2.304997
0.08771526,-0.04681601,-0.059715815,-0.567383,4.0031657,-2.233193
0.08498293,-0.045357697,-0.057855673,-0.549709,3.8784673,-2.1636293
0.082335845,-0.043944873,-0.056053553,-0.53258646,3.757659,-2.0962355
0.07977132,-0.042576116,-0.054307647,-0.5159979,3.6406186,-2.0309436
0.077286765,-0.041250043,-0.052616183,-0.49992666,3.527228,-1.9676881
0.07487969,-0.03996532,-0.05097747,-0.48435658,3.4173734,-1.906405
0.07254767,-0.038720656,-0.049389843,-0.46927196,3.310944,-1.8470325
0.070288345,-0.037514795,-0.047851715,-0.4546576,3.2078328,-1.7895112
0.06809945,-0.036346525,-0.046361536,-0.44049883,3.1079357,-1.7337829
0.06597879,-0.035214666,-0.044917807,-0.4267814,3.0111523,-1.6797917
0.063924216,-0.034118086,-0.043519072,-0.4134915,2.9173856,-1.6274832
0.061933678,-0.03305568,-0.04216393,-0.40061575,2.826541,-1.576805
0.06000517,-0.032026384,-0.040851016,-0.38814124,2.7385273,-1.5277059
0.058136754,-0.031029161,-0.039579015,-0.37605548,2.6532562,-1.4801369
0.056326553,-0.030063009,-0.038346644,-0.36434627,2.570642,-1.43405
0.054572754,-0.029126959,-0.037152674,-0.3530019,2.4906015,-1.3893989
0.052873593,-0.02822007,-0.0359959,-0.34201092,2.413055,-1.3461391
0.051227365,-0.027341433,-0.034875162,-0.33136234,2.3379242,-1.3042268
0.04963242,-0.026490167,-0.033789337,-0.32104552,2.2651336,-1.2636201
0.048087154,-0.02566542,-0.032737333,-0.31105003,2.1946106,-1.2242785
0.046590023,-0.02486636,-0.031718098,-0.30136588,2.1262844,-1.1861621
0.045139525,-0.024092188,-0.03073061,-0.29198337,2.0600863,-1.149233
0.0437342,-0.023342129,-0.029773878,-0.2828931,1.9959497,-1.1134541
0.042372648,-0.02261543,-0.028846944,-0.27408594,1.9338108,-1.0787895
0.041053496,-0.021911364,-0.027948877,-0.26555306,1.8736072,-1.0452044
0.039775424,-0.021229222,-0.027078778,-0.2572859,1.8152784,-1.0126654
0.038537156,-0.020568326,-0.026235774,-0.2492762,1.758766,-0.98113954
0.03733745,-0.019928008,-0.025419023,-0.24151593,1.7040136,-0.9505955
0.0361751,-0.019307632,-0.024627704,-0.23399732,1.650966,-0.92100257
0.035048943,-0.018706571,-0.023861028,-0.22671282,1.5995703,-0.8923311
0.033957854,-0.018124228,-0.023118224,-0.21965516,1.549775,-0.8645525
0.03290074,-0.017560016,-0.022398548,-0.21281725,1.5015302,-0.8376388
0.03187654,-0.017013375,-0.021701282,-0.20619226,1.4547876,-0.8115631
0.03088423,-0.016483752,-0.021025727,-0.19977352,1.4095004,-0.7862993
0.029922817,-0.01597062,-0.020371202,-0.19355465,1.3656231,-0.7618221
0.028991336,-0.015473463,-0.01973706,-0.18752941,1.3231121,-0.738107
0.028088856,-0.0149917845,-0.019122658,-0.18169175,1.2819246,-0.7151303
0.027214477,-0.014525104,-0.018527389,-0.17603585,1.2420194,-0.69286895
0.026367318,-0.014072953,-0.01795065,-0.17055604,1.2033566,-0.67130065
0.025546534,-0.013634878,-0.017391866,-0.16524683,1.1658976,-0.65040386
0.024751304,-0.013210442,-0.01685048,-0.16010292,1.1296047,-0.63015765
0.023980832,-0.01279922,-0.016325949,-0.15511914,1.0944417,-0.6105417
0.023234345,-0.012400799,-0.015817748,-0.15029052,1.0603734,-0.59153646
0.022511097,-0.012014783,-0.015325367,-0.14561222,1.0273657,-0.5731229
0.021810366,-0.011640784,-0.014848315,-0.14107956,0.99538565,-0.5552826
0.02113145,-0.011278428,-0.014386115,-0.13668802,0.9644011,-0.53799766
0.020473668,-0.010927352,-0.013938302,-0.13243318,0.9343811,-0.52125084
0.019836364,-0.010587205,-0.013504431,-0.1283108,0.9052957,-0.5050254
0.0192189,-0.010257648,-0.013084066,-0.12431676,0.8771158,-0.48930496
0.018620657,-0.009938349,-0.012676788,-0.12044705,0.84981304,-0.47407398
0.018041037,-0.009628991,-0.012282187,-0.116697796,0.82336026,-0.4593171
0.01747946,-0.009329262,-0.011899871,-0.11306526,0.7977309,-0.4450196
0.016935367,-0.009038865,-0.011529456,-0.109545805,0.77289945,-0.4311672
0.016408209,-0.0087575065,-0.011170572,-0.106135905,0.7488409,-0.417746
0.015897462,-0.0084849065,-0.01082286,-0.10283216,0.7255314,-0.4047426
0.015402614,-0.008220793,-0.01048597,-0.09963125,0.7029474,-0.39214396
0.014923169,-0.007964901,-0.010159569,-0.09652998,0.68106645,-0.37993753
