ax,ay,az,gx,gy,gz
-1.4309222,2.218202,-4.8936806,12.983754,15.92469,10.875554
-1.4033241,2.2600348,-5.1406426,10.461455,14.414914,5.780905
-1.3195194,2.426454,-5.2638845,9.486963,13.878809,0.24381092
-1.2905049,2.5423818,-5.5297737,7.523125,12.498385,-2.714643
-1.3945838,2.5912387,-5.917331,5.71359,9.394065,-4.407023
-1.5786775,2.6209874,-6.3477154,3.5660954,4.0315194,-6.7079906
-1.808229,2.6115692,-6.7749386,1.942131,-2.5634103,-9.383272
-1.9478147,2.6327353,-7.1147466,-0.31911355,-10.241155,-11.701644
-2.018776,2.6492915,-7.3983116,-3.3368194,-18.312145,-13.233815
-2.0749295,2.6407046,-7.645927,-6.3295913,-26.612545,-14.447316
-2.1304348,2.6139622,-7.869608,-8.232725,-35.93769,-16.10572
-2.1509879,2.5857933,-8.041259,-9.784539,-45.566795,-17.831135
-2.1373606,2.6025648,-8.144252,-11.583671,-55.55547,-19.58701
-2.0857584,2.652521,-8.153242,-13.802403,-65.69464,-21.937994
-1.9593021,2.6757429,-8.073481,-16.40367,-75.768425,-24.417198
-1.7590541,2.6241143,-7.9101486,-19.797798,-86.01153,-26.621899
-1.4619337,2.453899,-7.6028495,-23.180351,-95.27782,-28.344267
-1.1273767,2.2533505,-7.177605,-26.017336,-103.27168,-29.934917
-0.75812584,2.0368576,-6.653726,-28.395145,-110.10299,-31.478981
-0.33224636,1.7838746,-6.0318913,-30.859552,-115.72134,-32.477444
0.10420158,1.4668994,-5.326197,-32.920525,-119.23069,-32.8116
0.47352389,1.0875562,-4.540713,-33.483135,-120.8604,-32.99979
0.79230267,0.74782443,-3.7486377,-32.9049,-120.933426,-33.02532
1.0788296,0.47303757,-2.963261,-32.160843,-119.76023,-32.31112
1.3118203,0.24611834,-2.2056882,-31.487204,-117.45485,-31.017271
1.4882145,0.025192028,-1.4994665,-30.290382,-113.530014,-29.26189
1.599827,-0.14682026,-0.8517303,-28.67092,-108.4813,-27.474363
1.6841862,-0.25846088,-0.26788157,-26.936678,-102.54772,-26.029106
1.6116586,-0.24733055,-0.25634554,-25.77668,-98.13162,-24.908192
1.5436398,-0.23689215,-0.24552669,-24.688795,-93.99005,-23.856962
1.4797101,-0.22708128,-0.23535822,-23.666311,-90.097466,-22.868927
1.419502,-0.21784155,-0.22578171,-22.70335,-86.43148,-21.938412
1.3626926,-0.20912339,-0.21674576,-21.794746,-82.972435,-21.060421
1.3089967,-0.20088303,-0.20820506,-20.93594,-79.702965,-20.23055
1.2581615,-0.1930817,-0.20011938,-20.12289,-76.60769,-19.444895
1.2099625,-0.18568492,-0.19245298,-19.352,-73.67291,-18.699978
1.1641989,-0.17866187,-0.18517396,-18.620062,-70.88643,-17.9927
1.1206911,-0.17198502,-0.17825373,-17.924202,-68.2373,-17.320286
1.0792775,-0.16562955,-0.17166662,-17.261839,-65.71569,-16.68024
1.0398129,-0.15957318,-0.16538951,-16.630648,-63.312744,-16.070314
1.0021658,-0.15379573,-0.15940148,-16.028522,-61.020466,-15.488479
0.9662171,-0.14827892,-0.15368357,-15.453564,-58.831596,-14.932891
0.9318585,-0.14300613,-0.1482186,-14.9040365,-56.73955,-14.401878
0.89899147,-0.13796225,-0.14299086,-14.378365,-54.738323,-13.893918
0.86752594,-0.13313344,-0.13798605,-13.875108,-52.82243,-13.407618
0.83737946,-0.12850706,-0.13319105,-13.392949,-50.986855,-12.941704
0.8084765,-0.12407152,-0.12859383,-12.930679,-49.226997,-12.495008
0.78074753,-0.11981613,-0.12418334,-12.487185,-47.538616,-12.066457
0.7541284,-0.115731075,-0.119949386,-12.061441,-45.917816,-11.655059
0.72856003,-0.11180727,-0.11588256,-11.652504,-44.360996,-11.259899
0.7039877,-0.10803632,-0.11197416,-11.259497,-42.86482,-10.880134
0.6803606,-0.104410425,-0.10821611,-10.881608,-41.4262,-10.5149765
0.6576317,-0.10092237,-0.104600914,-10.518085,-40.042267,-10.163701
0.6357571,-0.09756542,-0.101121604,-10.168224,-38.710354,-9.825629
0.61469597,-0.094333306,-0.09777168,-9.831375,-37.42797,-9.50013
0.5944101,-0.09122018,-0.09454508,-9.506927,-36.192795,-9.186612
0.574864,-0.08822055,-0.091436125,-9.194307,-35.002655,-8.884525
0.556024,-0.08532932,-0.0884395,-8.892983,-33.85552,-8.593354
0.53785896,-0.082541645,-0.085550226,-8.602454,-32.749477,-8.3126135
0.5203394,-0.079853036,-0.08276361,-8.3222475,-31.682734,-8.041848
0.5034376,-0.07725923,-0.080075264,-8.051922,-30.653606,-7.7806306
0.48712745,-0.07475621,-0.077481024,-7.7910595,-29.660505,-7.5285573
0.47138438,-0.07234023,-0.07497697,-7.5392666,-28.701931,-7.2852483
0.4561851,-0.0700077,-0.072559424,-7.2961717,-27.776468,-7.0503435
0.4415077,-0.06775525,-0.07022488,-7.0614223,-26.88278,-6.8235035
0.42733127,-0.06557969,-0.06797002,-6.8346868,-26.0196,-6.6044073
0.41363615,-0.06347799,-0.06579172,-6.6156483,-25.185722,-6.3927493
0.40040362,-0.061447285,-0.06368699,-6.404009,-24.380013,-6.18824
0.38761586,-0.059484832,-0.06165301,-6.199483,-23.601383,-5.9906054
0.375256,-0.05758805,-0.059687085,-6.0018005,-22.84881,-5.7995834
0.36330795,-0.055754457,-0.057786662,-5.8107047,-22.12131,-5.6149263
0.35175633,-0.05398171,-0.0559493,-5.62595,-21.417948,-5.436396
0.3405866,-0.052267563,-0.054172676,-5.4473023,-20.737839,-5.2637677
0.32978475,-0.050609875,-0.05245457,-5.274539,-20.08013,-5.096825
0.3193375,-0.049006604,-0.050792858,-5.1074467,-19.44401,-4.935363
0.30923212,-0.047455795,-0.049185526,-4.9458222,-18.828707,-4.779184
0.2994564,-0.045955583,-0.047630627,-4.7894707,-18.233477,-4.6281
0.28999868,-0.044504173,-0.046126317,-4.638205,-17.657612,-4.481931
0.28084785,-0.043099854,-0.044670813,-4.491848,-17.10043,-4.340505
0.2719932,-0.041740987,-0.043262415,-4.3502274,-16.561281,-4.203656
0.26342443,-0.040425997,-0.041899495,-4.2131796,-16.039543,-4.071226
0.25513175,-0.039153375,-0.040580485,-4.0805473,-15.534612,-3.9430623
0.24710566,-0.037921663,-0.03930388,-3.9521792,-15.045916,-3.8190193
0.23933712,-0.036729477,-0.03806824,-3.82793,-14.5729,-3.6989565
0.2318174,-0.035575476,-0.036872175,-3.7076604,-14.115034,-3.582739
0.2245381,-0.034458373,-0.035714354,-3.5912364,-13.671809,-3.4702377
0.21749118,-0.03337693,-0.03459349,-3.4785285,-13.242731,-3.3613274
0.21066886,-0.03232995,-0.033508353,-3.3694131,-12.82733,-3.2558882
0.20406367,-0.031316295,-0.03245775,-3.2637706,-12.425149,-3.1538053
0.19766842,-0.03033486,-0.03144054,-3.1614857,-12.035751,-3.0549664
0.19147618,-0.029384578,-0.030455623,-3.0624478,-11.658715,-2.9592655
0.18548028,-0.028464425,-0.029501932,-2.9665499,-11.2936325,-2.8665986
0.17967427,-0.027573416,-0.028578445,-2.8736892,-10.940113,-2.7768667
0.17405193,-0.026710594,-0.027684174,-2.7837663,-10.597776,-2.6899736
0.1686073,-0.025875043,-0.026818167,-2.6966856,-10.266261,-2.6058266
0.1633346,-0.025065875,-0.025979506,-2.6123543,-9.945213,-2.524337
0.15822822,-0.024282234,-0.025167303,-2.5306838,-9.634294,-2.4454181
0.15328282,-0.023523297,-0.024380704,-2.4515877,-9.333176,-2.3689868
0.1484932,-0.022788266,-0.02361888,-2.374983,-9.041542,-2.2949634
0.14385433,-0.02207637,-0.022881037,-2.3007896,-8.7590885,-2.2232697
0.13936138,-0.021386867,-0.022166401,-2.2289298,-8.485518,-2.153831
0.13500966,-0.020719036,-0.02147423,-2.159329,-8.220549,-2.0865753
0.13079466,-0.020072188,-0.020803804,-2.0919144,-7.9639025,-2.0214322
0.126712,-0.019445648,-0.020154428,-2.0266168,-7.715315,-1.9583346
0.12275744,-0.018838769,-0.01952543,-1.9633683,-7.474528,-1.897217
0.118926935,-0.018250927,-0.018916158,-1.9021035,-7.2412934,-1.8380164
0.115216516,-0.017681513,-0.01832599,-1.8427595,-7.0153713,-1.7806718
0.11162236,-0.017129943,-0.017754316,-1.7852751,-6.7965283,-1.7251242
0.108140804,-0.01659565,-0.01720055,-1.7295914,-6.584541,-1.6713166
0.104768254,-0.016078088,-0.016664121,-1.6756512,-6.3791914,-1.6191939
0.10150127,-0.015576726,-0.016144486,-1.6233995,-6.1802692,-1.5687027
0.09833651,-0.015091051,-0.015641108,-1.5727826,-5.9875717,-1.5197912
0.095270745,-0.014620569,-0.015153477,-1.5237491,-5.8009014,-1.4724098
0.09230085,-0.014164798,-0.014681093,-1.476249,-5.6200686,-1.4265101
0.08942379,-0.013723276,-0.014223479,-1.4302337,-5.4448886,-1.3820451
0.086636655,-0.013295553,-0.013780165,-1.3856566,-5.275184,-1.3389701
0.08393661,-0.012881194,-0.013350704,-1.3424723,-5.1107817,-1.2972407
0.081320904,-0.012479779,-0.012934658,-1.3006371,-4.9515157,-1.2568151
0.078786895,-0.012090902,-0.012531606,-1.2601085,-4.797223,-1.217652
0.07633201,-0.011714167,-0.012141139,-1.2208453,-4.6477485,-1.1797117
0.07395377,-0.011349194,-0.011762863,-1.1828079,-4.5029407,-1.1429559
0.07164975,-0.010995612,-0.011396393,-1.1459578,-4.362653,-1.1073474
0.06941765,-0.0106530655,-0.011041361,-1.1102577,-4.2267427,-1.0728501
0.067255184,-0.010321207,-0.010697407,-1.0756717,-4.0950737,-1.0394293
0.06516019,-0.009999702,-0.010364183,-1.0421646,-3.9675124,-1.0070511
0.06313055,-0.0096882265,-0.010041355,-1.0097027,-3.8439305,-0.97568303
0.061164215,-0.009386466,-0.009728596,-0.9782533,-3.7242029,-0.94529325
0.0592592,-0.009094115,-0.009425589,-0.9477847,-3.6082091,-0.91585124
0.05741359,-0.008810882,-0.009132032,-0.91826624,-3.4958324,-0.8873273
0.05562552,-0.008536479,-0.008847627,-0.8896681,-3.3869596,-0.8596927
0.053893197,-0.008270632,-0.0085720895,-0.86196154,-3.2814808,-0.83291966
0.052214876,-0.008013071,-0.008305141,-0.83511865,-3.1792903,-0.8069812
0.05058887,-0.0077635376,-0.0080465125,-0.8091124,-3.0802848,-0.78185123
0.049013536,-0.007521782,-0.0077959453,-0.78391683,-2.9843652,-0.7575045
0.047487304,-0.007287561,-0.007553187,-0.7595064,-2.891435,-0.7339165
0.04600863,-0.0070606386,-0.007317994,-0.73585665,-2.8014007,-0.7110636
0.044576034,-0.006840788,-0.007090129,-0.71294385,-2.714172,-0.6889228
0.043188073,-0.0066277864,-0.006869364,-0.690745,-2.6296608,-0.6674719
0.041843355,-0.0064214217,-0.006655478,-0.66923773,-2.547783,-0.6466893
0.04054053,-0.0062214863,-0.006448255,-0.64840055,-2.468456,-0.62655413
0.0392783,-0.0060277795,-0.0062474874,-0.6282125,-2.3916001,-0.6070463
0.038055383,-0.005840107,-0.006052974,-0.6086533,-2.3171387,-0.58814615
0.036870558,-0.00565828,-0.0058645196,-0.58970344,-2.2449963,-0.5698347
0.035722643,-0.0054821167,-0.0056819357,-0.5713438,-2.1751013,-0.5520936
0.03461048,-0.0053114407,-0.0055050384,-0.55355597,-2.1073833,-0.53490514
0.033532955,-0.00514608,-0.005333651,-0.5363222,-2.0417745,-0.518252
0.03248899,-0.00498587,-0.0051676007,-0.5196251,-1.9782089,-0.5021175
0.03147754,-0.004830649,-0.005006722,-0.50344807,-1.916623,-0.48648554
0.030497586,-0.004680262,-0.004850854,-0.48777485,-1.856955,-0.47134036
0.029548151,-0.0045345584,-0.0046998397,-0.47258967,-1.7991453,-0.45666683
0.028628282,-0.0043933922,-0.004553528,-0.4578774,-1.7431357,-0.44245026
0.027737057,-0.004256622,-0.0044117724,-0.44362324,-1.6888703,-0.42867637
0.026873583,-0.0041241106,-0.004274431,-0.42981297,-1.6362946,-0.41533136
0.026036996,-0.003995725,-0.004141366,-0.4164327,-1.5853561,-0.40240192
0.02522646,-0.0038713373,-0.0040124445,-0.40346906,-1.5360036,-0.38987508
0.02444116,-0.0037508225,-0.0038875372,-0.39090908,-1.4881878,-0.37773827
0.023680313,-0.0036340603,-0.003766519,-0.37874016,-1.4418608,-0.36597934
0.022943154,-0.0035209334,-0.0036492688,-0.36695012,-1.3969762,-0.35458657
0.022228947,-0.0034113287,-0.003535669,-0.35552716,-1.3534892,-0.34354848
0.021536976,-0.0033051367,-0.0034256063,-0.34445986,-1.3113561,-0.33285406
0.020866549,-0.0032022507,-0.0033189703,-0.33373713,-1.2705348,-0.32249263
0.020216994,-0.003102568,-0.003215654,-0.32334825,-1.2309843,-0.31245378
0.019587664,-0.0030059887,-0.0031155546,-0.31328282,-1.1926652,-0.30272743
0.018977925,-0.0029124161,-0.0030185715,-0.30353072,-1.1555392,-0.29330394
0.018387169,-0.0028217568,-0.0029246076,-0.29408222,-1.1195688,-0.2841738
0.017814806,-0.0027339198,-0.002833569,-0.2849279,-1.0847183,-0.27532792
0.017260259,-0.0026488174,-0.0027453648,-0.27605858,-1.0509529,-0.2667574
0.016722977,-0.0025663644,-0.0026599064,-0.26746535,-1.0182385,-0.2584537
0.016202422,-0.002486478,-0.0025771083,-0.25913966,-0.98654264,-0.25040853
0.015698072,-0.0024090789,-0.002496888,-0.25107312,-0.9558335,-0.24261378
0.015209422,-0.002334089,-0.0024191649,-0.24325773,-0.9260803,-0.2350617
0.014735985,-0.0022614338,-0.0023438612,-0.23568562,-0.89725333,-0.22774473
0.014277285,-0.0021910402,-0.0022709018,-0.22834924,-0.8693238,-0.22065552
0.013832865,-0.0021228378,-0.0022002137,-0.22124124,-0.84226364,-0.213787
0.0134022795,-0.0020567589,-0.0021317261,-0.2143545,-0.81604594,-0.20713231
0.012985098,-0.0019927367,-0.0020653706,-0.20768215,-0.79064435,-0.20068476
0.012580903,-0.0019307077,-0.0020010804,-0.2012175,-0.7660335,-0.19443794
0.0121892905,-0.0018706095,-0.0019387918,-0.1949541,-0.74218875,-0.18838556
0.011809869,-0.0018123821,-0.001878442,-0.18888566,-0.7190863,-0.18252158
0.011442258,-0.0017559673,-0.0018199709,-0.18300614,-0.69670296,-0.17684016
