ax,ay,az,gx,gy,gz
-2.0145638,3.336394,-8.613715,12.706479,-2.9409356,10.487369
-2.2949343,3.5568106,-9.336175,6.8266487,-9.973143,9.997861
-2.5214949,3.771454,-9.588188,1.1884863,-18.249376,6.9640245
-2.6398606,3.9598446,-9.695123,-2.6137402,-27.094917,3.1523638
-2.7647839,4.2443933,-9.780928,-6.493653,-36.15196,-2.0698552
-2.8298573,4.454997,-9.841178,-10.125883,-45.865726,-8.131112
-2.846006,4.541062,-9.879689,-13.31514,-55.53996,-13.965787
-2.81484,4.546458,-9.886514,-16.45865,-65.06643,-18.829954
-2.7674146,4.4845724,-9.868692,-19.603785,-74.617805,-22.778896
-2.6750777,4.356259,-9.782745,-23.15909,-84.71819,-26.284376
-2.5313332,4.215949,-9.607132,-26.111338,-94.584175,-29.63395
-2.3136816,4.070785,-9.338064,-28.49439,-104.15087,-33.164856
-2.018454,3.8503447,-8.982681,-30.687151,-113.43575,-36.612583
-1.6495864,3.5106134,-8.489401,-32.43394,-122.00182,-39.42207
-1.2011265,3.0851982,-7.739015,-34.391205,-129.16939,-41.32539
-0.7084758,2.6329496,-6.849328,-36.251244,-134.4436,-42.709297
-0.17938304,2.1372707,-5.8966007,-37.799885,-137.85966,-43.370018
0.35084215,1.571018,-4.917389,-39.050236,-139.23076,-43.08277
0.8296234,0.9594687,-3.9280512,-39.047375,-137.92206,-42.01262
1.2184749,0.38941836,-2.921162,-37.965435,-135.13441,-40.649506
1.555152,-0.08691011,-1.8989545,-35.826977,-131.06413,-38.89815
1.8918872,-0.46382412,-0.87565035,-33.156906,-125.34271,-36.480484
2.227628,-0.7320995,0.07436729,-30.347498,-117.75496,-33.798447
2.1190536,-0.69641703,0.07074264,-28.868364,-112.015594,-32.151115
2.0186462,-0.66341865,0.067390636,-27.500492,-106.707954,-30.627697
1.9254855,-0.6328018,0.06428055,-26.23134,-101.78336,-29.214224
1.8387864,-0.60430855,0.06138618,-25.050219,-97.20035,-27.89879
1.7578764,-0.57771784,0.05868507,-23.947962,-92.923355,-26.671192
1.6821754,-0.55283904,0.056157865,-22.91667,-88.921715,-25.522627
1.6111804,-0.5295069,0.053787768,-21.94949,-85.168846,-24.445465
1.5444536,-0.5075774,0.051560152,-21.040453,-81.64158,-23.433058
1.4816111,-0.48692456,0.049462214,-20.184336,-78.31966,-22.479588
1.4223161,-0.4674375,0.047482703,-19.376547,-75.18526,-21.579939
1.3662708,-0.44901848,0.045611683,-18.613028,-72.22263,-20.729597
1.3132114,-0.43158078,0.043840345,-17.890186,-69.417854,-19.92456
1.2629035,-0.4150473,0.04216086,-17.20483,-66.75852,-19.161268
1.2151375,-0.3993492,0.040566236,-16.554102,-64.23355,-18.436544
1.1697259,-0.38442495,0.039050218,-15.935451,-61.83305,-17.747541
1.1265004,-0.37021908,0.03760717,-15.34658,-59.5481,-17.091707
1.0853091,-0.35668173,0.03623204,-14.78542,-57.370678,-16.466736
1.0460148,-0.34376785,0.034920234,-14.250105,-55.293537,-15.870547
1.0084931,-0.33143654,0.03366761,-13.738938,-53.3101,-15.301254
0.9726312,-0.31965068,0.03247039,-13.250383,-51.4144,-14.757143
0.93832606,-0.30837646,0.031325147,-12.783036,-49.60099,-14.236652
0.9054838,-0.297583,0.030228738,-12.335618,-47.864906,-13.738357
0.8740183,-0.28724203,0.029178292,-11.906957,-46.201607,-13.26095
0.84385073,-0.2773276,0.028171174,-11.495976,-44.606915,-12.803235
0.81490844,-0.26781586,0.027204964,-11.101689,-43.076992,-12.364112
0.7871247,-0.25868484,0.026277428,-10.723185,-41.60831,-11.942565
0.7604376,-0.24991424,0.025386505,-10.35962,-40.1976,-11.537659
0.7347901,-0.24148531,0.024530286,-10.010218,-38.841843,-11.148524
0.7101292,-0.23338065,0.023707006,-9.674257,-37.538242,-10.77436
0.68640584,-0.22558406,0.022915022,-9.351068,-36.284195,-10.414419
0.6635741,-0.21808052,0.022152808,-9.040026,-35.077286,-10.068007
0.6415915,-0.21085602,0.021418937,-8.740551,-33.915257,-9.734478
0.6204181,-0.20389749,0.020712081,-8.452101,-32.79601,-9.413227
0.60001665,-0.19719265,0.020031,-8.174168,-31.717566,-9.103689
0.58035237,-0.1907301,0.019374527,-7.9062767,-30.678091,-8.805335
0.56139255,-0.18449903,0.01874157,-7.6479826,-29.675852,-8.517669
0.54310644,-0.17848939,0.018131105,-7.398866,-28.709227,-8.240225
0.5254651,-0.17269164,0.017542165,-7.158534,-27.776686,-7.9725633
0.5084413,-0.16709685,0.016973842,-6.926615,-26.87679,-7.7142715
0.4920094,-0.16169658,0.016425278,-6.7027597,-26.00818,-7.4649606
0.47614512,-0.15648286,0.015895663,-6.4866366,-25.169575,-7.2242613
0.46082547,-0.15144813,0.015384232,-6.2779336,-24.359762,-6.9918256
0.4460288,-0.14658527,0.014890258,-6.076355,-23.577593,-6.7673244
0.43173447,-0.1418875,0.014413055,-5.88162,-22.821978,-6.550445
0.41792294,-0.13734841,0.01395197,-5.6934624,-22.091885,-6.3408914
0.40457568,-0.1329619,0.013506384,-5.5116296,-21.386333,-6.1383815
0.39167503,-0.12872216,0.0130757075,-5.3358808,-20.70439,-5.9426475
0.37920418,-0.12462367,0.01265938,-5.1659875,-20.045166,-5.753435
0.36714715,-0.12066119,0.012256867,-5.001732,-19.407818,-5.570501
0.3554887,-0.116829686,0.01186766,-4.8429055,-18.791538,-5.3936143
0.3442142,-0.113124385,0.011491273,-4.689311,-18.195557,-5.2225537
0.33330986,-0.109540716,0.01112724,-4.540758,-17.619139,-5.0571084
0.32276228,-0.10607432,0.01077512,-4.3970666,-17.061584,-4.8970766
0.31255886,-0.102721,0.010434488,-4.2580624,-16.522219,-4.7422657
0.30268735,-0.09947678,0.010104937,-4.1235805,-16.000399,-4.5924916
0.29313612,-0.09633781,0.009786078,-3.993462,-15.49551,-4.4475765
0.28389403,-0.09330044,0.009477539,-3.867555,-15.006963,-4.307352
0.27495036,-0.09036114,0.009178963,-3.7457132,-14.53419,-4.1716547
0.2662948,-0.08751654,0.008890006,-3.627797,-14.076649,-4.04033
0.25791755,-0.0847634,0.008610339,-3.5136714,-13.633817,-3.9132268
0.24980912,-0.082098596,0.008339645,-3.4032083,-13.205195,-3.7902021
0.24196038,-0.079519145,0.008077622,-3.296283,-12.790302,-3.671118
0.23436259,-0.077022165,0.007823978,-3.1927764,-12.388674,-3.5558414
0.22700733,-0.07460489,0.0075784293,-3.0925741,-11.9998665,-3.4442444
0.2198865,-0.072264664,0.007340707,-2.9955654,-11.623451,-3.3362045
0.21299231,-0.06999892,0.0071105505,-2.9016442,-11.259017,-3.2316031
0.20631725,-0.06780519,0.0068877097,-2.8107083,-10.906165,-3.1303263
0.19985406,-0.0656811,0.006671943,-2.7226589,-10.564514,-3.0322645
0.19359581,-0.06362436,0.006463017,-2.637401,-10.233696,-2.937312
0.18753576,-0.06163275,0.0062607075,-2.5548437,-9.913355,-2.8453662
0.18166743,-0.059704147,0.0060647987,-2.474898,-9.6031475,-2.7563298
0.17598458,-0.057836503,0.0058750818,-2.397479,-9.302746,-2.6701071
0.17048116,-0.056027833,0.0056913556,-2.3225048,-9.011828,-2.5866072
0.16515137,-0.054276224,0.0055134255,-2.2498958,-8.73009,-2.5057416
0.1599896,-0.052579828,0.005341104,-2.1795757,-8.457232,-2.4274251
0.1549904,-0.05093687,0.0051742108,-2.1114707,-8.19297,-2.3515754
0.15014857,-0.049345624,0.005012571,-2.045509,-7.937025,-2.2781131
0.14545903,-0.047804426,0.004856015,-1.9816225,-7.689131,-2.2069616
0.1409169,-0.04631168,0.0047043804,-1.919744,-7.4490285,-2.1380467
0.13651747,-0.044865828,0.0045575094,-1.8598095,-7.21647,-2.0712967
0.13225617,-0.043465372,0.0044152495,-1.8017569,-6.9912124,-2.0066426
0.12812859,-0.042108864,0.004277454,-1.745526,-6.773024,-1.9440174
0.12413048,-0.0407949,0.0041439813,-1.6910588,-6.5616794,-1.8833566
0.12025771,-0.039522134,0.0040146923,-1.6382991,-6.3569603,-1.8245974
0.11650631,-0.038289253,0.0038894552,-1.5871928,-6.1586566,-1.7676796
0.112872414,-0.037094988,0.003768141,-1.5376874,-5.9665647,-1.7125447
0.109352306,-0.03593812,0.0036506252,-1.489732,-5.7804875,-1.6591362
0.105942376,-0.034817465,0.0035367878,-1.4432778,-5.600235,-1.6073993
0.10263914,-0.033731874,0.0034265127,-1.3982772,-5.4256225,-1.5572815
0.09943923,-0.03268024,0.0033196867,-1.354684,-5.2564716,-1.5087312
0.09633939,-0.031661488,0.0032162012,-1.3124541,-5.0926104,-1.4616991
0.093336456,-0.030674588,0.003115951,-1.2715445,-4.9338717,-1.4161375
0.09042738,-0.029718531,0.003018834,-1.2319133,-4.780094,-1.3719997
0.08760919,-0.028792348,0.0029247515,-1.1935205,-4.6311216,-1.329241
0.08487903,-0.027895097,0.0028336078,-1.156327,-4.486803,-1.2878182
0.08223415,-0.02702587,0.002745311,-1.1202952,-4.3469915,-1.2476889
0.07967185,-0.026183782,0.0026597711,-1.0853884,-4.2115455,-1.2088127
0.07718955,-0.025367985,0.0025769016,-1.0515714,-4.080328,-1.1711502
0.07478473,-0.024577651,0.0024966188,-1.0188099,-3.9532063,-1.1346633
0.07245496,-0.023811983,0.0024188417,-0.9870709,-3.830052,-1.0993152
0.07019788,-0.023070205,0.0023434912,-0.95632225,-3.7107403,-1.0650699
0.068011224,-0.02235157,0.0022704918,-0.92653286,-3.5951512,-1.031893
0.06589278,-0.021655353,0.0021997693,-0.8976728,-3.4831676,-0.99975115
0.063840404,-0.02098085,0.0021312528,-0.8697128,-3.3746767,-0.9686117
0.061852038,-0.020327382,0.002064873,-0.84262484,-3.2695694,-0.9384434
0.05992567,-0.019694291,0.002000563,-0.8163815,-3.1677396,-0.90921587
0.05805937,-0.019080939,0.0019382582,-0.79095644,-3.0690846,-0.8808996
0.05625125,-0.01848671,0.0018778958,-0.766324,-2.9735053,-0.8534661
0.054499496,-0.017911004,0.0018194151,-0.7424594,-2.8809056,-0.8268878
0.052802343,-0.017353242,0.0017627572,-0.7193387,-2.791192,-0.8011379
0.051158085,-0.016812865,0.0017078653,-0.6969386,-2.704275,-0.7761906
0.04956507,-0.016289327,0.001654684,-0.6752366,-2.6200664,-0.7520208
0.0480217,-0.015782107,0.0016031599,-0.65421087,-2.538482,-0.72860414
0.04652642,-0.01529069,0.0015532414,-0.6338403,-2.4594398,-0.7059171
0.04507773,-0.0148145845,0.0015048783,-0.6141045,-2.3828604,-0.6839371
0.04367418,-0.0143533135,0.0014580219,-0.5949836,-2.308667,-0.6626418
0.04231435,-0.013906413,0.0014126254,-0.57645833,-2.236785,-0.64201
0.040996887,-0.013473434,0.001368643,-0.5585102,-2.1671424,-0.6220209
0.039720464,-0.013053944,0.0013260308,-0.5411212,-2.0996692,-0.6026545
0.0384838,-0.012647521,0.001284746,-0.5242739,-2.0342977,-0.5838914
0.037285656,-0.012253757,0.0012447471,-0.50795126,-1.9709625,-0.5657127
0.036124833,-0.011872257,0.001205994,-0.49213707,-1.9095999,-0.5481002
0.035000164,-0.011502639,0.001168448,-0.47681543,-1.8501487,-0.53103626
0.03391052,-0.011144534,0.0011320713,-0.46197098,-1.7925489,-0.5145038
0.032854814,-0.010797581,0.0010968274,-0.44758883,-1.736743,-0.49848616
0.031831983,-0.010461432,0.0010626813,-0.43365458,-1.682675,-0.48296738
0.030841006,-0.010135752,0.0010295984,-0.42015427,-1.6302909,-0.4679319
0.029880889,-0.009820214,0.0009975458,-0.40707436,-1.5795379,-0.4533646
0.028950669,-0.009514501,0.00096649124,-0.39440176,-1.5303655,-0.43925095
0.028049415,-0.009218309,0.0009364037,-0.38212377,-1.4827241,-0.42557675
0.027176224,-0.008931339,0.00090725307,-0.37022808,-1.4365662,-0.41232836
0.026330223,-0.008653305,0.00087901007,-0.3587028,-1.3918457,-0.3994925
0.025510563,-0.008383927,0.00085164653,-0.34753639,-1.3485175,-0.3870563
0.024716424,-0.008122937,0.0008251349,-0.33671767,-1.3065385,-0.37500733
0.023947012,-0.007870073,0.0007994488,-0.32623577,-1.2658664,-0.3633335
0.023201555,-0.0076250825,0.0007745624,-0.31608024,-1.2264607,-0.35202312
0.022479309,-0.007387719,0.0007504509,-0.3062409,-1.1882819,-0.3410649
0.021779547,-0.0071577462,0.00072709,-0.2967079,-1.1512917,-0.33044785
0.021101572,-0.006934933,0.0007044564,-0.28747168,-1.1154532,-0.32016137
0.020444706,-0.0067190565,0.00068252755,-0.27852303,-1.0807306,-0.31019512
0.019808289,-0.006509901,0.00066128134,-0.26985297,-1.0470887,-0.30053914
0.019191684,-0.0063072573,0.0006406966,-0.26145282,-1.0144944,-0.2911838
0.018594276,-0.006110922,0.0006207527,-0.2533142,-0.98291475,-0.2821197
0.018015468,-0.005920699,0.00060142967,-0.24542895,-0.9523182,-0.27333775
0.017454678,-0.005736398,0.0005827082,-0.23778917,-0.9226742,-0.26482925
0.016911345,-0.005557834,0.0005645696,-0.23038723,-0.893953,-0.2565856
0.016384928,-0.00538483,0.0005469956,-0.22321571,-0.866126,-0.24859858
0.015874898,-0.005217211,0.00052996876,-0.21626747,-0.8391653,-0.2408602
0.015380746,-0.00505481,0.00051347195,-0.20953551,-0.8130438,-0.23336272
0.014901976,-0.0048974645,0.00049748865,-0.20301312,-0.78773546,-0.22609864
0.01443811,-0.0047450173,0.00048200294,-0.19669376,-0.763215,-0.21906069
0.013988685,-0.004597316,0.00046699928,-0.19057114,-0.7394579,-0.21224184
0.013553251,-0.0044542123,0.0004524627,-0.18463911,-0.7164403,-0.20563525
0.013131371,-0.0043155635,0.00043837863,-0.17889173,-0.69413924,-0.19923432
0.012722623,-0.0041812304,0.00042473298,-0.17332327,-0.6725324,-0.19303264
0.0123266,-0.004051079,0.0004115121,-0.16792816,-0.65159816,-0.18702403
0.011942904,-0.0039249794,0.00039870277,-0.16270098,-0.6313156,-0.18120244
