ax,ay,az,gx,gy,gz
-1.440013,2.475477,-5.041864,17.755615,-12.262839,-5.7709618
-1.4538244,2.6844187,-5.3640203,10.255256,-14.9406595,-3.8937
-1.6303297,2.5330417,-5.8002877,2.1281967,-18.534698,-6.560562
-1.7196038,2.3322895,-6.2078223,-2.6960304,-23.619915,-7.524477
-1.7769012,2.2091122,-6.5209846,-5.0181403,-29.798037,-8.3039465
-1.8479128,2.16739,-6.7539973,-6.541121,-36.250317,-9.64674
-1.8970234,2.1763263,-6.9025764,-6.731359,-42.627754,-11.980939
-1.9039321,2.244396,-7.0291753,-7.012931,-48.906292,-14.187635
-1.9098983,2.3024755,-7.1664267,-8.0017185,-55.512367,-16.02358
-1.9297733,2.3257554,-7.3109374,-9.070573,-62.628395,-17.773659
-1.9273694,2.3587976,-7.4195156,-10.393537,-69.971825,-19.42914
-1.889947,2.4074914,-7.484,-12.679392,-78.13589,-21.304682
-1.7928698,2.35334,-7.497388,-14.877604,-86.41885,-23.442665
-1.6542948,2.2283928,-7.4583206,-17.270584,-94.56631,-25.169744
-1.4879286,2.0623732,-7.3525386,-19.712986,-102.909645,-26.367619
-1.2644917,1.8731586,-7.136955,-22.015976,-111.271675,-27.196453
-0.95558095,1.7199805,-6.779947,-23.93805,-118.660255,-28.044031
-0.54345626,1.5715373,-6.2502337,-26.132984,-124.44697,-28.97534
-0.16060956,1.3237852,-5.670152,-27.968733,-128.5417,-29.42296
0.17269172,1.0473204,-5.055937,-29.486526,-131.4324,-29.255882
0.49329057,0.78534555,-4.404996,-30.804613,-133.43831,-28.529984
0.7880359,0.5374798,-3.725179,-31.334528,-133.51038,-27.606886
1.0179194,0.33042827,-3.024311,-31.173893,-132.29482,-26.830175
1.2080576,0.14967993,-2.3258047,-30.680798,-130.17517,-25.97761
1.3795816,-0.016808968,-1.6283354,-29.805452,-127.32133,-24.95496
1.5519718,-0.17682041,-0.94677424,-28.477829,-123.54674,-23.707521
1.7227609,-0.3091182,-0.3010503,-26.255657,-118.030525,-22.269016
1.8640174,-0.38585225,0.2611196,-23.408401,-111.40012,-20.845997
1.972107,-0.4209557,0.7188837,-20.287113,-103.93758,-19.351635
2.0429633,-0.43307015,1.0726444,-17.424269,-95.947235,-17.965622
1.9583542,-0.4151346,1.0282208,-16.702644,-91.973595,-17.221579
1.8786706,-0.39824316,0.98638344,-16.02303,-88.23127,-16.520847
1.8034849,-0.3823052,0.94690776,-15.381777,-84.700195,-15.859673
1.7324198,-0.36724073,0.90959555,-14.775669,-81.36265,-15.234734
1.6651411,-0.3529789,0.8742712,-14.201854,-78.20291,-14.64309
1.601351,-0.33945656,0.84077865,-13.657793,-75.20703,-14.082126
1.5407841,-0.3266175,0.80897844,-13.141223,-72.36252,-13.549507
1.4832027,-0.31441134,0.7787457,-12.650116,-69.658226,-13.043141
1.4283931,-0.30279273,0.7499683,-12.18265,-67.08411,-12.561151
1.3761629,-0.29172087,0.72254515,-11.737182,-64.63113,-12.101843
1.3263379,-0.28115892,0.6963849,-11.312229,-62.291115,-11.663688
1.2787608,-0.27107346,0.67140484,-10.906447,-60.056667,-11.245299
1.2332882,-0.2614341,0.6475298,-10.518616,-57.92106,-10.845417
1.1897897,-0.2522132,0.6246911,-10.147619,-55.87816,-10.462895
1.1481459,-0.24338552,0.60282636,-9.792443,-53.92237,-10.0966835
1.1082479,-0.23492791,0.5818782,-9.452157,-52.048573,-9.745825
1.0699956,-0.22681914,0.5617941,-9.125907,-50.252064,-9.409438
1.0332972,-0.21903974,0.54252577,-8.812907,-48.52853,-9.086715
0.9980675,-0.21157171,0.5240287,-8.512437,-46.873978,-8.776909
0.9642285,-0.20439847,0.50626177,-8.223827,-45.284737,-8.479332
0.9317077,-0.19750467,0.4891869,-7.9464593,-43.75741,-8.193347
0.90043795,-0.19087605,0.47276893,-7.6797624,-42.28883,-7.918364
0.87035686,-0.18449943,0.45697504,-7.423203,-40.87608,-7.653834
0.8414064,-0.17836247,0.44177485,-7.176287,-39.516434,-7.3992467
0.8135326,-0.17245375,0.42713988,-6.938554,-38.207344,-7.154127
0.78668493,-0.16676253,0.41304368,-6.709572,-36.94645,-6.918031
0.7608161,-0.16127883,0.39946142,-6.488939,-35.73153,-6.690543
0.735882,-0.15599327,0.3863699,-6.276278,-34.560505,-6.471275
0.71184105,-0.15089704,0.3737474,-6.0712347,-33.431427,-6.2598615
0.6886544,-0.1459819,0.3615734,-5.873478,-32.342472,-6.05596
0.66628534,-0.14124008,0.3498287,-5.682694,-31.291916,-5.859249
0.64469934,-0.13666424,0.33849508,-5.4985886,-30.278135,-5.6694236
0.6238638,-0.13224751,0.32755554,-5.320884,-29.2996,-5.486198
0.603748,-0.12798333,0.31699386,-5.149318,-28.354868,-5.309302
0.58432287,-0.12386556,0.30679482,-4.9836426,-27.44257,-5.1384788
0.5655608,-0.11988835,0.29694393,-4.823622,-26.561415,-4.973487
0.5474357,-0.11604616,0.28742746,-4.669035,-25.710173,-4.8140965
0.5299228,-0.11233376,0.27823243,-4.5196686,-24.887686,-4.66009
0.5129986,-0.108746134,0.26934648,-4.3753233,-24.092844,-4.51126
0.49664065,-0.10527856,0.26075786,-4.235808,-23.324598,-4.3674097
0.48082772,-0.10192651,0.25245538,-4.1009407,-22.581947,-4.2283525
0.46553952,-0.0986857,0.24442841,-3.9705489,-21.863941,-4.0939093
0.45075667,-0.09555201,0.23666678,-3.8444672,-21.169668,-3.9639106
0.43646073,-0.09252154,0.2291608,-3.7225385,-20.498264,-3.8381937
0.4226341,-0.08959055,0.22190122,-3.604612,-19.8489,-3.7166035
0.4092599,-0.08675547,0.21487918,-3.4905446,-19.220783,-3.5989919
0.396322,-0.08401288,0.20808622,-3.3801982,-18.61316,-3.4852173
0.383805,-0.08135951,0.20151426,-3.273442,-18.025301,-3.3751442
0.37169415,-0.07879223,0.19515553,-3.1701493,-17.456518,-3.2686424
0.35997525,-0.07630804,0.1890026,-3.0701997,-16.906143,-3.1655877
0.34863475,-0.07390407,0.18304835,-2.9734776,-16.373539,-3.0658603
0.3376596,-0.07157754,0.17728592,-2.8798714,-15.858094,-2.9693458
0.3270373,-0.06932581,0.17170876,-2.7892747,-15.359221,-2.8759346
0.31675586,-0.06714634,0.16631056,-2.7015853,-14.876356,-2.7855206
0.30680373,-0.06503667,0.16108525,-2.6167042,-14.408957,-2.6980023
0.2971698,-0.06299446,0.15602702,-2.534537,-13.956501,-2.6132824
0.28784338,-0.061017435,0.15113026,-2.454993,-13.518489,-2.531267
0.27881426,-0.059103422,0.14638956,-2.377984,-13.094438,-2.4518654
0.27007246,-0.05725033,0.14179975,-2.3034263,-12.683883,-2.3749912
0.26160854,-0.055456135,0.13735582,-2.2312381,-12.286376,-2.3005602
0.2534133,-0.053718895,0.13305296,-2.1613414,-11.901488,-2.228492
0.24547787,-0.052036732,0.12888652,-2.0936608,-11.528804,-2.1587086
0.23779377,-0.05040785,0.12485204,-2.0281239,-11.167922,-2.0911355
0.23035277,-0.048830498,0.12094519,-1.9646603,-10.818458,-2.0257
0.22314696,-0.047303,0.117161825,-1.9032024,-10.480039,-1.9623328
0.21616869,-0.04582373,0.11349793,-1.8436852,-10.152306,-1.9009665
0.20941055,-0.044391137,0.10994962,-1.7860457,-9.834911,-1.8415362
0.20286547,-0.043003697,0.10651316,-1.7302232,-9.527523,-1.7839793
0.19652653,-0.041659962,0.103184946,-1.6761589,-9.229817,-1.7282354
0.19038713,-0.04035852,0.09996149,-1.6237965,-8.941482,-1.6742461
0.18444084,-0.03909802,0.09683943,-1.5730809,-8.662215,-1.6219549
0.17868146,-0.03787714,0.093815506,-1.5239596,-8.391727,-1.5713074
0.173103,-0.036694612,0.090886585,-1.4763815,-8.129738,-1.5222511
0.16769972,-0.035549216,0.08804962,-1.4302974,-7.875973,-1.4747351
0.16246599,-0.03443976,0.08530168,-1.3856592,-7.6301723,-1.4287102
0.15739642,-0.033365108,0.08263994,-1.3424213,-7.3920813,-1.3841288
0.15248577,-0.032324143,0.080061644,-1.3005389,-7.1614547,-1.3409452
0.14772902,-0.0313158,0.07756414,-1.2599689,-6.938055,-1.2991148
0.14312127,-0.030339044,0.07514487,-1.2206697,-6.721653,-1.2585946
0.13865781,-0.02939287,0.07280136,-1.1826012,-6.5120273,-1.2193433
0.13433404,-0.028476313,0.0705312,-1.1457242,-6.308963,-1.1813205
0.13014558,-0.027588436,0.06833207,-1.1100011,-6.1122527,-1.1444876
0.12608811,-0.026728332,0.066201724,-1.0753953,-5.921695,-1.1088067
0.122157544,-0.025895122,0.064138,-1.0418718,-5.737097,-1.0742416
0.11834985,-0.025087962,0.0621388,-1.0093963,-5.5582695,-1.0407571
0.11466115,-0.024306027,0.060202073,-0.9779357,-5.3850307,-1.0083191
0.11108772,-0.023548525,0.058325864,-0.94745815,-5.2172055,-0.9768946
0.10762591,-0.022814687,0.056508265,-0.9179327,-5.0546227,-0.94645184
0.10427222,-0.022103766,0.054747432,-0.8893293,-4.897117,-0.9169598
0.10102325,-0.021415045,0.05304158,-0.8616191,-4.74453,-0.8883887
0.09787571,-0.020747826,0.051388986,-0.83477396,-4.596707,-0.8607095
0.094826415,-0.020101432,0.049787976,-0.8087668,-4.4534974,-0.8338943
0.09187228,-0.01947521,0.04823693,-0.78357124,-4.3147573,-0.807916
0.08901033,-0.01886853,0.04673428,-0.7591619,-4.1803465,-0.7827482
0.08623766,-0.018280778,0.045278512,-0.73551404,-4.0501294,-0.7583657
0.08355149,-0.017711358,0.043868154,-0.7126039,-3.9239738,-0.7347437
0.0809491,-0.0171597,0.042501785,-0.6904083,-3.801753,-0.7118586
0.078427866,-0.016625246,0.04117803,-0.6689049,-3.6833441,-0.6896871
0.07598525,-0.016107457,0.03989555,-0.64807206,-3.5686274,-0.66820693
0.07361879,-0.015605812,0.038653057,-0.62788874,-3.4574873,-0.64739656
0.071326114,-0.015119807,0.0374493,-0.60833466,-3.3498123,-0.62723494
0.0691049,-0.014648952,0.03628307,-0.58939016,-3.2454937,-0.60770184
0.06695293,-0.014192773,0.035153188,-0.5710361,-3.1444266,-0.5887776
0.064868025,-0.013750812,0.034058522,-0.5532541,-3.0465097,-0.57044315
0.0628481,-0.013322625,0.032997973,-0.5360263,-2.9516442,-0.5526801
0.060891114,-0.012907781,0.03197047,-0.5193354,-2.859735,-0.53547055
0.058995113,-0.012505864,0.03097499,-0.5031645,-2.77069,-0.5187973
0.057158183,-0.01211647,0.030010523,-0.48749754,-2.6844192,-0.5026436
0.055378493,-0.011739208,0.029076107,-0.47231868,-2.6008363,-0.4869931
0.053654242,-0.0113737,0.028170802,-0.4576127,-2.5198574,-0.47183022
0.05198371,-0.011019577,0.0272937,-0.44336486,-2.4414012,-0.45713973
0.050365217,-0.010676487,0.026443921,-0.42956084,-2.365389,-0.44290683
0.048797138,-0.010344083,0.025620611,-0.41618684,-2.2917447,-0.42911732
0.0472779,-0.010022034,0.024822947,-0.4032294,-2.2203941,-0.4157573
0.045805987,-0.009710016,0.024050128,-0.39067554,-2.151266,-0.4028134
0.044379912,-0.009407715,0.023301378,-0.37851268,-2.084291,-0.39027268
0.042998258,-0.009114829,0.022575948,-0.36672866,-2.0194018,-0.3781225
0.041659627,-0.008831065,0.02187311,-0.3553116,-1.9565336,-0.36635074
0.04036269,-0.008556138,0.021192161,-0.3442501,-1.8956231,-0.3549456
0.039106138,-0.008289772,0.020532416,-0.33353308,-1.8366095,-0.34389558
0.037888717,-0.008031702,0.019893218,-0.3231498,-1.7794336,-0.33318973
0.036709204,-0.0077816676,0.019273924,-0.31308985,-1.7240382,-0.3228172
0.035566423,-0.007539419,0.018673914,-0.30334315,-1.6703677,-0.31276768
0.034459226,-0.0073047136,0.018092586,-0.29389995,-1.6183685,-0.3030311
0.033386502,-0.0070773163,0.017529361,-0.2847508,-1.5679883,-0.29359767
0.03234718,-0.0068569994,0.016983671,-0.27588648,-1.5191768,-0.28445798
0.03134022,-0.0066435426,0.016454974,-0.2672982,-1.4718852,-0.27560288
0.03036461,-0.0064367317,0.015942737,-0.25897732,-1.426066,-0.26702344
0.029419377,-0.00623636,0.015446449,-0.2509155,-1.3816733,-0.25871116
0.028503574,-0.0060422267,0.0149656115,-0.24310468,-1.3386629,-0.25065768
0.027616283,-0.0058541372,0.014499745,-0.23553705,-1.2969915,-0.24285494
0.026756618,-0.0056719044,0.014048384,-0.22820503,-1.2566175,-0.23529512
0.025923716,-0.0054953448,0.013611074,-0.22110127,-1.2175004,-0.22797064
0.025116744,-0.0053242818,0.013187379,-0.21421868,-1.1796013,-0.22087422
0.024334896,-0.0051585445,0.012776875,-0.20755036,-1.142882,-0.21399872
0.023577388,-0.004997967,0.01237915,-0.20108964,-1.1073058,-0.20733728
0.022843461,-0.0048423884,0.011993808,-0.19483005,-1.0728372,-0.2008832
0.022132386,-0.004691653,0.011620461,-0.18876532,-1.0394417,-0.19463006
0.021443445,-0.0045456104,0.011258737,-0.1828894,-1.0070858,-0.18857159
0.020775951,-0.0044041146,0.010908275,-0.17719641,-0.9757371,-0.1827017
0.020129237,-0.0042670234,0.010568722,-0.17168064,-0.94536436,-0.17701457
0.019502657,-0.0041341996,0.01023974,-0.16633658,-0.9159371,-0.17150448
0.018895581,-0.004005511,0.0099209985,-0.16115887,-0.887426,-0.16616592
0.018307403,-0.0038808284,0.00961218,-0.15614237,-0.8598024,-0.16099353
0.017737536,-0.003760027,0.009312975,-0.15128201,-0.83303875,-0.15598218
0.017185409,-0.0036429863,0.009023084,-0.14657296,-0.80710816,-0.15112682
0.016650468,-0.003529589,0.008742217,-0.1420105,-0.78198487,-0.14642261
0.01613218,-0.0034197215,0.008470094,-0.13759005,-0.7576436,-0.14186484
0.015630025,-0.0033132741,0.008206441,-0.13330722,-0.73406005,-0.13744894
0.0151435025,-0.0032101404,0.007950995,-0.1291577,-0.7112106,-0.1331705
