ax,ay,az,gx,gy,gz
-0.4654588,1.6836517,-1.9354721,-6.2700567,-8.267347,11.374649
-0.6586858,1.7681522,-1.9776527,-9.651516,-15.67005,11.829366
-0.8323274,1.7907246,-2.0608184,-11.700221,-20.448689,10.235394
-0.93555605,1.7249389,-2.079958,-9.299093,-22.853756,6.0860524
-0.90486366,1.5734185,-1.9027838,-5.5253654,-23.848038,1.7060049
-0.72582614,1.3668178,-1.594181,-0.82324004,-24.28509,-2.1317067
-0.52589005,1.1641711,-1.3543733,3.414795,-24.216425,-3.9530911
-0.35462156,1.0413742,-1.1956106,6.989381,-24.471348,-5.0209866
-0.1872629,0.9920899,-1.0837913,9.847301,-24.128637,-5.9111714
-0.036569554,0.9655944,-1.0143368,11.946822,-23.455105,-6.74527
0.09985203,0.93223965,-0.9934117,13.565165,-22.19532,-7.351534
0.18731025,0.8502874,-1.083837,15.067748,-21.429478,-7.6541443
0.24749035,0.77442694,-1.2440226,16.071451,-21.375166,-7.608117
0.3104398,0.7277745,-1.4401867,16.280796,-21.873638,-7.229365
0.37778106,0.70234025,-1.6830816,15.941051,-22.877392,-6.7053475
0.46422884,0.71583104,-1.9645859,15.662682,-23.894829,-6.587516
0.5487778,0.7454708,-2.2495215,15.217885,-24.773855,-6.661492
0.6089698,0.7849951,-2.5467427,14.579829,-25.877642,-6.8387218
0.64283353,0.8255368,-2.865455,13.963412,-27.653818,-7.2497864
0.6640974,0.852619,-3.188767,13.405749,-30.418318,-7.8668504
0.6585038,0.8489855,-3.502376,12.875615,-33.814884,-8.546121
0.6228261,0.81810904,-3.7661362,13.037286,-37.67267,-9.575441
0.56631804,0.7902219,-3.9569802,13.648708,-42.04749,-10.428195
0.5034768,0.82213575,-4.086678,14.173408,-47.07528,-11.145539
0.44313562,0.89244574,-4.1569624,14.036878,-52.823822,-11.860997
0.39374867,0.96211195,-4.1619024,13.256668,-59.210968,-12.92762
0.38916722,1.0151038,-4.065233,12.373926,-65.64152,-14.277551
0.45080644,1.0578251,-3.8859155,11.458823,-71.7394,-15.907971
0.56760406,1.0679095,-3.6345122,10.62365,-77.19235,-17.780348
0.7219616,1.033939,-3.326442,9.675547,-81.9225,-19.60845
0.9076677,0.9344214,-2.9490924,8.665663,-85.8779,-21.258402
1.1096212,0.77860576,-2.5409362,7.6897078,-88.9151,-22.323057
1.3049772,0.6162577,-2.1341689,6.7786093,-91.16778,-22.89771
1.4792632,0.46978185,-1.7425231,5.883793,-92.43357,-22.962267
1.617312,0.34392554,-1.3624618,5.1528063,-92.77623,-22.68206
1.7085907,0.24348187,-0.9703886,4.5204835,-92.41136,-22.212963
1.7706727,0.16259944,-0.5802363,4.1047974,-91.319305,-21.580574
1.816465,0.1194877,-0.19571204,3.5704672,-89.52378,-20.70337
1.847304,0.1228694,0.16923052,2.8182607,-87.070366,-19.67893
1.8599081,0.1692761,0.5038718,1.8024182,-84.16777,-18.704931
1.8312004,0.2525391,0.81357956,0.40243912,-80.75579,-17.919415
1.7831976,0.3675941,1.1060512,-1.1795974,-77.11679,-17.357624
1.7356114,0.5110572,1.3673792,-2.8848162,-73.12221,-17.083328
1.686564,0.66786754,1.5768722,-4.6989927,-68.919975,-17.06635
1.638593,0.8424568,1.7271707,-7.0617657,-64.53807,-17.406828
1.6041005,1.0436429,1.8031628,-9.976596,-60.26984,-18.237843
1.5936732,1.2317327,1.8420222,-13.146211,-55.937508,-19.569681
1.5954679,1.4079299,1.8390718,-16.49062,-51.485973,-21.320528
1.5973612,1.5663006,1.7842115,-19.76151,-46.948353,-23.417486
1.5888051,1.7007558,1.6674371,-22.477009,-42.418087,-26.023506
1.5549157,1.8092984,1.4735242,-24.747057,-38.179577,-28.87385
1.497897,1.8905414,1.2461256,-26.63071,-34.35197,-31.956638
1.4200284,1.9365585,1.0043536,-27.998243,-31.05525,-35.31778
1.3314157,1.9397997,0.7643516,-28.91645,-28.247871,-38.788082
1.2424542,1.8925,0.5353285,-29.165623,-25.884583,-42.31336
1.1768324,1.807637,0.329752,-28.47706,-24.007114,-45.652462
1.1814086,1.6792724,0.16392963,-27.853724,-22.864449,-48.400143
1.2415007,1.501143,0.041558072,-27.492968,-22.247124,-50.44048
1.3464842,1.2629449,-0.037814412,-27.001554,-21.77155,-51.899254
1.4743818,0.97959584,-0.08475787,-25.988848,-21.137926,-52.51891
1.6012127,0.6818439,-0.10081198,-24.81556,-20.326424,-52.379208
1.6998563,0.39837044,-0.118150756,-23.487598,-19.39106,-51.57406
1.756127,0.14472531,-0.14464681,-22.059826,-18.4389,-50.218952
1.767376,-0.0686881,-0.179933,-20.563297,-17.551132,-48.473755
1.7414635,-0.23783836,-0.22002432,-19.067087,-16.790045,-46.3584
1.6820148,-0.35080335,-0.2644304,-17.659197,-16.272476,-44.113384
1.6121496,-0.42650703,-0.29890028,-16.404736,-16.026781,-41.776367
1.5399097,-0.46903855,-0.31352326,-15.391788,-15.974868,-39.37967
1.4665849,-0.4898284,-0.31190968,-14.533739,-16.049477,-37.03428
1.3926524,-0.5027481,-0.30333498,-13.484477,-16.251976,-34.862743
1.3228707,-0.5048575,-0.2869587,-12.271972,-16.574036,-32.884037
1.2633216,-0.4883601,-0.25395614,-11.351967,-16.790308,-30.924408
1.2095197,-0.46129408,-0.21670985,-10.890706,-16.875399,-28.919085
1.1559677,-0.43286777,-0.18630399,-10.777587,-17.08547,-26.989517
1.1085769,-0.41126686,-0.16190152,-10.935013,-17.655994,-25.19482
1.0828947,-0.4127774,-0.11421579,-11.237948,-18.393288,-23.45499
1.085427,-0.43529278,-0.03859094,-11.7528925,-19.050573,-21.62334
1.1149119,-0.4800365,0.06419841,-12.333958,-19.229599,-19.654675
1.1571981,-0.5498975,0.17829406,-12.730539,-18.900148,-17.578445
1.2047366,-0.63726574,0.29547563,-12.744836,-18.12915,-15.359689
1.1667831,-0.61718965,0.2861671,-12.3433275,-17.558018,-14.875803
1.1300523,-0.59776026,0.27715844,-11.954756,-17.005285,-14.407508
1.0945024,-0.5789556,0.26843944,-11.578676,-16.470324,-13.954268
1.0600934,-0.5607543,0.2600002,-11.214664,-15.952527,-13.515573
1.0267863,-0.543136,0.25183126,-10.862311,-15.451315,-13.090927
0.99454427,-0.52608097,0.24392352,-10.521224,-14.966128,-12.679859
0.96333134,-0.5095704,0.23626819,-10.191025,-14.49643,-12.281913
0.93311334,-0.49358606,0.22885688,-9.87135,-14.041702,-11.896651
0.90385705,-0.47811046,0.22168143,-9.56185,-13.601447,-11.52365
0.87553066,-0.46312675,0.21473405,-9.262186,-13.175185,-11.162505
0.84810346,-0.44861865,0.20800722,-8.972035,-12.762454,-10.812824
0.82154584,-0.43457055,0.20149365,-8.691084,-12.362809,-10.47423
0.7958293,-0.42096737,0.19518638,-8.41903,-11.975821,-10.146359
0.77092636,-0.40779454,0.18907864,-8.155584,-11.601076,-9.828861
0.7468105,-0.39503804,0.18316394,-7.9004636,-11.238175,-9.521399
0.72345614,-0.38268438,0.17743602,-7.6533995,-10.886733,-9.223644
0.7008386,-0.37072042,0.1718888,-7.4141297,-10.546379,-8.935284
0.678934,-0.35913363,0.16651644,-7.182402,-10.216754,-8.656013
0.6577194,-0.34791178,0.16131331,-6.957974,-9.8975115,-8.385538
0.6371725,-0.33704317,0.15627395,-6.7406096,-9.588317,-8.123578
0.6172719,-0.32651642,0.1513931,-6.5300827,-9.288849,-7.869857
0.5979969,-0.31632057,0.14666568,-6.3261733,-8.998794,-7.6241117
0.5793274,-0.30644503,0.14208677,-6.1286697,-8.717851,-7.3860865
0.5612441,-0.29687956,0.13765162,-5.9373674,-8.445729,-7.1555347
0.54372823,-0.28761426,0.13335566,-5.7520685,-8.182147,-6.932218
0.52676183,-0.27863955,0.12919445,-5.572582,-7.9268317,-6.7159057
0.5103273,-0.26994625,0.12516369,-5.3987217,-7.679521,-6.5063753
0.49440777,-0.26152533,0.12125924,-5.23031,-7.4399605,-6.3034105
0.47898692,-0.25336823,0.1174771,-5.067174,-7.2079043,-6.106804
0.46404892,-0.24546652,0.113813385,-4.909146,-6.983114,-5.916353
0.4495785,-0.23781215,0.110264346,-4.756064,-6.76536,-5.7318635
0.43556085,-0.23039728,0.10682636,-4.6077724,-6.554419,-5.553147
0.4219817,-0.22321434,0.10349591,-4.464119,-6.3500767,-5.3800206
0.40882716,-0.21625604,0.10026961,-4.324958,-6.1521244,-5.212308
0.39608386,-0.20951526,0.097144164,-4.1901474,-5.96036,-5.049838
0.38373885,-0.20298514,0.094116405,-4.0595503,-5.7745895,-4.8924465
0.37177953,-0.19665907,0.091183245,-3.9330335,-5.594623,-4.739972
0.36019382,-0.19053061,0.08834172,-3.810469,-5.420279,-4.5922613
0.34896997,-0.18459356,0.08558893,-3.6917324,-5.2513795,-4.4491634
0.33809656,-0.1788419,0.08292211,-3.5767033,-5.0877542,-4.310534
0.32756263,-0.1732698,0.08033854,-3.4652655,-4.9292374,-4.1762323
0.3173575,-0.16787161,0.07783561,-3.357306,-4.775668,-4.046123
0.30747086,-0.1626419,0.07541079,-3.2527156,-4.6268916,-3.920074
0.2978927,-0.15757537,0.07306164,-3.151389,-4.482757,-3.7979581
0.28861335,-0.15266691,0.070785776,-3.0532234,-4.3431196,-3.679652
0.27962348,-0.14791156,0.0685809,-2.95812,-4.207838,-3.5650363
0.27091402,-0.14330454,0.06644481,-2.865983,-4.0767756,-3.4539957
0.26247615,-0.1388412,0.06437532,-2.7767193,-3.949801,-3.346418
0.2543014,-0.13451703,0.062370367,-2.6902392,-3.8267853,-3.2421944
0.24638152,-0.13032767,0.06042793,-2.6064553,-3.7076054,-3.1412208
0.23870857,-0.12626894,0.058546048,-2.5252836,-3.592141,-3.043395
0.2312748,-0.122336715,0.056722827,-2.4466422,-3.4802759,-2.948619
0.22407274,-0.11852706,0.05495644,-2.3704522,-3.3718977,-2.8567967
0.21709515,-0.11483615,0.053245105,-2.2966366,-3.2668972,-2.7678366
0.210335,-0.11126026,0.0515871,-2.2251215,-3.1651692,-2.6816487
0.20378554,-0.107795805,0.049980767,-2.155835,-3.0666113,-2.5981467
0.19744015,-0.1044393,0.048424486,-2.0887074,-2.9711244,-2.5172467
0.19129246,-0.101187386,0.046916697,-2.0236716,-2.8786128,-2.4388673
0.18533634,-0.09803679,0.045455888,-1.960662,-2.7889833,-2.36293
0.17956576,-0.09498434,0.044040587,-1.8996154,-2.7021463,-2.2893586
0.17397495,-0.092026986,0.042669374,-1.8404706,-2.6180146,-2.218079
0.1685583,-0.08916176,0.04134088,-1.7831682,-2.5365038,-2.14902
0.16331038,-0.08638579,0.040053766,-1.7276508,-2.457532,-2.082112
0.15822592,-0.083696276,0.038806744,-1.6738626,-2.3810198,-2.0172882
0.15329984,-0.08109054,0.03759856,-1.6217498,-2.3068907,-1.9544835
0.14852716,-0.078565955,0.036428012,-1.57126,-2.2350707,-1.8936348
0.14390315,-0.076120004,0.035293918,-1.5223428,-2.1654873,-1.8346812
0.13942313,-0.07375022,0.03419514,-1.474949,-2.098071,-1.7775637
0.13508263,-0.07145424,0.033130586,-1.4290311,-2.0327544,-1.7222248
0.13087732,-0.06922977,0.03209918,-1.3845433,-1.9694717,-1.6686094
0.12680295,-0.06707456,0.031099893,-1.3414408,-1.9081596,-1.6166636
0.12285545,-0.06498647,0.030131726,-1.2996805,-1.8487568,-1.5663353
0.11903088,-0.0629634,0.029193705,-1.2592205,-1.7912037,-1.5175743
0.1153254,-0.061003316,0.028284892,-1.2200204,-1.7354429,-1.4703315
0.11173529,-0.05910427,0.027404377,-1.1820409,-1.6814182,-1.4245598
0.10825697,-0.057264358,0.026551278,-1.145244,-1.6290756,-1.3802133
0.10488696,-0.05548173,0.025724743,-1.1095928,-1.5783628,-1.3372475
0.101621866,-0.053754605,0.024923943,-1.0750517,-1.529229,-1.2956195
0.09845844,-0.052081253,0.024148075,-1.0415859,-1.481625,-1.2552876
0.095393494,-0.050460003,0.023396362,-1.0091621,-1.4355031,-1.2162114
0.09242398,-0.048889227,0.022668054,-0.9777478,-1.3908172,-1.1783519
0.08954692,-0.047367357,0.021962421,-0.9473115,-1.3475225,-1.1416711
0.08675943,-0.04589287,0.021278758,-0.91782284,-1.3055757,-1.1061321
0.084058724,-0.044464283,0.020616377,-0.8892522,-1.2649348,-1.0716997
0.081442095,-0.043080173,0.01997462,-0.861571,-1.2255592,-1.0383393
0.07890692,-0.04173915,0.01935284,-0.83475167,-1.1874094,-1.0060173
0.07645068,-0.04043988,0.018750418,-0.8087672,-1.1504474,-0.97470164
0.07407091,-0.039181057,0.018166749,-0.7835917,-1.114636,-0.94436085
0.071765214,-0.037961423,0.017601252,-0.7591999,-1.0799394,-0.9149647
0.0695313,-0.036779758,0.017053358,-0.7355675,-1.046323,-0.88648355
0.067366935,-0.03563488,0.016522523,-0.71267074,-1.0137529,-0.8588891
0.06526994,-0.03452564,0.016008211,-0.6904868,-0.9821969,-0.8321537
0.063238226,-0.03345093,0.015509909,-0.6689934,-0.95162326,-0.8062505
0.061269764,-0.032409675,0.015027121,-0.64816916,-0.92200136,-0.78115374
0.059362575,-0.031400837,0.01455936,-0.6279931,-0.89330155,-0.7568382
0.057514757,-0.030423403,0.014106162,-0.60844517,-0.8654952,-0.73327965
0.05572446,-0.029476397,0.013667071,-0.58950573,-0.8385544,-0.7104544
0.053989895,-0.028558869,0.013241649,-0.5711559,-0.81245226,-0.6883397
0.052309327,-0.027669903,0.0128294695,-0.5533772,-0.78716266,-0.6669134
0.05068107,-0.026808608,0.012430121,-0.536152,-0.7626603,-0.6461541
