ax,ay,az,gx,gy,gz
0.27818435,1.7136519,-0.50000453,-50.105003,77.57071,-40.50582
0.401025,1.5765953,-0.52191985,-58.453655,80.71362,-40.86516
0.47243658,1.1149219,-0.7830638,-57.70984,84.374245,-37.915573
0.27819726,0.7939983,-1.3656904,-60.257103,82.15696,-35.32757
-0.09672659,0.34472862,-2.1234136,-63.517593,74.66559,-33.487366
-0.5432636,-0.18661454,-2.9923327,-63.13703,57.76384,-32.359493
-1.0476241,-0.9255685,-4.023347,-59.735836,37.33217,-32.59321
-1.2797759,-1.9271781,-5.026492,-52.78906,17.408106,-32.48574
-1.4731725,-3.0861502,-6.166204,-41.73529,-2.7672925,-32.1341
-1.6418526,-4.354525,-7.375285,-22.88452,-23.177845,-29.874094
-1.745775,-5.5042806,-8.608357,3.8896384,-48.963253,-22.783577
-1.5170578,-6.4453073,-9.734694,31.040066,-75.48006,-12.160153
-0.9282308,-7.0936685,-10.531733,60.380486,-97.62241,1.2183502
-0.09520342,-7.536099,-11.026408,89.360954,-114.01052,18.213501
1.0106225,-7.9085836,-11.283073,116.4537,-125.18199,41.05043
2.236299,-8.053715,-11.42777,139.28691,-133.02586,74.526054
3.5529916,-7.1604114,-11.018192,150.56395,-139.88893,108.66842
4.6843724,-5.9895744,-10.175923,156.17032,-142.7254,133.55222
5.6385264,-4.9977283,-9.152693,161.82224,-139.06189,147.24637
6.4235215,-4.08865,-8.120217,166.92181,-130.52443,154.34398
7.0335994,-3.196294,-7.1565247,166.21391,-119.83417,160.5926
7.667355,-2.3100255,-6.143985,160.01772,-107.955315,168.44093
8.247326,-1.4302707,-5.2086196,150.81985,-94.40031,176.64697
8.712971,-0.55547416,-4.397314,140.53273,-78.7447,182.67644
9.0773945,0.22290973,-3.7613237,130.62613,-61.67838,185.45288
9.352109,0.9561939,-3.2726247,119.91906,-44.193077,185.53609
9.577374,1.505246,-2.9292197,107.68185,-26.34585,185.62177
9.809512,1.8658303,-2.7561069,94.22332,-8.6671,186.95323
10.014948,2.164658,-2.7210913,80.47735,8.215201,188.37248
10.200775,2.5004492,-2.7239995,68.371605,25.72492,187.38771
10.356008,2.8481503,-2.8095627,57.54974,44.047504,182.84239
10.289562,3.2828665,-3.167197,45.574745,57.747093,177.14114
10.0599,3.6767952,-3.544504,33.22782,67.65913,171.48082
9.813194,4.083061,-3.9137416,20.432,74.962,165.53665
9.533923,4.4624786,-4.346181,8.53834,80.46071,157.6313
9.081227,4.690974,-4.933836,2.4428854,82.69307,144.71828
8.548983,4.874981,-5.4650197,1.4455521,81.76309,127.776085
8.067825,5.179559,-5.821244,1.9458238,78.39042,108.400375
7.7012525,5.5810757,-6.013024,1.4566393,72.80059,87.62523
7.361218,5.9787254,-6.188063,-0.5271122,64.023476,65.08931
7.0617895,6.207157,-6.4193063,-1.6748273,50.559155,41.447735
6.9059734,6.3815203,-6.7019234,-1.5643865,34.42909,17.438643
6.965679,6.468019,-6.8944473,1.1413101,17.775381,-6.2376685
7.2335696,6.446962,-6.834225,4.414113,2.936074,-27.78181
7.63074,6.390297,-6.4997134,6.474929,-7.8502707,-46.597866
8.006917,6.2292557,-6.163761,8.956283,-15.329587,-63.530697
8.41514,5.9813876,-5.82037,9.310752,-20.568571,-77.68999
8.830756,5.56517,-5.502725,7.701883,-23.94099,-87.46003
9.183232,5.0063915,-5.2377872,6.3301334,-25.353453,-91.88217
9.338168,4.5176783,-5.0477257,5.484347,-26.542536,-92.36558
9.391992,4.202946,-4.809384,3.7925067,-27.063604,-90.9054
9.438609,3.9790237,-4.4573417,1.9342748,-25.55307,-89.6571
9.418545,3.7383578,-4.1691933,0.47089803,-22.682823,-88.4868
9.305799,3.4233148,-4.0005784,-0.34669554,-19.745867,-86.83266
9.171407,3.0745034,-3.8550625,-1.0327792,-17.1001,-83.52544
9.047671,2.7461228,-3.6896245,-2.062232,-14.499354,-77.900696
8.924336,2.5005136,-3.4852014,-3.654237,-11.349188,-71.49359
8.809064,2.302352,-3.2599468,-7.155026,-7.098673,-64.55985
8.5212755,2.2271352,-3.153446,-6.9212747,-6.8667626,-62.45071
8.243713,2.154591,-3.0507295,-6.6958294,-6.6430926,-60.416515
7.9759393,2.0846052,-2.9516346,-6.4783335,-6.42731,-58.454052
7.7175384,2.017069,-2.856009,-6.2684517,-6.219081,-56.560284
7.4681215,1.951881,-2.763708,-6.0658665,-6.018091,-54.732357
7.22732,1.8889447,-2.6745954,-5.8702793,-5.8240447,-52.967575
6.9947863,1.8281693,-2.5885422,-5.6814075,-5.63666,-51.26338
6.7701902,1.7694684,-2.5054264,-5.4989824,-5.4556723,-49.61736
6.553219,1.7127606,-2.4251325,-5.322751,-5.280829,-48.02722
6.3435764,1.657968,-2.3475506,-5.152472,-5.111891,-46.49079
6.1409807,1.6050172,-2.2725766,-4.987917,-4.948632,-45.00601
5.9451637,1.5538383,-2.2001112,-4.828868,-4.7908354,-43.570908
5.7558713,1.5043644,-2.1300602,-4.6751175,-4.638296,-42.18362
5.57286,1.4565322,-2.0623336,-4.5264697,-4.490819,-40.842365
5.395898,1.4102812,-1.9968457,-4.3827353,-4.3482165,-39.54545
5.224765,1.3655535,-1.933515,-4.243735,-4.210311,-38.29125
5.0592494,1.3222941,-1.8722632,-4.1092973,-4.0769324,-37.07822
4.8991504,1.2804503,-1.8130156,-3.9792593,-3.9479184,-35.904884
4.744274,1.2399715,-1.755701,-3.8534634,-3.8231132,-34.76983
4.594436,1.2008097,-1.7002509,-3.73176,-3.7023683,-33.671696
4.44946,1.1629184,-1.6465999,-3.6140053,-3.585541,-32.609196
4.309176,1.1262536,-1.5946853,-3.5000618,-3.472495,-31.581081
4.1734214,1.0907725,-1.5444471,-3.3897972,-3.3630989,-30.586164
4.042041,1.0564346,-1.4958273,-3.283085,-3.2572274,-29.6233
3.9148839,1.0232008,-1.4487708,-3.179804,-3.1547596,-28.691395
3.7918072,0.9910332,-1.4032241,-3.0798368,-3.05558,-27.78939
3.6726725,0.95989597,-1.3591362,-2.9830716,-2.9595768,-26.916277
3.557347,0.9297543,-1.316458,-2.8894002,-2.8666432,-26.07108
3.4457028,0.9005748,-1.2751422,-2.7987192,-2.7766762,-25.252863
3.3376172,0.87232536,-1.2351432,-2.7109282,-2.6895766,-24.460724
3.2329714,0.844975,-1.1964172,-2.6259313,-2.6052494,-23.693796
3.1316519,0.8184939,-1.1589222,-2.543636,-2.5236022,-22.951246
3.0335486,0.7928534,-1.1226174,-2.463953,-2.444547,-22.232265
2.9385557,0.76802593,-1.0874635,-2.3867965,-2.367998,-21.536081
2.8465712,0.7439847,-1.053423,-2.3120835,-2.2938735,-20.861946
2.7574968,0.7207041,-1.0204597,-2.2397344,-2.222094,-20.209139
2.6712377,0.6981593,-0.9885379,-2.1696718,-2.1525834,-19.576963
2.5877025,0.67632633,-0.95762426,-2.1018214,-2.0852673,-18.96475
2.5068026,0.65518224,-0.92768586,-2.0361118,-2.0200753,-18.371851
2.428453,0.6347046,-0.8986912,-1.9724735,-1.9569381,-17.797642
2.3525712,0.61487204,-0.8706098,-1.9108397,-1.8957897,-17.24152
2.2790778,0.59566367,-0.84341234,-1.8511459,-1.8365661,-16.702902
2.2078962,0.5770595,-0.8170703,-1.7933296,-1.7792053,-16.181227
2.138952,0.5590402,-0.79155636,-1.7373309,-1.7236476,-15.675949
2.0721738,0.54158694,-0.7668439,-1.6830913,-1.6698352,-15.186544
2.0074923,0.5246816,-0.7429074,-1.6305548,-1.6177124,-14.712507
1.9448407,0.50830686,-0.71972203,-1.5796669,-1.5672253,-14.2533455
1.8841541,0.49244574,-0.6972639,-1.5303751,-1.5183218,-13.808585
1.82537,0.47708184,-0.67550987,-1.4826287,-1.4709514,-13.3777685
1.7684281,0.4621994,-0.65443754,-1.4363785,-1.4250655,-12.960453
1.7132698,0.44778314,-0.6340253,-1.391577,-1.3806169,-12.55621
1.6598387,0.43381828,-0.61425215,-1.3481784,-1.33756,-12.164623
1.60808,0.42029056,-0.59509796,-1.3061383,-1.295851,-11.785295
1.5579408,0.4071861,-0.5765431,-1.2654135,-1.255447,-11.417834
1.5093701,0.39449155,-0.5585686,-1.2259626,-1.2163068,-11.06187
1.4623182,0.38219398,-0.54115623,-1.1877453,-1.1783906,-10.717035
1.4167371,0.37028083,-0.5242882,-1.1507229,-1.1416597,-10.38298
1.3725806,0.35874003,-0.5079473,-1.1148574,-1.1060768,-10.059367
1.329804,0.34755984,-0.49211702,-1.0801127,-1.0716057,-9.745865
1.2883635,0.33672887,-0.47678128,-1.0464534,-1.0382115,-9.442156
1.2482172,0.3262362,-0.46192446,-1.0138452,-1.0058601,-9.147933
1.2093246,0.31607115,-0.44753158,-0.9822553,-0.974519,-8.862896
1.1716462,0.30622345,-0.43358803,-0.9516516,-0.9441563,-8.586759
1.1351439,0.29668313,-0.42007968,-0.9220031,-0.91474134,-8.319241
1.0997807,0.28744054,-0.4069929,-0.89327985,-0.88624436,-8.060071
1.0655209,0.27848637,-0.3943145,-0.86545295,-0.85863656,-7.808988
1.03233,0.26981154,-0.38203165,-0.8384941,-0.8318901,-7.5657387
1.0001745,0.26140732,-0.37013194,-0.8123763,-0.805978,-7.330077
0.9690219,0.25326523,-0.3586034,-0.7870731,-0.7808741,-7.101766
0.9388408,0.24537705,-0.34743434,-0.762559,-0.75655305,-6.880575
0.90960085,0.23773484,-0.3366136,-0.7388093,-0.7329904,-6.6662817
0.8812726,0.23033091,-0.32613024,-0.7158001,-0.7101624,-6.458669
0.8538275,0.22315782,-0.3159737,-0.6935082,-0.6880461,-6.2575297
0.8272379,0.21620832,-0.30613375,-0.67191124,-0.66661924,-6.06266
0.80147713,0.20947544,-0.29660055,-0.65098745,-0.64586025,-5.8738647
0.7765193,0.2029524,-0.28736445,-0.6307158,-0.6257483,-5.6909533
0.7523392,0.19663267,-0.2784162,-0.61107594,-0.60626304,-5.5137424
0.72891265,0.19050986,-0.26974678,-0.59204805,-0.58738506,-5.342054
0.70621604,0.18457784,-0.26134753,-0.5736131,-0.5690953,-5.1757154
0.6842267,0.17883065,-0.25320995,-0.5557526,-0.55137545,-5.0145593
0.6629224,0.17326254,-0.24532594,-0.5384485,-0.53420764,-4.8584247
0.64228183,0.16786788,-0.23768754,-0.5216835,-0.5175747,-4.7071543
0.6222843,0.16264129,-0.2302871,-0.50544083,-0.50145996,-4.560596
0.6029097,0.15757751,-0.2231172,-0.4897041,-0.48584718,-4.4186034
0.58413863,0.15267147,-0.21617064,-0.4744576,-0.47072074,-4.281034
0.56595224,0.14791824,-0.20944044,-0.45968595,-0.45606545,-4.14775
0.5483323,0.14331307,-0.20291987,-0.44537443,-0.44186664,-4.0186167
0.5312611,0.13885131,-0.1966024,-0.43150866,-0.42811006,-3.8935056
0.51472163,0.13452853,-0.19048168,-0.4180747,-0.41478193,-3.7722912
0.49869725,0.13034037,-0.18455157,-0.40505916,-0.40186888,-3.6548517
0.48317188,0.12628263,-0.17880616,-0.39244893,-0.38935798,-3.5410695
0.46813002,0.12235127,-0.17323965,-0.3802314,-0.37723666,-3.4308307
0.45355657,0.11854232,-0.16784649,-0.36839435,-0.36549285,-3.3240247
0.43943694,0.11485199,-0.16262127,-0.35692587,-0.3541147,-3.2205448
0.42575696,0.11127657,-0.15755875,-0.34581453,-0.3430909,-3.120287
0.41250297,0.10781248,-0.15265389,-0.33504918,-0.3324103,-3.0231512
0.39966166,0.10445626,-0.14790174,-0.32461902,-0.3220623,-2.9290397
0.3872202,0.10120454,-0.14329755,-0.31451365,-0.3120365,-2.837859
0.37516612,0.09805406,-0.13883674,-0.3047229,-0.3023229,-2.749517
0.36348733,0.095001675,-0.13451481,-0.295237,-0.29291168,-2.6639254
0.3521722,0.09204432,-0.13032743,-0.28604645,-0.2837935,-2.5809991
0.34120932,0.089179054,-0.12627044,-0.27714202,-0.27495924,-2.5006545
0.33058777,0.08640299,-0.12233975,-0.26851484,-0.2664,-2.4228113
0.32029694,0.08371335,-0.11853144,-0.26015624,-0.25810724,-2.3473916
0.31032646,0.08110746,-0.1148417,-0.25205788,-0.25007266,-2.2743201
0.30066642,0.07858269,-0.11126682,-0.24421166,-0.24228823,-2.2035236
0.2913071,0.07613652,-0.10780325,-0.2366097,-0.23474614,-2.134931
0.28223914,0.07376651,-0.1044475,-0.2292444,-0.22743885,-2.0684738
0.2734535,0.071470276,-0.10119622,-0.2221084,-0.22035906,-2.0040855
0.26494136,0.06924553,-0.098046154,-0.21519455,-0.21349967,-1.941702
0.25669423,0.06709005,-0.09499416,-0.20849594,-0.2068538,-1.8812604
0.24870384,0.06500166,-0.09203717,-0.20200586,-0.20041485,-1.8227004
0.24096219,0.06297829,-0.089172244,-0.19571783,-0.19417635,-1.7659633
0.23346154,0.06101791,-0.08639649,-0.18962553,-0.18813203,-1.7109926
0.22619438,0.05911855,-0.08370716,-0.1837229,-0.18227589,-1.6577331
0.21915346,0.057278324,-0.081101544,-0.17800401,-0.17660205,-1.6061316
0.21233171,0.05549538,-0.078577034,-0.17246316,-0.17110483,-1.5561364
0.20572232,0.05376794,-0.07613112,-0.16709478,-0.16577874,-1.5076975
0.19931868,0.052094273,-0.07376134,-0.16189353,-0.16061844,-1.4607664
0.19311439,0.050472707,-0.07146533,-0.15685418,-0.15561879,-1.4152964
0.18710321,0.048901618,-0.06924079,-0.1519717,-0.15077476,-1.3712418
0.18127917,0.047379434,-0.067085505,-0.14724122,-0.14608154,-1.3285586
