ax,ay,az,gx,gy,gz
-0.4609133,-0.5527323,-1.8272893,-86.89261,-12.318294,-40.284004
-0.7406407,-1.1169968,-2.374612,-88.502304,-20.611538,-44.791378
-0.883273,-1.8741755,-2.749933,-83.98499,-28.211256,-46.09588
-1.0489409,-2.7297351,-3.2951362,-71.030266,-39.055927,-43.656887
-1.2006823,-4.0993013,-4.22364,-46.381725,-48.94422,-40.51044
-1.0708253,-5.4362445,-4.967577,-19.484365,-57.58127,-35.887077
-0.5683076,-6.442151,-5.2960525,5.780695,-60.844402,-28.247448
-0.12592575,-7.2910037,-5.631699,28.14872,-60.86069,-18.807135
0.17176798,-8.023341,-6.062659,51.855305,-60.681293,-5.7686
0.5091869,-8.39055,-6.4092574,72.9544,-62.520435,8.473067
1.0022227,-8.614826,-6.5394454,93.066376,-64.34029,24.619665
1.6253493,-8.561081,-6.422928,113.16493,-64.27642,41.833614
2.180153,-7.9039507,-6.0653114,130.12839,-62.974407,56.16315
2.6163907,-6.9865623,-5.495409,141.36356,-60.01545,64.44677
3.0369277,-6.1130857,-4.8037705,148.06845,-56.31199,71.476135
3.413171,-5.1791067,-4.0543866,150.44098,-52.099712,78.225334
3.761778,-4.223087,-3.266268,148.99419,-47.19606,85.63499
4.046487,-3.236263,-2.4942436,143.8989,-41.785572,93.799126
4.27507,-2.1867013,-1.734049,135.1545,-35.015877,100.549614
4.45838,-1.1471964,-1.0492138,125.48325,-26.95404,104.30048
4.5808754,-0.28844875,-0.52641565,116.46432,-17.650757,104.96344
4.6659884,0.42408526,-0.13853501,107.73135,-7.976971,104.34987
4.73185,1.0239631,0.116746955,97.26301,1.6684644,103.37889
4.776406,1.5177,0.24538383,84.23153,10.803222,102.79358
4.7847733,1.9124149,0.23759483,70.39011,19.14386,102.38241
4.7869987,2.264937,0.16146575,57.30256,27.248714,101.37276
4.745349,2.540866,-0.009117998,46.892666,35.431732,98.160355
4.639289,2.7489126,-0.26137543,39.34786,43.030777,93.05423
4.494711,2.972418,-0.53201586,31.884031,49.21011,87.3753
4.3045936,3.1733346,-0.87023973,23.923386,53.864174,81.97214
4.096003,3.2826977,-1.2701737,15.839675,56.764744,76.99994
3.8853557,3.3080184,-1.6935773,8.921932,58.532898,72.07135
3.6392944,3.3100588,-2.1223757,4.2169056,59.522175,66.04086
3.3604975,3.3223507,-2.5348449,1.6745453,59.120007,58.801636
3.0536416,3.391619,-2.907319,-0.7347321,57.250713,51.583084
2.7469141,3.4525068,-3.2674124,-3.1733859,53.89776,44.610245
2.4517138,3.4701507,-3.6319666,-5.2810597,49.158287,37.86738
2.1301055,3.4504502,-4.0303855,-5.8774695,42.91204,30.793127
1.7783778,3.452392,-4.4191966,-4.688176,34.801216,22.43545
1.4862401,3.4565098,-4.742467,-3.211133,25.864685,13.893054
1.2926036,3.4060206,-5.0175767,-1.5479856,16.31658,5.6402273
1.1739565,3.3234806,-5.2572823,1.3581426,6.2074165,-2.8073401
1.1631833,3.256504,-5.402819,5.4683304,-3.799692,-11.803666
1.2730442,3.2143736,-5.4299836,9.914615,-13.781375,-20.532158
1.5411849,3.1933248,-5.27696,13.491969,-23.563877,-27.495588
1.9364238,3.152378,-4.9800234,16.639374,-31.68702,-33.087555
2.364269,3.1060102,-4.6155686,19.27776,-38.24481,-37.93061
2.798196,3.0155663,-4.2000995,21.03025,-42.805023,-41.76262
3.1640222,2.8778398,-3.8032033,22.011309,-45.15999,-44.05118
3.4555326,2.7202232,-3.4187193,22.519053,-46.238323,-45.343006
3.7158217,2.5745811,-3.026784,22.041573,-46.233047,-45.649925
3.9660978,2.4290714,-2.6269696,20.758991,-44.78791,-44.822495
4.145157,2.2932355,-2.2816741,19.1194,-42.488297,-43.284313
4.267359,2.1575825,-1.9772316,16.997328,-39.18896,-41.127914
4.319556,1.9933825,-1.7598734,15.350474,-35.51292,-38.54217
4.3121786,1.8233796,-1.6005799,14.098617,-31.730469,-35.75147
4.2860303,1.6625679,-1.4606094,12.902433,-27.636381,-32.70327
4.145565,1.6080807,-1.4127411,12.479584,-26.73066,-31.63149
4.0101314,1.5555454,-1.3665875,12.071881,-25.857382,-30.598104
3.8795102,1.504877,-1.3220739,11.678667,-25.015133,-29.601439
3.7534947,1.4559952,-1.27913,11.299316,-24.202585,-28.639915
3.6318908,1.4088246,-1.2376893,10.933247,-23.41848,-27.712053
3.5145147,1.3632939,-1.1976894,10.579904,-22.661638,-26.81645
3.4011931,1.3193359,-1.1590712,10.238767,-21.930939,-25.951784
3.291762,1.2768873,-1.121779,9.909342,-21.225327,-25.116804
3.1860666,1.2358875,-1.0857596,9.591162,-20.5438,-24.310326
3.0839596,1.1962799,-1.0509632,9.283784,-19.885412,-23.531227
2.9853013,1.1580099,-1.0173421,8.986789,-19.249262,-22.778446
2.8899593,1.1210264,-0.98485106,8.699777,-18.634497,-22.050966
2.7978075,1.0852803,-0.9534472,8.422368,-18.0403,-21.34783
2.708726,1.0507252,-0.9230897,8.1542015,-17.4659,-20.668121
2.6226003,1.0173168,-0.8937395,7.8949337,-16.910563,-20.010965
2.5393217,0.9850127,-0.8653595,7.644236,-16.37358,-19.375532
2.458786,0.95377266,-0.8379143,7.401796,-15.854286,-18.76103
2.3808942,0.92355806,-0.81137,7.1673145,-15.352037,-18.166698
2.305551,0.8943322,-0.7856943,6.9405055,-14.866224,-17.591816
2.232666,0.8660598,-0.7608562,6.721096,-14.39626,-17.035688
2.1621518,0.8387071,-0.7368262,6.508825,-13.941585,-16.497652
2.0939257,0.8122419,-0.71357584,6.3034406,-13.501661,-15.977073
2.0279078,0.7866333,-0.69107795,6.1047034,-13.075976,-15.473342
1.9640214,0.76185155,-0.6693065,5.9123836,-12.664037,-14.985876
1.9021933,0.7378682,-0.6482365,5.7262597,-12.265368,-14.514115
1.8423531,0.7146559,-0.6278439,5.5461197,-11.879518,-14.057523
1.7844329,0.69218844,-0.6081057,5.37176,-11.506047,-13.615581
1.7283679,0.6704406,-0.5889996,5.202985,-11.14454,-13.187793
1.6740955,0.64938813,-0.5705045,5.039606,-10.79459,-12.773684
1.6215554,0.62900764,-0.5525997,4.8814425,-10.4558115,-12.372793
1.5706902,0.6092768,-0.5352656,4.72832,-10.127831,-11.98468
1.5214436,0.5901739,-0.5184832,4.5800714,-9.810289,-11.608919
1.4737624,0.57167816,-0.5022342,4.4365344,-9.50284,-11.245102
1.4275948,0.5537695,-0.48650104,4.2975535,-9.20515,-10.892834
1.3828908,0.53642875,-0.4712667,4.1629796,-8.916899,-10.551734
1.3396028,0.5196371,-0.45651484,4.0326676,-8.637776,-10.221437
1.2976842,0.5033767,-0.44222966,3.906478,-8.367485,-9.90159
1.2570904,0.48763028,-0.428396,3.784277,-8.105737,-9.591852
1.2177786,0.47238103,-0.41499913,3.6659346,-7.8522525,-9.291894
1.1797069,0.45761287,-0.40202492,3.5513256,-7.606766,-9.0014
1.1428354,0.44331026,-0.3894597,3.4403296,-7.369018,-8.720062
1.1071253,0.42945817,-0.37729028,3.3328297,-7.1387587,-8.447587
1.0725391,0.4160421,-0.36550388,3.2287135,-6.9157467,-8.183688
1.0390409,0.40304798,-0.35408822,3.1278722,-6.6997495,-7.9280896
1.0065956,0.39046234,-0.3430314,3.0302007,-6.4905424,-7.6805263
0.97516966,0.3782721,-0.33232194,2.935598,-6.287907,-7.4407396
0.9447304,0.36646459,-0.32194874,2.843965,-6.0916343,-7.208482
0.91524637,0.35502762,-0.31190106,2.755208,-5.9015207,-6.983513
0.8866871,0.34394938,-0.30216855,2.6692348,-5.7173705,-6.7656
0.8590232,0.33321843,-0.29274112,2.5859568,-5.5389934,-6.5545187
0.8322262,0.32282376,-0.28360915,2.5052886,-5.3662057,-6.3500524
0.80626863,0.31275472,-0.27476323,2.4271472,-5.198831,-6.151991
0.7811238,0.30300096,-0.26619428,2.3514526,-5.036697,-5.960131
0.7567661,0.2935525,-0.25789356,2.2781274,-4.8796377,-5.7742763
0.73317045,0.28439966,-0.24985257,2.2070966,-4.727493,-5.5942373
0.71031296,0.27553314,-0.24206309,2.1382875,-4.580107,-5.41983
0.6881702,0.26694387,-0.2345172,2.0716302,-4.4373307,-5.250876
0.6667197,0.25862312,-0.22720721,2.0070567,-4.2990174,-5.0872045
0.6459395,0.25056246,-0.22012568,1.9445013,-4.1650267,-4.928648
0.6258087,0.24275362,-0.21326542,1.8839005,-4.035223,-4.7750454
0.60630673,0.23518872,-0.20661947,1.8251928,-3.909474,-4.6262417
0.58741385,0.22786011,-0.20018107,1.7683187,-3.7876523,-4.482085
0.5691109,0.22076032,-0.19394372,1.7132205,-3.6696346,-4.3424296
0.5513793,0.21388218,-0.1879011,1.6598424,-3.5553012,-4.2071342
0.5342012,0.20721872,-0.18204708,1.6081303,-3.4445367,-4.076062
0.51755923,0.20076323,-0.17637576,1.5580322,-3.3372288,-3.9490805
0.50143653,0.19450916,-0.1708814,1.5094973,-3.2332695,-3.826061
0.4858168,0.18845022,-0.16555846,1.4624765,-3.1325533,-3.7068794
0.47068435,0.18258028,-0.16040157,1.4169226,-3.034979,-3.5914156
0.45602387,0.17689343,-0.1554055,1.3727895,-2.940448,-3.4795535
0.4418206,0.17138392,-0.15056527,1.3300327,-2.848865,-3.3711796
0.4280602,0.16604622,-0.14587595,1.2886091,-2.760138,-3.266185
0.41472885,0.16087493,-0.14133285,1.2484772,-2.6741772,-3.1644642
0.40181312,0.15586486,-0.13693137,1.2095964,-2.5908964,-3.0659146
0.38930002,0.15101099,-0.13266711,1.1719276,-2.5102117,-2.970437
0.37717694,0.14630839,-0.12853576,1.135433,-2.432042,-2.8779354
0.3654317,0.14175238,-0.12453318,1.1000757,-2.3563085,-2.788317
0.3540525,0.13733834,-0.120655335,1.0658205,-2.2829354,-2.7014916
0.34302792,0.13306186,-0.116898336,1.0326326,-2.2118487,-2.6173716
0.33234686,0.12891863,-0.1132584,1.000479,-2.142977,-2.535873
0.3219986,0.124904506,-0.10973188,0.9693271,-2.0762513,-2.4569137
0.31197277,0.121015444,-0.10631524,0.93914586,-2.0116045,-2.3804145
0.30225927,0.117247544,-0.10300504,0.9099049,-1.9489719,-2.3062987
0.29284838,0.11359702,-0.099797964,0.88157487,-1.8882903,-2.2344918
0.28373066,0.110060215,-0.09669079,0.85412735,-1.829499,-2.1649215
0.27489695,0.10663359,-0.093680404,0.8275348,-1.7725391,-2.0975187
0.26633838,0.10331369,-0.090763785,0.80177057,-1.7173535,-2.032215
0.2580464,0.100097194,-0.08793801,0.77680886,-1.6638867,-1.9689456
0.25001267,0.096980885,-0.08520025,0.7526246,-1.6120851,-1.9076467
0.24222915,0.09396163,-0.082547754,0.72919345,-1.5618968,-1.8482568
0.23468804,0.0910364,-0.07997786,0.7064921,-1.5132716,-1.7907166
0.22738178,0.08820227,-0.077488005,0.6844977,-1.4661608,-1.7349684
0.22030304,0.0854564,-0.07507569,0.6631883,-1.420517,-1.6809562
0.21344474,0.082796045,-0.07273849,0.6425424,-1.3762945,-1.6286261
0.2068,0.080218524,-0.07047407,0.6225395,-1.3334492,-1.5779254
0.20036218,0.07772127,-0.06828017,0.6031594,-1.2919381,-1.5288036
0.19412482,0.07530177,-0.06615458,0.58438283,-1.2517195,-1.4812112
0.18808168,0.07295761,-0.06409518,0.56619084,-1.2127532,-1.4351008
0.18222669,0.07068644,-0.062099893,0.5485653,-1.1750002,-1.3904262
0.17655401,0.06848598,-0.060166735,0.5314886,-1.1384226,-1.3471425
0.17105795,0.066354044,-0.058293767,0.5149436,-1.1029841,-1.3052064
0.16573302,0.06428848,-0.056479115,0.49891368,-1.0686487,-1.2645761
0.16057387,0.062287226,-0.054720964,0.48338288,-1.0353825,-1.2252108
0.15557535,0.060348283,-0.05301755,0.4683356,-1.003152,-1.1870711
0.15073246,0.0584697,-0.051367167,0.45375678,-0.9719249,-1.1501188
0.14604034,0.05664961,-0.04976817,0.43963188,-0.94167,-1.1143169
0.14149429,0.05488618,-0.04821895,0.4259467,-0.91235703,-1.0796297
0.13708977,0.05317765,-0.04671796,0.4126876,-0.8839567,-1.0460224
0.13282238,0.051522315,-0.045263704,0.39984125,-0.8564405,-1.0134614
0.12868783,0.04991851,-0.04385472,0.38739488,-0.8297809,-0.9819139
0.124682,0.04836463,-0.0424896,0.37533593,-0.80395126,-0.95134866
0.12080088,0.04685913,-0.041166976,0.3636524,-0.7789257,-0.9217349
0.11704058,0.045400497,-0.039885525,0.35233262,-0.75467926,-0.89304304
0.113397345,0.04398727,-0.03864397,0.34136522,-0.73118764,-0.86524445
0.10986752,0.042618036,-0.037441064,0.33073923,-0.70842725,-0.8383112
0.106447585,0.04129143,-0.036275603,0.32044402,-0.68637544,-0.81221634
0.10313411,0.04000612,-0.035146426,0.31046933,-0.6650101,-0.7869339
0.09992378,0.038760822,-0.034052398,0.30080512,-0.6443099,-0.7624384
0.09681339,0.037554286,-0.032992426,0.29144177,-0.62425405,-0.7387055
0.09379982,0.036385313,-0.031965453,0.28236988,-0.6048225,-0.71571136
0.09088006,0.035252728,-0.030970445,0.2735804,-0.58599585,-0.69343305
0.08805119,0.0341554,-0.030006414,0.26506454,-0.5677553,-0.67184824
0.085310385,0.033092227,-0.02907239,0.25681373,-0.5500825,-0.6509353
