ax,ay,az,gx,gy,gz
-5.6945972,-2.2709296,-6.7336974,-7.7127976,3.107301,-78.68071
-6.214138,-2.533973,-7.638176,-15.408789,-27.512516,-84.26123
-6.1404114,-2.5685604,-8.004266,-20.883287,-55.48656,-88.491394
-5.724383,-3.0502045,-8.286954,-13.723818,-78.764694,-91.64638
-5.275629,-3.6653702,-8.6620455,-0.88799095,-104.85556,-92.07348
-4.414481,-4.515927,-8.832989,10.743466,-125.49172,-88.60357
-3.5249362,-5.296085,-8.886371,24.350447,-140.04794,-81.98566
-2.7043474,-5.8957505,-8.910954,41.60831,-149.27081,-75.479485
-1.8650537,-6.362681,-8.775262,61.00197,-153.56187,-66.17714
-1.087674,-6.6606846,-8.557945,80.41076,-155.20985,-50.58787
-0.3466323,-6.5080223,-8.146234,96.946526,-156.20642,-33.031425
0.28475255,-6.005489,-7.6006913,107.924034,-157.99802,-15.814539
0.9148002,-5.1960897,-6.821419,110.70701,-160.04018,-1.4482738
1.6012076,-4.656909,-5.953994,110.23585,-159.72359,10.789247
2.323908,-4.2312603,-5.018204,110.9819,-154.57199,21.801817
3.0452833,-3.789444,-3.9977844,112.02586,-146.06877,32.437653
3.6104422,-3.2241752,-3.0654373,112.38899,-135.8268,42.211376
4.0698223,-2.5719676,-2.2277646,110.184525,-125.513535,49.5922
4.524907,-2.0762956,-1.4963484,107.11357,-114.43728,56.43231
4.9355555,-1.5143996,-0.8247736,101.495636,-101.98905,61.551292
5.235796,-1.1175461,-0.32741576,95.44817,-88.663605,65.66259
5.440115,-0.83183885,-0.011668401,89.62389,-74.80734,69.2233
5.5528917,-0.596536,0.13867481,84.66152,-60.68229,72.187874
5.5726366,-0.4020865,0.12865023,80.936745,-47.285927,74.55372
5.531004,-0.22614911,0.048636835,78.030045,-34.608025,76.675064
5.39343,0.024776235,-0.109733775,74.45709,-23.422514,78.40389
5.202946,0.32898962,-0.29116008,70.5631,-13.785109,79.11686
5.0131683,0.6219104,-0.46425632,66.298,-5.0732207,79.20483
4.8129573,0.90630823,-0.6566978,61.915855,2.9200943,78.81661
4.592062,1.1766554,-0.8751596,58.03797,9.831748,77.527794
4.371939,1.4424292,-1.0943621,54.744576,15.9007,75.55053
4.153726,1.7032288,-1.3128885,51.896194,21.119658,72.72978
3.9432685,1.9680765,-1.5288445,48.705418,25.355179,69.05209
3.749231,2.2069027,-1.7431312,45.345596,28.656303,65.00838
3.549726,2.4131212,-1.9720205,41.48924,30.508692,60.853
3.3145568,2.60811,-2.2130606,37.774395,31.142681,56.150826
3.0548851,2.8160532,-2.4464602,34.364998,30.477283,50.107235
2.7840583,3.0158768,-2.669065,31.484028,28.355207,42.361122
2.5413082,3.2359765,-2.8577843,28.561335,24.925615,33.18352
2.3211713,3.4630506,-3.0530167,24.399155,18.977041,22.873352
2.093685,3.5788345,-3.3400908,19.944695,10.5180235,12.171745
1.9061624,3.5508611,-3.6360235,16.396198,0.31690738,1.6726581
1.8012904,3.5108612,-3.8368297,14.914588,-9.569705,-8.70926
1.7592025,3.5171442,-3.979822,14.881518,-18.876453,-19.583406
1.7200644,3.519309,-4.130927,16.261936,-29.281723,-31.209406
1.8250763,3.4610229,-4.199387,16.977892,-40.472454,-41.756268
2.1302295,3.2915142,-4.113912,16.476137,-50.788673,-49.34849
2.4728913,3.1213448,-3.9266832,15.111386,-59.287518,-54.505463
2.7881315,3.0023777,-3.7040577,13.774192,-65.92291,-58.991962
3.0733998,2.8817666,-3.4842188,13.745875,-70.24978,-63.8063
3.3262398,2.722278,-3.2709875,13.626046,-73.57233,-68.10166
3.613856,2.4675684,-3.04797,13.121611,-76.14641,-70.60737
3.9453602,2.146306,-2.778776,11.957351,-77.04645,-70.432365
4.1934214,1.8584406,-2.5461109,10.597294,-76.5301,-68.57277
4.367593,1.6435932,-2.3281274,8.929936,-74.51852,-66.45075
4.501691,1.4465884,-2.1213365,7.914123,-71.2838,-64.4854
4.6049547,1.2371023,-1.9302733,7.4391193,-67.08122,-62.097958
4.695081,1.0190283,-1.7470313,6.8312774,-62.148373,-58.63462
4.784789,0.80282056,-1.5595726,5.8902555,-56.0144,-53.931465
4.6289353,0.77667046,-1.508773,5.6983933,-54.189854,-52.174767
4.4785767,0.75144243,-1.4597645,5.5132966,-52.42964,-50.48001
4.333482,0.7270975,-1.4124718,5.334679,-50.731052,-48.84458
4.193432,0.70359904,-1.3668232,5.162272,-49.091515,-47.266014
4.058219,0.6809123,-1.3227515,4.9958205,-47.508614,-45.741974
3.9276488,0.65900445,-1.280193,4.8350835,-45.980057,-44.270256
3.8015356,0.6378444,-1.2390871,4.6798334,-44.50368,-42.84878
3.679704,0.61740273,-1.1993768,4.529854,-43.077427,-41.475563
3.5619874,0.59765154,-1.1610079,4.3849406,-41.699345,-40.148727
3.4482276,0.5785643,-1.1239285,4.244898,-40.367588,-38.86649
3.3382745,0.56011564,-1.08809,4.1095414,-39.08039,-37.62716
3.2319846,0.5422817,-1.0534455,3.9786944,-37.836082,-36.42912
3.1292217,0.52503955,-1.0199505,3.8521895,-36.63306,-35.270832
3.0298557,0.5083673,-0.9875628,3.7298663,-35.469807,-34.150837
2.9337626,0.49224424,-0.95624185,3.611572,-34.344868,-33.067726
2.840824,0.47665042,-0.92594904,3.4971611,-33.256855,-32.020176
2.7509263,0.46156687,-0.89664745,3.3864937,-32.204445,-31.0069
2.6639616,0.4469754,-0.86830187,3.2794368,-31.18637,-30.026682
2.579826,0.43285865,-0.84087837,3.1758628,-30.201414,-29.078354
2.4984202,0.4191999,-0.8143447,3.0756495,-29.248417,-28.160793
2.4196494,0.40598324,-0.78866976,2.9786792,-28.326263,-27.27293
2.3434217,0.3931933,-0.76382387,2.8848403,-27.433884,-26.413736
2.26965,0.38081545,-0.7397784,2.7940245,-26.570255,-25.582222
2.19825,0.36883554,-0.716506,2.7061284,-25.734394,-24.777443
2.129141,0.35724002,-0.6939804,2.6210527,-24.925352,-23.998486
2.0622456,0.34601593,-0.6721763,2.538702,-24.142223,-23.244478
1.9974892,0.3351507,-0.6510693,2.4589844,-23.384134,-22.51458
1.9347998,0.3246323,-0.6306361,2.3818114,-22.650246,-21.80798
1.8741084,0.31444913,-0.6108541,2.3070982,-21.939745,-21.123901
1.8153487,0.30459008,-0.59170175,2.2347627,-21.25186,-20.461594
1.7584567,0.2950444,-0.57315814,2.1647265,-20.585838,-19.82034
1.7033706,0.2858017,-0.55520314,2.0969133,-19.940958,-19.19944
1.6500311,0.27685207,-0.5378175,2.0312502,-19.316525,-18.598227
1.5983808,0.26818588,-0.5209824,1.9676669,-18.711866,-18.016052
1.5483646,0.25979388,-0.5046799,1.906095,-18.126339,-17.4523
1.4999292,0.25166708,-0.48889267,1.8464693,-17.559317,-16.90636
1.4530232,0.24379693,-0.47360396,1.7887262,-17.0102,-16.377663
1.4075971,0.23617505,-0.45879757,1.7328049,-16.478407,-15.865645
1.3636028,0.22879344,-0.44445795,1.6786463,-15.963377,-15.369767
1.3209944,0.22164434,-0.43056998,1.6261938,-15.46457,-14.889508
1.2797271,0.21472026,-0.41711915,1.5753921,-14.9814625,-14.424367
1.2397578,0.20801398,-0.40409142,1.5261885,-14.513552,-13.973855
1.2010449,0.2015185,-0.3914732,1.4785315,-14.060349,-13.537505
1.1635482,0.19522709,-0.3792514,1.4323716,-13.621385,-13.114864
1.1272289,0.18913321,-0.3674133,1.3876612,-13.196202,-12.705492
1.0920492,0.18323056,-0.35594672,1.3443537,-12.784363,-12.308968
1.057973,0.17751305,-0.3448398,1.3024046,-12.385441,-11.92488
1.0249652,0.1719748,-0.33408108,1.2617707,-11.999025,-11.552834
0.9929917,0.16661008,-0.3236595,1.2224101,-11.62472,-11.192446
0.9620197,0.16141343,-0.3135644,1.1842824,-11.262137,-10.843348
0.93201756,0.15637948,-0.30378538,1.1473486,-10.91091,-10.505179
0.90295446,0.1515031,-0.29431245,1.111571,-10.570675,-10.177597
0.8748008,0.14677931,-0.28513592,1.0769128,-10.241087,-9.860265
0.84752774,0.14220329,-0.27624646,1.0433385,-9.921807,-9.552858
0.82110757,0.13777034,-0.26763496,1.0108143,-9.612513,-9.255065
0.79551333,0.13347599,-0.25929266,0.9793069,-9.312887,-8.96658
0.770719,0.12931585,-0.2512111,0.9487841,-9.022626,-8.687113
0.7466994,0.1252857,-0.24338207,0.9192151,-8.741434,-8.416377
0.72343016,0.12138144,-0.2357976,0.89056975,-8.469026,-8.154099
0.7008876,0.117599115,-0.22845,0.862819,-8.205126,-7.9000125
0.67904896,0.1139349,-0.22133182,0.8359348,-7.949466,-7.6538596
0.6578921,0.110385075,-0.21443588,0.80989,-7.701788,-7.4153914
0.6373956,0.10694606,-0.20775518,0.784658,-7.4618406,-7.1843667
0.6175388,0.10361436,-0.20128298,0.76021355,-7.2293816,-6.9605517
0.5983016,0.10038663,-0.19501272,0.7365318,-7.0041757,-6.7437205
0.5796646,0.09725959,-0.1889381,0.7135889,-6.7859964,-6.533654
0.5616089,0.0942301,-0.18305296,0.69136167,-6.5746226,-6.3301406
0.5441164,0.0912951,-0.17735137,0.6698277,-6.369842,-6.132975
0.52716935,0.08845163,-0.17182761,0.6489653,-6.1714473,-5.941958
0.51075083,0.08569683,-0.16647609,0.6287535,-5.9792395,-5.756897
0.4948442,0.08302792,-0.1612914,0.6091718,-5.793024,-5.5776067
0.47943345,0.08044221,-0.15626837,0.5902006,-5.612614,-5.4039054
0.4645031,0.07793711,-0.15140194,0.5718208,-5.4378285,-5.235619
0.45003816,0.0755101,-0.14668716,0.5540139,-5.268491,-5.072578
0.43602404,0.073158726,-0.14211935,0.536762,-5.1044307,-4.914619
0.42244667,0.07088063,-0.13769388,0.5200477,-4.9454837,-4.7615824
0.4092924,0.06867353,-0.13340634,0.50385433,-4.7914896,-4.6133146
0.39654803,0.066535205,-0.12925239,0.48816553,-4.6422944,-4.4696674
0.38420075,0.0644635,-0.12522787,0.47296557,-4.4977474,-4.3304954
0.37223816,0.062456347,-0.121328734,0.45823917,-4.357704,-4.19566
0.36064824,0.060511723,-0.11755108,0.44397157,-4.222024,-4.0650253
0.34941941,0.05862768,-0.11389111,0.43014845,-4.090571,-3.9384599
0.33854038,0.05680233,-0.11034515,0.41675594,-3.9632123,-3.8158374
0.3280002,0.055033837,-0.10690965,0.40378058,-3.839821,-3.6970346
0.31778833,0.05332043,-0.10358115,0.3912094,-3.7202733,-3.581932
0.30789456,0.05166039,-0.10035633,0.37902978,-3.6044488,-3.4704149
0.2983089,0.050052054,-0.097231954,0.3672295,-3.492232,-3.362371
0.28902182,0.04849381,-0.09420488,0.35579672,-3.38351,-3.2576919
0.28002393,0.04698409,-0.09127208,0.34472,-3.2781742,-3.156273
0.27130628,0.045521393,-0.08843061,0.33398825,-3.1761189,-3.0580125
0.26286012,0.044104245,-0.08567764,0.3235907,-3.0772414,-2.962812
0.25467697,0.042731225,-0.08301039,0.3135169,-2.9814432,-2.8705761
0.24674863,0.04140096,-0.080426194,0.30375686,-2.888628,-2.7812123
0.23906718,0.040112123,-0.07792248,0.2943007,-2.7987032,-2.6946313
0.23162492,0.038863413,-0.07549672,0.285139,-2.7115784,-2.6107464
0.2244144,0.037653588,-0.073146485,0.27626255,-2.6271663,-2.5294733
0.21742837,0.036481433,-0.07086944,0.2676625,-2.5453827,-2.4507308
0.21065986,0.035345774,-0.068663284,0.2593302,-2.4661455,-2.37444
0.20410211,0.034245472,-0.066525824,0.2512574,-2.3893752,-2.3005247
0.19774853,0.033179432,-0.06445491,0.24343587,-2.3149953,-2.2289107
0.19159277,0.03214658,-0.06244848,0.2358579,-2.2429314,-2.1595263
0.18562865,0.031145886,-0.060504515,0.22851585,-2.1731107,-2.092302
0.17985022,0.030176347,-0.05862107,0.22140239,-2.1054642,-2.027171
0.17425169,0.029236993,-0.056796268,0.2145104,-2.0399234,-1.9640675
0.16882747,0.028326884,-0.055028275,0.20783296,-1.9764234,-1.9029287
0.1635721,0.027445108,-0.053315323,0.20136343,-1.9149001,-1.8436931
0.15848036,0.026590783,-0.0516557,0.19509529,-1.8552922,-1.7863019
0.15354712,0.025763055,-0.05004774,0.18902229,-1.7975401,-1.7306973
0.14876747,0.024961097,-0.048489843,0.18313836,-1.7415857,-1.6768236
0.14413662,0.024184104,-0.04698044,0.1774376,-1.6873734,-1.6246272
0.13964991,0.0234313,-0.04551803,0.17191431,-1.6348487,-1.5740557
0.1353029,0.02270193,-0.044101145,0.16656296,-1.5839591,-1.5250585
0.1310912,0.021995267,-0.04272837,0.1613782,-1.5346538,-1.4775866
0.12701061,0.021310601,-0.041398328,0.15635484,-1.4868833,-1.4315925
0.12305706,0.02064725,-0.04010969,0.15148787,-1.4405999,-1.3870302
0.119226575,0.020004548,-0.038861167,0.1467724,-1.3957573,-1.3438551
0.11551533,0.019381853,-0.03765151,0.14220372,-1.3523108,-1.3020241
0.11191961,0.018778542,-0.03647951,0.13777725,-1.3102165,-1.2614952
0.10843583,0.018194012,-0.035343993,0.1334886,-1.2694328,-1.2222279
0.105060495,0.017627679,-0.034243822,0.12933342,-1.2299185,-1.1841831
0.101790234,0.017078975,-0.033177897,0.1253076,-1.1916343,-1.1473225
