ax,ay,az,gx,gy,gz
-0.79637086,0.9527359,-5.333685,59.98145,13.871944,62.423294
-0.53556675,1.777626,-5.054149,51.38101,13.136783,61.005665
-0.4707504,2.3675246,-4.897689,41.79849,11.475456,58.924263
-0.53593034,2.914786,-4.771689,34.195625,9.15922,56.88593
-0.6973419,3.6302667,-4.7129526,31.013123,4.6062975,53.019894
-0.84407485,4.418451,-4.675725,28.749365,-3.4688313,45.750603
-0.88745326,5.1264563,-4.57871,24.724405,-10.979449,38.24506
-0.884129,5.6608553,-4.5102587,20.45926,-17.783686,30.731503
-0.85679513,6.0648155,-4.4835844,15.050677,-24.450876,23.25539
-0.80170405,6.3497663,-4.4908595,8.443793,-31.342533,15.526737
-0.72160816,6.5390434,-4.5107403,0.39751366,-37.73865,7.3948364
-0.5856061,6.636134,-4.572276,-7.7346144,-43.73158,-0.31999314
-0.43051568,6.643499,-4.6537833,-15.437515,-49.527325,-8.196504
-0.24729884,6.5779977,-4.7430615,-22.19187,-55.248238,-16.287159
-0.022467533,6.4817114,-4.807248,-27.94108,-61.184696,-24.326445
0.24348615,6.405332,-4.808302,-34.21778,-67.19329,-31.518696
0.519463,6.418854,-4.7082686,-41.60814,-73.13116,-37.990177
0.8011578,6.4567776,-4.5216503,-50.11047,-79.15094,-44.71997
1.1851305,6.3702483,-4.238752,-58.696568,-84.77406,-52.83569
1.7551475,6.058389,-3.8319724,-65.7935,-88.90788,-62.322945
2.5492337,5.5667477,-3.2771611,-72.25794,-90.053566,-71.0237
3.5624604,4.9083757,-2.6166403,-78.694466,-88.36396,-78.195786
4.633042,4.061509,-1.9803544,-84.08082,-83.27785,-84.27565
5.617683,3.0332677,-1.4297227,-88.416435,-75.86623,-87.77475
6.400134,1.9109399,-1.0080266,-92.45483,-66.89518,-87.47948
6.9779744,0.74288195,-0.72521716,-93.64413,-56.07305,-84.828125
7.3416147,-0.40300816,-0.5775184,-91.72236,-44.064087,-81.00856
7.5860176,-1.310678,-0.5078847,-87.49843,-30.88302,-75.91321
7.7031937,-1.9142755,-0.56227934,-82.434616,-18.198334,-70.16025
7.716564,-2.329469,-0.7061839,-77.24769,-6.930765,-64.3502
7.6781907,-2.64383,-0.900288,-71.763374,2.997167,-58.56589
7.5801225,-2.8625815,-1.1578382,-66.03954,12.409239,-52.77063
7.402786,-3.012876,-1.4786104,-60.5753,21.099476,-46.91654
7.144263,-3.1168294,-1.8564733,-55.518772,28.825218,-41.015335
6.808833,-3.1793995,-2.289273,-50.696075,35.09406,-34.952103
6.414907,-3.1655545,-2.7691226,-45.733013,38.4915,-29.081686
5.946405,-3.0382235,-3.310129,-40.89606,39.13178,-24.276632
5.536574,-2.912348,-3.8289526,-36.11049,37.51427,-20.162342
5.215463,-2.784402,-4.2934604,-31.007187,34.849136,-16.53253
4.9449697,-2.630811,-4.7270036,-26.315905,31.363136,-13.227516
4.686933,-2.491716,-5.159444,-22.240635,26.048864,-10.008417
4.456141,-2.4274092,-5.6026144,-18.020815,19.227165,-6.768171
4.260592,-2.379531,-6.030414,-14.222062,10.5867405,-3.0070992
4.1236515,-2.3054092,-6.3952723,-11.287843,0.19664499,1.3958178
4.088523,-2.2091422,-6.6494393,-8.664598,-11.309864,5.55117
4.214647,-2.1318882,-6.6942515,-4.989045,-21.612867,8.703014
4.5124626,-2.064586,-6.41349,0.6331574,-29.559067,10.936956
4.889277,-1.8760992,-5.897119,7.2788386,-35.248253,12.521244
5.308424,-1.5468464,-5.1617675,12.819898,-38.56631,14.015046
5.690276,-1.1426759,-4.284428,15.586544,-39.419167,15.704439
5.4983587,-1.1041365,-4.139926,15.060852,-38.089664,15.174771
5.313824,-1.0670797,-4.0009828,14.555383,-36.81131,14.665479
5.1363044,-1.0314316,-3.867321,14.069129,-35.581547,14.175547
4.965457,-0.99712336,-3.7386835,13.601151,-34.39801,13.70403
4.800963,-0.964091,-3.6148298,13.150578,-33.258484,13.250048
4.6425242,-0.9322747,-3.4955354,12.71659,-32.160908,12.8127775
4.489863,-0.9016184,-3.3805907,12.298427,-31.10335,12.391451
4.342717,-0.8720698,-3.269799,11.895372,-30.084005,11.985348
4.200843,-0.8435797,-3.1629763,11.506756,-29.101175,11.593792
4.0640097,-0.8161019,-3.0599492,11.131948,-28.153267,11.21615
3.9320014,-0.7895931,-2.960555,10.770357,-27.238785,10.851824
3.804614,-0.7640122,-2.8646402,10.421424,-26.356316,10.500252
3.681656,-0.7393207,-2.7720604,10.084622,-25.504528,10.160902
3.562945,-0.7154821,-2.6826785,9.759456,-24.682161,9.833276
3.4483097,-0.692462,-2.5963652,9.445452,-23.888031,9.516897
3.3375876,-0.6702277,-2.512998,9.142167,-23.121008,9.211318
3.2306247,-0.6487482,-2.4324615,8.849178,-22.380026,8.916114
3.1272745,-0.62799424,-2.3546453,8.566087,-21.664072,8.63088
3.027398,-0.60793793,-2.2794447,8.29251,-20.972183,8.355234
2.9308639,-0.58855265,-2.2067602,8.028088,-20.303446,8.088812
2.8375459,-0.5698133,-2.1364975,7.7724752,-19.656988,7.831266
2.7473242,-0.5516957,-2.0685663,7.525345,-19.031982,7.5822663
2.6600852,-0.53417706,-2.0028806,7.2863836,-18.427637,7.3414974
2.5757196,-0.5172354,-1.9393584,7.055293,-17.843197,7.108659
2.4941232,-0.5008499,-1.8779215,6.831788,-17.277943,6.8834634
2.4151971,-0.48500058,-1.8184948,6.6155972,-16.731184,6.665637
2.3388457,-0.4696683,-1.761007,6.406459,-16.202263,6.454917
2.2649782,-0.45483485,-1.7053893,6.2041245,-15.690549,6.2510524
2.1935074,-0.44048265,-1.6515762,6.008355,-15.195437,6.053802
2.1243498,-0.42659497,-1.5995047,5.8189216,-14.716351,5.8629355
2.0574253,-0.4131557,-1.5491146,5.635605,-14.252733,5.678232
1.9926567,-0.4001494,-1.500348,5.458194,-13.804051,5.4994793
1.9299706,-0.3875613,-1.4531491,5.286487,-13.369796,5.3264737
1.869296,-0.3753771,-1.4074649,5.12029,-12.949474,5.1590195
1.8105646,-0.36358312,-1.3632437,4.9594154,-12.542616,4.996928
1.7537111,-0.35216627,-1.3204366,4.803685,-12.148766,4.8400197
1.6986724,-0.34111384,-1.2789959,4.6529255,-11.767488,4.6881204
1.645388,-0.3304137,-1.238876,4.5069714,-11.398361,4.541062
1.5937995,-0.32005408,-1.200033,4.3656626,-11.040984,4.398684
1.5438507,-0.31002375,-1.1624246,4.228845,-10.694965,4.260832
1.4954875,-0.30031183,-1.1260101,4.0963707,-10.359931,4.127355
1.4486575,-0.29090783,-1.09075,3.9680963,-10.035519,3.9981108
1.4033108,-0.28180167,-1.0566067,3.8438847,-9.721381,3.8729596
1.3593987,-0.27298358,-1.0235436,3.7236025,-9.417181,3.7517676
1.3168744,-0.2644442,-0.9915255,3.6071222,-9.122597,3.634406
1.2756929,-0.25617447,-0.9605183,3.4943197,-8.837314,3.5207505
1.2358108,-0.24816564,-0.9304894,3.385076,-8.56103,3.4106805
1.1971856,-0.24040926,-0.9014072,3.2792761,-8.293457,3.3040802
1.1597773,-0.2328972,-0.87324095,3.1768086,-8.034311,3.2008379
1.1235462,-0.2256216,-0.8459612,3.0775664,-7.7833233,3.100845
1.088455,-0.21857484,-0.8195396,2.9814458,-7.5402293,3.0039973
1.0544667,-0.21174958,-0.79394853,2.888347,-7.304777,2.9101942
1.0215462,-0.20513874,-0.76916146,2.7981725,-7.0767217,2.8193376
0.9896593,-0.19873548,-0.7451526,2.7108295,-6.8558264,2.731334
0.9587731,-0.19253315,-0.7218972,2.6262274,-6.6418633,2.646092
0.92885566,-0.18652537,-0.69937116,2.5442789,-6.4346113,2.5635235
0.8998761,-0.18070593,-0.6775513,2.4648993,-6.2338567,2.4835436
0.8718047,-0.17506886,-0.65641534,2.3880076,-6.0393934,2.4060702
0.84461266,-0.16960837,-0.6359414,2.3135242,-5.8510213,2.3310237
0.81827205,-0.16431886,-0.6161085,2.2413733,-5.6685476,2.2583268
0.7927559,-0.1591949,-0.5968964,2.1714807,-5.4917855,2.1879056
0.76803815,-0.15423128,-0.57828546,2.1037748,-5.3205543,2.1196878
0.7440936,-0.14942293,-0.56025666,2.038187,-5.1546793,2.0536036
0.7208978,-0.14476493,-0.54279166,1.9746501,-4.9939914,1.9895862
0.6984271,-0.14025255,-0.52587265,1.9130995,-4.8383265,1.9275701
0.67665875,-0.1358812,-0.5094824,1.8534726,-4.687527,1.8674921
0.6555705,-0.13164644,-0.49360427,1.7957088,-4.5414395,1.8092914
0.6351411,-0.12754396,-0.47822216,1.7397493,-4.399915,1.7529087
0.6153497,-0.123569615,-0.46332046,1.6855377,-4.262811,1.698287
0.5961763,-0.119719364,-0.44888407,1.6330187,-4.129988,1.6453708
0.5776015,-0.11598931,-0.43489838,1.5821395,-4.001312,1.5941067
0.55960643,-0.1123757,-0.42134923,1.5328484,-3.8766518,1.5444427
0.542173,-0.10887485,-0.4082229,1.4850954,-3.7558823,1.4963286
0.5252835,-0.10548324,-0.3955062,1.4388325,-3.6388812,1.4497159
0.50892097,-0.102197446,-0.3831862,1.394013,-3.5255303,1.4045573
0.49306887,-0.099014156,-0.37125054,1.3505917,-3.4157155,1.3608074
0.47771117,-0.095930144,-0.35968712,1.3085246,-3.3093255,1.3184222
0.46283242,-0.09294231,-0.34848434,1.2677693,-3.2062535,1.2773587
0.44841763,-0.09004765,-0.3376309,1.2282851,-3.1063957,1.2375758
0.4344523,-0.08724324,-0.32711583,1.1900318,-3.0096512,1.1990331
0.4209223,-0.084526256,-0.31692863,1.1529711,-2.9159229,1.1616921
0.40781412,-0.08189397,-0.30705893,1.1170657,-2.8251164,1.1255151
0.39511448,-0.079343736,-0.2974969,1.0822794,-2.7371402,1.0904658
0.38281068,-0.07687298,-0.2882329,1.0485774,-2.651906,1.0565089
0.37089032,-0.07447923,-0.2792576,1.0159258,-2.5693283,1.0236102
0.35934144,-0.07216008,-0.270562,0.98429155,-2.4893239,0.9917367
0.3481524,-0.069913186,-0.26213735,0.95364314,-2.4118123,0.96085644
0.337312,-0.067736305,-0.2539752,0.9239496,-2.336716,0.9309383
0.32680938,-0.06562725,-0.24606736,0.89518124,-2.2639592,0.9019523
0.31663394,-0.063583896,-0.23840587,0.86730915,-2.1934693,0.8738694
0.30677548,-0.0616042,-0.23098306,0.8403053,-2.1251752,0.8466614
0.29722413,-0.059686176,-0.2237915,0.81414276,-2.0590086,0.8203009
0.2879703,-0.057827897,-0.21682394,0.7887951,-1.9949032,0.7947615
0.27900472,-0.0560275,-0.21007341,0.764237,-1.9327945,0.7700176
0.27031842,-0.054283183,-0.20353313,0.74044377,-1.8726202,0.74604446
0.26190263,-0.05259319,-0.19719656,0.71739167,-1.8143202,0.72281796
0.25374892,-0.050955836,-0.19105734,0.69505745,-1.7578359,0.7003148
0.24584919,-0.04936947,-0.18510932,0.6734188,-1.7031107,0.6785125
0.23819546,-0.047832508,-0.17934653,0.6524541,-1.6500897,0.6573892
0.23078008,-0.046343412,-0.1737632,0.6321422,-1.59872,0.6369237
0.22359562,-0.044900686,-0.16835374,0.6124629,-1.54895,0.6170955
0.21663487,-0.043502886,-0.16311273,0.5933963,-1.5007297,0.5978847
0.20989089,-0.042148612,-0.15803492,0.5749235,-1.454011,0.57927215
0.20335689,-0.040836506,-0.15311523,0.55702585,-1.408747,0.5612392
0.19702634,-0.039565258,-0.14834872,0.53968555,-1.3648924,0.5437677
0.19089292,-0.03833359,-0.14373063,0.52288514,-1.3224033,0.5268402
0.18495047,-0.037140276,-0.13925633,0.50660783,-1.2812371,0.51043975
0.17919303,-0.035984114,-0.13492133,0.49083734,-1.2413527,0.49455
0.17361486,-0.03486395,-0.1307213,0.47555783,-1.2027102,0.47915494
0.16821034,-0.03377866,-0.12665205,0.46075407,-1.1652707,0.46423918
0.1629741,-0.03272716,-0.12270948,0.44641122,-1.1289968,0.44978786
0.1579009,-0.031708397,-0.11888966,0.4325149,-1.0938523,0.43578643
0.15298563,-0.030721352,-0.11518877,0.4190512,-1.0598019,0.4222209
0.14822339,-0.029765036,-0.11160309,0.4060067,-1.0268117,0.4090777
0.1436094,-0.028838493,-0.10812905,0.39336827,-0.99484855,0.3963437
0.13913906,-0.027940795,-0.10476316,0.38112333,-0.9638804,0.38400614
0.13480788,-0.027071044,-0.101502046,0.3692596,-0.9338764,0.37205264
0.13061155,-0.02622837,-0.09834247,0.3577652,-0.9048065,0.3604713
0.12654586,-0.025411928,-0.09528124,0.3466286,-0.8766415,0.3492505
0.12260673,-0.024620904,-0.09231532,0.33583874,-0.8493533,0.338379
0.11879023,-0.023854505,-0.08944173,0.32538474,-0.82291466,0.32784593
0.11509254,-0.023111964,-0.0866576,0.3152562,-0.7972991,0.31764078
0.11150996,-0.022392537,-0.08396014,0.30544296,-0.77248085,0.3077533
0.108038895,-0.021695508,-0.081346646,0.29593518,-0.74843526,0.29817364
0.1046759,-0.021020176,-0.07881451,0.2867234,-0.7251382,0.28889218
0.10141758,-0.020365868,-0.0763612,0.27779838,-0.7025663,0.27989963
0.09826069,-0.019731928,-0.07398426,0.26915118,-0.68069714,0.27118704
0.09520208,-0.01911772,-0.07168131,0.26077318,-0.6595087,0.26274565
0.09223868,-0.018522635,-0.06945005,0.25265595,-0.63897985,0.25456703
0.089367524,-0.017946072,-0.06728825,0.24479142,-0.61909,0.246643
