ax,ay,az,gx,gy,gz
0.1127283,-1.6527423,-14.046492,6.935518,-116.8556,36.51033
-0.07772904,-1.3693672,-14.734276,-5.1808076,-139.20258,29.060137
-0.28302696,-0.9901749,-15.202454,-19.779243,-159.24869,18.958895
-0.4445934,-0.69391483,-15.768338,-32.688137,-183.39291,15.199165
-0.50879866,-0.55127805,-16.464966,-40.85843,-207.12059,14.440287
-0.39447847,-0.72698236,-17.023335,-41.823826,-228.45876,14.464566
-0.18788384,-1.0937939,-17.513983,-36.78658,-249.29582,15.118033
0.16409111,-1.4313579,-17.848255,-29.348858,-270.15472,15.9564705
0.7766861,-1.6292984,-17.859581,-21.369492,-292.56415,16.948458
2.054175,-1.4964288,-17.155088,-16.114855,-313.00558,17.839575
3.7707036,-1.1273918,-15.82628,-15.784488,-328.46637,18.851372
5.578481,-0.6810847,-14.005581,-18.205349,-335.91437,18.999352
7.0873346,-0.30237174,-12.031597,-20.577126,-335.86237,18.37162
8.1965885,0.16040616,-10.13686,-22.58802,-328.6512,16.96493
8.886035,0.81685144,-8.456802,-26.37183,-318.48694,15.114069
9.298062,1.4754124,-7.0645194,-32.17778,-306.95978,12.367604
9.534454,2.0725446,-5.899481,-39.321377,-294.40866,8.628014
9.653328,2.6382625,-4.9334407,-47.118237,-281.04,3.5207245
9.683803,3.1637175,-4.1608047,-56.055397,-267.15555,-3.2066958
9.648389,3.6009305,-3.6030085,-65.35623,-253.41301,-10.743383
9.55804,3.8630528,-3.2188575,-74.792656,-240.50761,-19.024607
9.440964,3.855785,-2.958718,-83.73606,-228.37186,-27.425455
9.318839,3.542617,-2.777125,-91.94456,-217.11066,-34.93976
9.194901,2.9426966,-2.6119392,-98.36601,-205.88908,-40.275276
9.001583,2.1235054,-2.479554,-102.38992,-194.9853,-44.119167
8.765037,1.2530437,-2.3735213,-104.32911,-184.80927,-46.361732
8.508921,0.42269638,-2.2787158,-105.03725,-175.48198,-46.538746
8.237697,-0.35475898,-2.1950808,-104.08134,-166.74527,-45.240265
7.945392,-1.0557635,-2.1265194,-100.66894,-157.85085,-42.58239
7.582588,-1.6077623,-2.111304,-95.92827,-149.16675,-39.182995
7.186927,-2.0122304,-2.1257453,-90.47917,-140.97438,-35.07037
6.777476,-2.2705152,-2.1504133,-84.5104,-133.42036,-30.471998
6.3628025,-2.4040835,-2.1765702,-78.15062,-126.810616,-25.747278
5.953518,-2.4332395,-2.200939,-71.72333,-121.20285,-21.500353
5.722312,-2.3387442,-2.1154652,-68.93794,-116.49591,-20.665384
5.5030956,-2.249149,-2.0344236,-66.29699,-112.03306,-19.87371
5.2949553,-2.1640809,-1.9574769,-63.78948,-107.79571,-19.12204
5.097075,-2.083206,-1.884323,-61.40557,-103.76722,-18.407421
4.90872,-2.0062242,-1.8146906,-59.136417,-99.93265,-17.727201
4.729229,-1.932865,-1.7483351,-56.97405,-96.27854,-17.078993
4.5580044,-1.8628844,-1.6850355,-54.911266,-92.79271,-16.460638
4.3945036,-1.7960608,-1.6245915,-52.941544,-89.46414,-15.870177
4.2382355,-1.732193,-1.5668212,-51.058945,-86.2828,-15.305835
4.0887513,-1.6710978,-1.5115588,-49.258076,-83.23957,-14.765991
3.945641,-1.6126078,-1.4586527,-47.533997,-80.32611,-14.249168
3.8085306,-1.5565698,-1.4079647,-45.882195,-77.53478,-13.754011
3.6770754,-1.5028434,-1.3593675,-44.298527,-74.8586,-13.279278
3.5509596,-1.4512991,-1.3127441,-42.779182,-72.29111,-12.823828
3.4298918,-1.4018179,-1.2679869,-41.320652,-69.826385,-12.386607
3.313603,-1.3542899,-1.2249964,-39.919697,-67.458954,-11.966645
3.2018442,-1.3086134,-1.1836805,-38.573315,-65.18375,-11.563043
3.0943847,-1.264694,-1.1439542,-37.278725,-62.996067,-11.174966
2.99101,-1.2224442,-1.1057379,-36.033348,-60.89155,-10.801642
2.891521,-1.1817824,-1.068958,-34.83478,-58.86613,-10.44235
2.7957315,-1.1426327,-1.033546,-33.680786,-56.916035,-10.09642
2.7034686,-1.1049242,-0.9994376,-32.569275,-55.037724,-9.763224
2.6145697,-1.0685906,-0.96657276,-31.49829,-53.2279,-9.442177
2.5288827,-1.0335699,-0.9348954,-30.466,-51.48347,-9.13273
2.4462652,-0.99980366,-0.9043528,-29.47069,-49.801533,-8.834368
2.3665836,-0.9672373,-0.8748955,-28.510746,-48.179356,-8.546608
2.2897115,-0.9358192,-0.8464769,-27.584652,-46.61438,-8.268994
2.2155304,-0.90550095,-0.8190531,-26.690977,-45.10419,-8.0011
2.1439285,-0.8762368,-0.7925828,-25.828373,-43.646503,-7.7425184
2.0748,-0.84798354,-0.76702684,-24.995567,-42.23917,-7.4928694
2.0080447,-0.8207002,-0.7423483,-24.191353,-40.880154,-7.2517915
1.9435682,-0.7943483,-0.7185122,-23.414589,-39.56753,-7.0189433
1.8812808,-0.76889104,-0.6954853,-22.664198,-38.29947,-6.794
1.8210971,-0.74429363,-0.6732362,-21.939154,-37.07424,-6.576655
1.7629365,-0.720523,-0.65173495,-21.23848,-35.890194,-6.3666153
1.7067219,-0.6975478,-0.63095313,-20.56125,-34.74577,-6.163604
1.6523803,-0.67533803,-0.61086375,-19.906586,-33.639473,-5.9673557
1.5998418,-0.6538652,-0.591441,-19.273643,-32.569885,-5.7776203
1.5490402,-0.63310224,-0.5726602,-18.661623,-31.535652,-5.5941563
1.4999117,-0.61302316,-0.5544981,-18.069763,-30.535486,-5.4167356
1.452396,-0.5936032,-0.5369321,-17.49733,-29.568153,-5.2451386
1.4064351,-0.5748187,-0.519941,-16.94363,-28.632471,-5.079157
1.3619736,-0.556647,-0.5035041,-16.407993,-27.727316,-4.91859
1.3189586,-0.5390665,-0.48760203,-15.889781,-26.851608,-4.763247
1.2773392,-0.5220564,-0.47221586,-15.388383,-26.004313,-4.6129436
1.2370669,-0.5055968,-0.4573277,-14.903213,-25.18444,-4.4675055
1.1980947,-0.48966873,-0.44292024,-14.433708,-24.39104,-4.326763
1.1603783,-0.47425377,-0.42897695,-13.97933,-23.623201,-4.190555
1.1238745,-0.45933443,-0.41548195,-13.53956,-22.880049,-4.0587263
1.088542,-0.4448938,-0.40241995,-13.113902,-22.160744,-3.9311273
1.0543411,-0.4309157,-0.38977635,-12.701877,-21.464476,-3.8076155
1.0212338,-0.41738454,-0.37753698,-12.303025,-20.79047,-3.6880527
0.9891833,-0.4042853,-0.36568832,-11.916906,-20.137981,-3.5723064
0.9581543,-0.39160356,-0.35421732,-11.543094,-19.506287,-3.4602494
0.9281129,-0.37932545,-0.3431114,-11.181178,-18.8947,-3.3517587
0.89902633,-0.3674376,-0.33235848,-10.830766,-18.30255,-3.2467165
0.8708631,-0.3559271,-0.3219469,-10.491477,-17.729197,-3.1450086
0.84359276,-0.34478158,-0.3118654,-10.162946,-17.17402,-3.0465252
0.8171861,-0.333989,-0.3021032,-9.844819,-16.63643,-2.9511611
0.7916149,-0.3235379,-0.29264987,-9.536757,-16.115847,-2.858814
0.7668519,-0.31341708,-0.28349528,-9.238432,-15.611716,-2.7693856
0.7428708,-0.30361587,-0.27462977,-8.949526,-15.123505,-2.682781
0.7196463,-0.29412386,-0.26604396,-8.669735,-14.650695,-2.5989087
0.69715387,-0.28493106,-0.25772882,-8.398764,-14.19279,-2.5176802
0.6753699,-0.27602783,-0.24967557,-8.136328,-13.749309,-2.4390104
0.65427166,-0.26740485,-0.24187581,-7.8821526,-13.319786,-2.3628166
0.633837,-0.25905308,-0.23432139,-7.635972,-12.903773,-2.2890196
0.6140447,-0.25096387,-0.22700442,-7.39753,-12.500838,-2.2175424
0.5948742,-0.24312875,-0.21991734,-7.166579,-12.110561,-2.1483107
0.5763056,-0.23553964,-0.21305276,-6.942879,-11.732538,-2.0812526
0.5583197,-0.22818871,-0.20640361,-6.726199,-11.366379,-2.0162988
0.54089797,-0.22106832,-0.19996302,-6.5163155,-11.0117035,-1.9533824
0.5240224,-0.21417119,-0.19372433,-6.3130116,-10.668147,-1.8924385
0.50767565,-0.20749016,-0.18768117,-6.1160793,-10.335358,-1.8334044
0.491841,-0.20101844,-0.18182728,-5.9253154,-10.012992,-1.7762195
0.47650212,-0.19474934,-0.1761567,-5.740525,-9.70072,-1.7208252
0.46164337,-0.18867649,-0.17066361,-5.561518,-9.398223,-1.6671648
0.44724956,-0.18279365,-0.1653424,-5.3881125,-9.105191,-1.6151834
0.43330598,-0.17709482,-0.16018765,-5.2201314,-8.821325,-1.564828
0.41979843,-0.1715742,-0.15519407,-5.057403,-8.546336,-1.5160472
0.40671316,-0.16622616,-0.15035662,-4.8997617,-8.279943,-1.4687915
0.39403683,-0.16104528,-0.14567034,-4.7470474,-8.021876,-1.4230126
0.3817566,-0.15602627,-0.1411305,-4.599105,-7.771873,-1.3786641
0.36985996,-0.15116405,-0.13673247,-4.4557834,-7.5296793,-1.3357011
0.3583349,-0.14645368,-0.1324718,-4.3169384,-7.2950497,-1.2940798
0.34716973,-0.1418904,-0.12834418,-4.1824293,-7.0677466,-1.2537582
0.3363531,-0.13746957,-0.12434541,-4.052119,-6.84754,-1.2146953
0.3258741,-0.13318674,-0.120471455,-3.9258761,-6.6342063,-1.1768517
0.3157221,-0.12903757,-0.116718404,-3.8035731,-6.427531,-1.1401893
0.30588692,-0.12501787,-0.11308246,-3.6850863,-6.227304,-1.1046708
0.2963586,-0.121123575,-0.10955995,-3.5702963,-6.033324,-1.0702603
0.28712744,-0.11735076,-0.10614733,-3.459087,-5.845395,-1.0369233
0.27818424,-0.113695614,-0.10284114,-3.351346,-5.6633277,-1.0046262
0.26951995,-0.11015446,-0.09963805,-3.2469654,-5.486938,-0.9733361
0.2611258,-0.106723726,-0.096534856,-3.1458395,-5.3160486,-0.94302183
0.2529934,-0.10339996,-0.09352841,-3.0478666,-5.150488,-0.9136527
0.24511454,-0.10017982,-0.09061569,-2.952948,-4.990088,-0.8851992
0.23748128,-0.09706006,-0.087793775,-2.8609886,-4.8346887,-0.85763264
0.23008594,-0.09403754,-0.085059814,-2.7718954,-4.684133,-0.83092535
0.2229211,-0.09110922,-0.082411066,-2.685579,-4.53827,-0.8050505
0.21597955,-0.08827217,-0.07984486,-2.6019526,-4.3969526,-0.779982
0.20925431,-0.08552352,-0.077358626,-2.5209322,-4.260039,-0.7556947
0.20273864,-0.08286053,-0.07494987,-2.4424365,-4.127392,-0.73216414
0.19642599,-0.08028051,-0.07261616,-2.3663867,-3.9988773,-0.7093668
0.19031002,-0.07778087,-0.07035516,-2.292706,-3.8743672,-0.68727976
0.18438457,-0.075359106,-0.0681646,-2.221321,-3.753736,-0.6658808
0.17864373,-0.07301279,-0.06604229,-2.15216,-3.6368628,-0.6451485
0.17308173,-0.07073957,-0.063986085,-2.085153,-3.5236304,-0.62506205
0.16769297,-0.068537146,-0.061993934,-2.0202336,-3.4139252,-0.60560125
0.16247207,-0.06640334,-0.06006383,-1.9573363,-3.307637,-0.5867467
0.15741378,-0.06433598,-0.058193848,-1.8963981,-3.2046595,-0.5684793
0.15251304,-0.062333018,-0.05638211,-1.8373578,-3.1048892,-0.55078095
0.14776492,-0.060392436,-0.054626793,-1.7801561,-3.0082264,-0.53363377
0.14316468,-0.05851229,-0.05292614,-1.7247361,-2.9145737,-0.5170206
0.13870771,-0.056690697,-0.051278457,-1.671042,-2.8238378,-0.5009248
0.13438953,-0.05492583,-0.04968208,-1.6190199,-2.7359276,-0.48533025
0.13020582,-0.05321592,-0.04813542,-1.5686178,-2.6507547,-0.47022134
0.1261524,-0.05155926,-0.046636917,-1.5197853,-2.5682342,-0.45558292
0.12222519,-0.049954187,-0.045185078,-1.4724734,-2.4882834,-0.44140032
0.118420266,-0.04839909,-0.043778446,-1.4266347,-2.4108222,-0.42765933
0.114733815,-0.046892416,-0.042415615,-1.3822232,-2.3357728,-0.41434622
0.111162156,-0.045432657,-0.041095216,-1.3391947,-2.26306,-0.40144762
0.1077017,-0.044018347,-0.039815933,-1.2975057,-2.1926115,-0.38895062
0.10434899,-0.042648073,-0.038576476,-1.2571149,-2.1243565,-0.37684274
0.10110066,-0.04132046,-0.037375614,-1.2179817,-2.0582263,-0.36511186
0.097953476,-0.040034186,-0.03621214,-1.1800668,-1.9941553,-0.35374618
0.09490427,-0.038787957,-0.03508489,-1.1433324,-1.9320791,-0.3427344
0.09195,-0.03758053,-0.03399273,-1.1077416,-1.8719355,-0.33206543
0.0890877,-0.036410693,-0.032934576,-1.0732589,-1.8136643,-0.32172862
0.08631452,-0.035277274,-0.031909365,-1.0398498,-1.7572073,-0.3117136
0.08362767,-0.034179144,-0.030916074,-1.0074807,-1.702508,-0.30201042
0.08102447,-0.0331152,-0.029953703,-0.9761194,-1.6495115,-0.2926093
0.07850231,-0.03208438,-0.029021295,-0.9457344,-1.5981649,-0.28350085
0.07605867,-0.031085648,-0.028117912,-0.91629535,-1.5484169,-0.27467597
0.07369111,-0.030118007,-0.027242653,-0.88777274,-1.5002174,-0.2661258
0.071397245,-0.029180491,-0.026394641,-0.8601381,-1.4535185,-0.25784183
0.06917479,-0.028272161,-0.02557303,-0.8333637,-1.4082735,-0.24981572
0.06702152,-0.027392108,-0.024776995,-0.8074229,-1.3644369,-0.24203949
0.06493529,-0.02653945,-0.024005739,-0.7822895,-1.3219649,-0.23450531
0.062914,-0.025713338,-0.023258494,-0.75793856,-1.280815,-0.22720568
0.060955625,-0.02491294,-0.02253451,-0.7343457,-1.2409462,-0.22013329
0.059058223,-0.024137458,-0.021833064,-0.71148723,-1.2023184,-0.21328107
0.05721988,-0.023386117,-0.021153454,-0.68934035,-1.1648932,-0.20664214
0.055438768,-0.022658166,-0.020495,-0.66788286,-1.1286329,-0.20020987
0.0537131,-0.021952873,-0.019857042,-0.64709336,-1.0935014,-0.19397785
0.052041147,-0.021269536,-0.019238941,-0.626951,-1.0594635,-0.18793981
