ax,ay,az,gx,gy,gz
2.2791116,2.4972954,-14.433767,46.66497,-266.1715,-39.063084
2.4129455,2.693459,-15.791809,47.34681,-298.30756,-42.610817
2.2843432,2.6752133,-16.215218,53.68383,-317.43103,-44.44258
2.2499862,2.7934031,-16.3973,56.81325,-327.1166,-44.84392
2.4009295,2.9975374,-16.62612,52.949516,-335.7335,-45.015793
2.7274528,2.9489598,-16.783314,45.510166,-343.63574,-45.111317
3.1044734,2.5621748,-16.872475,40.739483,-349.42764,-46.54782
3.4082735,2.0646424,-16.858591,41.80959,-353.33914,-49.88703
3.7077436,1.5178461,-16.624569,47.24416,-358.80054,-50.694355
4.392238,1.3836982,-15.884522,49.73712,-367.11618,-44.205772
5.734447,2.1432672,-14.339088,34.981335,-374.2563,-35.52233
7.5527573,2.5918436,-12.082558,15.840138,-373.37387,-28.870504
9.193302,2.7216456,-9.860701,0.82103086,-362.28464,-26.169497
10.446624,2.8288014,-7.870613,-8.8401165,-343.6508,-26.821243
11.29294,3.076036,-6.2016015,-18.053083,-321.73816,-27.621918
11.737619,3.4083862,-4.9403195,-30.193254,-298.5484,-27.627811
11.73491,3.70923,-4.1597714,-42.05782,-276.36462,-28.78946
11.546676,3.9057062,-3.670835,-52.065727,-255.47456,-32.19334
11.290958,3.9981902,-3.3784003,-60.963657,-236.27562,-36.82509
11.005948,4.0266304,-3.2147567,-69.711464,-219.20285,-41.458023
10.690957,3.998977,-3.1451294,-78.4547,-204.61986,-45.986477
10.330605,3.8443327,-3.1477695,-86.134315,-191.72389,-50.888195
9.930134,3.6019216,-3.1766675,-92.28142,-180.29233,-56.073967
9.5189085,3.3372679,-3.2345378,-97.48165,-170.59756,-61.39383
9.166952,2.998182,-3.3218393,-102.11426,-162.6414,-66.48704
8.905974,2.5468712,-3.4205158,-105.829475,-155.91292,-69.89726
8.725597,1.9997523,-3.5261261,-108.52847,-149.5549,-71.63912
8.604654,1.3443116,-3.626577,-109.73397,-142.9608,-71.71233
8.474788,0.6647068,-3.7250822,-109.18758,-136.11046,-70.130196
8.327758,0.0069664787,-3.8039584,-107.28414,-129.3099,-66.83552
8.155481,-0.58228356,-3.8495579,-103.67768,-122.483406,-61.45131
7.9101067,-1.0257018,-3.8660145,-99.01708,-115.98477,-56.042778
7.6387224,-1.382778,-3.8736978,-93.23457,-110.03859,-51.349926
7.3993917,-1.6891944,-3.8624794,-86.71314,-104.6492,-47.044144
7.112035,-1.6235943,-3.7124794,-83.34563,-100.58514,-45.217175
6.839579,-1.5613959,-3.5702577,-80.152725,-96.731804,-43.484947
6.58089,-1.5023402,-3.4352221,-77.12116,-93.07318,-41.840244
6.3349524,-1.4461955,-3.3068426,-74.23903,-89.594894,-40.27661
6.1008534,-1.3927534,-3.184643,-71.495636,-86.28405,-38.788246
5.8777714,-1.3418263,-3.0681942,-68.88134,-83.129005,-37.369926
5.664963,-1.2932446,-2.9571083,-66.38745,-80.11927,-36.016922
5.461755,-1.2468547,-2.8510337,-64.006065,-77.24531,-34.724957
5.267535,-1.2025166,-2.7496512,-61.73001,-74.49847,-33.490143
5.081747,-1.1601033,-2.65267,-59.55277,-71.87087,-32.30893
4.903881,-1.1194986,-2.559824,-57.468365,-69.35533,-31.178087
4.7334714,-1.0805961,-2.4708703,-55.471344,-66.94524,-30.094652
4.5700912,-1.0432984,-2.3855858,-53.556698,-64.63456,-29.055906
4.413347,-1.0075154,-2.3037653,-51.71982,-62.417732,-28.059351
4.2628765,-0.9731648,-2.22522,-49.956463,-60.28964,-27.102686
4.1183457,-0.9401701,-2.1497748,-48.262714,-58.24555,-26.18378
3.9794452,-0.90846074,-2.0772688,-46.634945,-56.281082,-25.300674
3.845888,-0.8779712,-2.007552,-45.069794,-54.39219,-24.451538
3.7174077,-0.8486406,-1.9404854,-43.564137,-52.5751,-23.634682
3.5937567,-0.8204126,-1.8759396,-42.115078,-50.82631,-22.848528
3.474704,-0.7932342,-1.8137941,-40.719902,-49.142555,-22.09161
3.360034,-0.7670564,-1.7539364,-39.37609,-47.520782,-21.362556
3.2495449,-0.74183303,-1.6962612,-38.081276,-45.95814,-20.660084
3.143048,-0.7175211,-1.6406698,-36.83324,-44.45196,-19.982994
3.0403662,-0.69408,-1.5870699,-35.629917,-42.999737,-19.33016
2.9413328,-0.67147183,-1.5353746,-34.469353,-41.599113,-18.700521
2.8457918,-0.64966094,-1.4855021,-33.34971,-40.247883,-18.093086
2.753595,-0.62861353,-1.4373755,-32.26926,-38.943947,-17.506916
2.664604,-0.6082978,-1.3909222,-31.226376,-37.685352,-16.941124
2.5786867,-0.58868396,-1.3460734,-30.219517,-36.47023,-16.394876
2.4957192,-0.56974345,-1.3027644,-29.247225,-35.296825,-15.867382
2.415584,-0.55144954,-1.2609339,-28.308123,-34.163475,-15.357895
2.3381693,-0.5337767,-1.2205235,-27.400904,-33.068604,-14.8657055
2.2633696,-0.51670074,-1.1814779,-26.524328,-32.010715,-14.39014
2.191084,-0.5001988,-1.143745,-25.677216,-30.988384,-13.930559
2.121217,-0.48424903,-1.1072744,-24.85845,-30.000261,-13.486358
2.053678,-0.46883065,-1.0720191,-24.066963,-29.04506,-13.056955
1.9883801,-0.45392388,-1.0379336,-23.301739,-28.121553,-12.641801
1.9252406,-0.43950987,-1.0049748,-22.56181,-27.228575,-12.240371
1.8641808,-0.42557064,-0.9731016,-21.846252,-26.365011,-11.852162
1.8051255,-0.412089,-0.94227475,-21.154186,-25.529793,-11.476698
1.7480024,-0.39904848,-0.9124566,-20.484764,-24.721907,-11.113519
1.6927431,-0.38643342,-0.8836112,-19.837181,-23.940374,-10.762188
1.6392814,-0.37422875,-0.8557042,-19.210667,-23.184269,-10.422288
1.5875542,-0.36242005,-0.8287027,-18.604479,-22.452696,-10.093415
1.5375013,-0.35099354,-0.80257505,-18.01791,-21.744799,-9.775187
1.4890646,-0.339936,-0.77729106,-17.450281,-21.059761,-9.467233
1.4421883,-0.3292347,-0.7528217,-16.90094,-20.396791,-9.169201
1.3968191,-0.31887743,-0.729139,-16.36926,-19.755138,-8.880752
1.3529056,-0.30885252,-0.7062162,-15.854642,-19.134073,-8.601557
1.3103988,-0.2991487,-0.6840277,-15.356506,-18.5329,-8.3313055
1.269251,-0.28975514,-0.6625485,-14.874297,-17.950949,-8.069694
1.2294167,-0.28066143,-0.64175504,-14.40748,-17.387575,-7.816434
1.190852,-0.27185756,-0.6216243,-13.955543,-16.842157,-7.571246
1.1535147,-0.26333392,-0.6021342,-13.517989,-16.314098,-7.333862
1.1173642,-0.25508118,-0.5832637,-13.094342,-15.802823,-7.1040225
1.0823612,-0.2470904,-0.56499213,-12.684144,-15.307777,-6.881479
1.048468,-0.23935297,-0.5472999,-12.286951,-14.828428,-6.6659913
1.0156482,-0.23186061,-0.530168,-11.902337,-14.36426,-6.4573283
0.9838668,-0.22460526,-0.51357806,-11.529892,-13.914776,-6.255267
0.95308983,-0.21757925,-0.49751252,-11.169218,-13.479499,-6.0595922
0.92328465,-0.21077508,-0.48195422,-10.819933,-13.057966,-5.8700957
0.89441985,-0.20418558,-0.4668868,-10.481667,-12.649733,-5.686578
0.8664649,-0.19780378,-0.45229432,-10.154064,-12.254367,-5.5088444
0.8393905,-0.19162302,-0.4381615,-9.836781,-11.871455,-5.33671
0.8131683,-0.1856368,-0.42447352,-9.529484,-11.500596,-5.1699934
0.78777087,-0.17983887,-0.41121608,-9.231853,-11.141402,-5.0085206
0.76317185,-0.17422318,-0.3983754,-8.943577,-10.793499,-4.8521237
0.73934555,-0.16878393,-0.38593808,-8.664358,-10.456525,-4.70064
0.7162674,-0.16351546,-0.3738913,-8.393907,-10.130132,-4.553913
0.69391346,-0.15841231,-0.36222255,-8.131941,-9.813981,-4.4117904
0.67226064,-0.15346923,-0.35091978,-7.878193,-9.507747,-4.274125
0.65128666,-0.14868112,-0.3399714,-7.6324,-9.211113,-4.140776
0.63096994,-0.14404306,-0.32936606,-7.394309,-8.923775,-4.0116057
0.6112897,-0.13955027,-0.31909296,-7.1636767,-8.645437,-3.8864815
0.5922256,-0.13519816,-0.30914152,-6.9402657,-8.375815,-3.7652752
0.57375824,-0.13098228,-0.29950157,-6.723848,-8.114633,-3.6478627
0.55586874,-0.12689832,-0.29016325,-6.514201,-7.861622,-3.5341241
0.5385388,-0.122942105,-0.28111705,-6.311113,-7.616526,-3.4239433
0.5217508,-0.1191096,-0.2723537,-6.114375,-7.379094,-3.317208
0.5054877,-0.11539691,-0.26386434,-5.9237876,-7.149085,-3.2138093
0.48973277,-0.11180025,-0.2556403,-5.7391567,-6.9262643,-3.1136422
0.47447014,-0.108315974,-0.24767323,-5.5602946,-6.710406,-3.016605
0.4596843,-0.10494054,-0.23995502,-5.38702,-6.501291,-2.922599
0.44536027,-0.10167053,-0.23247787,-5.219157,-6.2987065,-2.831529
0.43148348,-0.09850263,-0.22523421,-5.056536,-6.102448,-2.7433026
0.41803992,-0.09543362,-0.21821667,-4.8989916,-5.9123163,-2.6578307
0.405016,-0.09246041,-0.21141818,-4.7463646,-5.72812,-2.5750265
0.3923985,-0.089579985,-0.20483187,-4.5985007,-5.549671,-2.4948068
0.38017473,-0.08678944,-0.19845106,-4.455251,-5.376791,-2.41709
0.36833233,-0.084085956,-0.19226933,-4.31647,-5.2093043,-2.3417978
0.35685933,-0.0814668,-0.18628043,-4.1820188,-5.0470424,-2.2688544
0.34574416,-0.07892934,-0.18047832,-4.0517607,-4.8898416,-2.198186
0.33497566,-0.076471016,-0.17485715,-3.925565,-4.737543,-2.1297214
0.32454294,-0.07408935,-0.16941127,-3.8033044,-4.5899935,-2.063392
0.31443548,-0.07178194,-0.1641352,-3.6848557,-4.4470444,-1.9991302
0.30464315,-0.06954646,-0.1590236,-3.5700996,-4.308552,-1.9368722
0.29515606,-0.067380674,-0.15407135,-3.458921,-4.1743765,-1.8765548
0.2859647,-0.06528239,-0.14927346,-3.3512077,-4.0443835,-1.8181176
0.2770598,-0.063249506,-0.1446251,-3.2468517,-3.918442,-1.7615017
0.26843244,-0.06127998,-0.14012162,-3.1457477,-3.7964256,-1.7066503
0.2600739,-0.059371825,-0.13575847,-3.0477946,-3.6782112,-1.6535081
0.25197583,-0.057523128,-0.13153128,-2.9528935,-3.5636806,-1.6020218
0.24413007,-0.055732038,-0.1274358,-2.8609495,-3.4527187,-1.5521398
0.23652877,-0.05399675,-0.12346792,-2.7718701,-3.345214,-1.503812
0.22916427,-0.052315522,-0.11962366,-2.6855662,-3.241058,-1.4569896
0.22202921,-0.05068667,-0.11589916,-2.6019506,-3.1401474,-1.4116261
0.21511641,-0.049108557,-0.11229068,-2.5209398,-3.04238,-1.3676755
0.20841895,-0.047579605,-0.10879461,-2.4424524,-2.947658,-1.3250942
0.20193009,-0.046098273,-0.105407424,-2.3664098,-2.8558865,-1.2838391
0.19564335,-0.044663087,-0.10212575,-2.2927358,-2.7669735,-1.243869
0.18955241,-0.043272596,-0.09894628,-2.2213564,-2.6808295,-1.2051438
0.18365116,-0.04192541,-0.09586584,-2.1522,-2.5973687,-1.1676246
0.17793371,-0.04062018,-0.09288133,-2.0851974,-2.5165071,-1.131274
0.17239432,-0.039355602,-0.08998977,-2.0202813,-2.4381638,-1.0960554
0.16702743,-0.038130403,-0.087188244,-1.957387,-2.3622599,-1.0619335
0.16182765,-0.036943357,-0.084473975,-1.8964512,-2.28872,-1.0288743
0.15678981,-0.03579328,-0.08184422,-1.837413,-2.21747,-0.9968444
0.15190884,-0.03467901,-0.07929635,-1.780213,-2.1484387,-0.96581197
0.14717986,-0.033599436,-0.076827824,-1.7247943,-2.0815568,-0.93574584
0.14259811,-0.03255348,-0.07443616,-1.671101,-2.0167575,-0.9066159
0.13815904,-0.03154009,-0.07211896,-1.6190797,-1.9539759,-0.87839293
0.13385817,-0.030558253,-0.069873914,-1.568678,-1.893149,-0.85104877
0.12969121,-0.029606987,-0.06769876,-1.5198457,-1.834216,-0.82455593
0.12565401,-0.028685339,-0.06559134,-1.4725338,-1.777118,-0.79888797
0.12174249,-0.027792385,-0.06354953,-1.4266949,-1.7217976,-0.7740192
0.11795276,-0.026927233,-0.06157129,-1.3822832,-1.6681995,-0.74992466
0.114281006,-0.026089016,-0.05965464,-1.3392541,-1.6162702,-0.72658026
0.11072358,-0.025276896,-0.057797663,-1.2975647,-1.5659577,-0.7039627
0.107276894,-0.024490058,-0.055998497,-1.2571732,-1.5172114,-0.6820493
0.103937514,-0.023727717,-0.05425534,-1.2180392,-1.4699827,-0.66081804
0.1007021,-0.022989111,-0.052566458,-1.1801234,-1.4242245,-0.64024776
0.09756741,-0.022273498,-0.05093015,-1.1433882,-1.3798907,-0.62031794
0.09453031,-0.021580162,-0.04934478,-1.1077965,-1.3369371,-0.60100853
0.09158775,-0.020908412,-0.04780877,-1.0733129,-1.2953207,-0.58230025
0.0887368,-0.020257572,-0.046320576,-1.0399027,-1.2549999,-0.56417435
0.085974604,-0.019626996,-0.04487871,-1.0075326,-1.2159343,-0.54661274
0.08329839,-0.019016048,-0.043481726,-0.97617024,-1.1780847,-0.5295978
0.08070549,-0.01842412,-0.042128235,-0.94578415,-1.1414136,-0.51311255
0.078193314,-0.017850617,-0.040816877,-0.916344,-1.1058838,-0.49714053
0.07575934,-0.017294968,-0.03954634,-0.8878203,-1.0714602,-0.48166567
0.07340112,-0.016756617,-0.038315356,-0.86018455,-1.0381082,-0.46667254
0.07111632,-0.016235024,-0.037122693,-0.8334091,-1.0057944,-0.45214614
0.06890265,-0.015729668,-0.035967153,-0.8074671,-0.9744865,-0.43807197
0.06675788,-0.0152400425,-0.034847587,-0.78233266,-0.94415313,-0.42443588
0.064679876,-0.014765658,-0.03376287,-0.75798064,-0.91476405,-0.41122428
