ax,ay,az,gx,gy,gz
0.18272893,1.7527431,-11.019192,-57.206882,-34.568497,10.376457
-0.08682221,1.335004,-11.5508375,-51.67325,-55.64144,13.4589815
-0.14860436,1.2871742,-11.719583,-43.751724,-74.8603,10.924074
-0.14968044,1.2146685,-11.9618,-36.17867,-88.77852,8.369244
-0.23063971,1.0600445,-12.307522,-26.535511,-99.899475,5.7183642
-0.33892974,0.972493,-12.7272835,-17.558426,-110.588554,2.8528461
-0.44898248,0.9668563,-13.185112,-9.869077,-121.88819,0.40723667
-0.59035856,0.98723215,-13.6887665,-2.469872,-135.9626,-0.8174051
-0.7924589,1.1161579,-14.278013,3.1326013,-151.75446,-1.4323257
-1.0144899,1.3100015,-14.889338,7.414567,-169.95145,-2.417992
-1.1845783,1.5533565,-15.456793,11.749949,-190.26723,-3.9345555
-1.2272605,1.9414458,-15.929963,15.012747,-213.21298,-5.3413887
-0.9892255,2.6236262,-16.109058,13.368875,-237.61772,-6.2832327
-0.20619717,3.6545568,-15.716271,8.365043,-257.61337,-8.267545
0.8787026,4.613354,-14.998274,3.933452,-271.46524,-14.746564
2.139161,5.336773,-14.048696,-0.16379021,-281.09464,-24.911184
3.5414433,5.921484,-12.846323,-4.7054377,-286.52197,-35.404045
4.9815154,6.4595428,-11.520131,-14.124564,-286.4428,-43.619926
6.2919374,6.721404,-10.274608,-27.11219,-282.24518,-49.534275
7.3517685,6.675079,-9.250839,-41.160225,-274.71924,-54.786148
8.1346445,6.363198,-8.452401,-53.835144,-264.48657,-60.02513
8.609705,5.890948,-7.857567,-64.8734,-253.49146,-64.84129
8.889942,5.3209596,-7.362099,-73.74129,-242.31747,-68.70059
9.055807,4.7539706,-6.8745494,-81.162994,-231.03348,-71.69451
9.132767,4.180684,-6.426848,-86.560165,-219.38074,-74.43432
9.138361,3.5778854,-6.036194,-90.303116,-208.05351,-76.3398
9.089716,2.9684033,-5.693934,-93.22028,-197.15468,-77.13471
8.991693,2.3453193,-5.3960004,-94.793205,-186.34708,-76.455864
8.799641,1.7452102,-5.15579,-95.02165,-175.79897,-75.18462
8.5439825,1.1939298,-4.9620395,-94.084435,-165.61809,-73.40768
8.240453,0.69322634,-4.8126125,-92.52867,-156.09476,-70.96909
7.909063,0.25011295,-4.6995535,-90.455,-147.31459,-67.92001
7.5739675,-0.13985294,-4.6116457,-87.74848,-139.31828,-64.344444
7.242697,-0.4563933,-4.537974,-84.61551,-131.89731,-60.59204
6.9183183,-0.7075639,-4.4767704,-81.01893,-125.02813,-56.87602
6.5973907,-0.9138369,-4.4297357,-76.95651,-118.83783,-53.294228
6.2807274,-1.0832494,-4.389049,-72.473755,-113.36199,-49.738766
5.975188,-1.2138909,-4.3494706,-67.79911,-108.67157,-45.94568
5.7543836,-1.1690333,-4.188742,-65.29369,-104.65577,-44.247826
5.54397,-1.1262867,-4.035578,-62.90618,-100.82895,-42.62987
5.3432474,-1.0855088,-3.8894672,-60.62862,-97.178375,-41.08643
5.1515794,-1.0465704,-3.7499478,-58.453808,-93.69248,-39.612614
4.9683895,-1.0093545,-3.6166,-56.3752,-90.36079,-38.203995
4.7931523,-0.9737541,-3.489041,-54.386818,-87.17372,-36.85652
4.6253877,-0.9396718,-3.3669214,-52.48323,-84.12256,-35.56651
4.464656,-0.9070183,-3.249921,-50.659443,-81.19931,-34.330578
4.310554,-0.87571174,-3.137747,-48.910885,-78.39664,-33.145626
4.162711,-0.8456767,-3.030129,-47.233345,-75.7078,-32.0088
4.0207863,-0.81684387,-2.9268186,-45.622955,-73.126595,-30.91748
3.8844633,-0.78914917,-2.8275862,-44.07613,-70.64727,-29.869238
3.7534509,-0.7625333,-2.7322195,-42.58956,-68.26453,-28.86183
3.6274784,-0.73694134,-2.6405213,-41.16018,-65.97345,-27.893175
3.5062947,-0.71232224,-2.552309,-39.785133,-63.769466,-26.961344
3.3896658,-0.68862844,-2.4674122,-38.461773,-61.64832,-26.064537
3.2773743,-0.66581583,-2.3856728,-37.187626,-59.606056,-25.20108
3.1692162,-0.643843,-2.3069422,-35.960384,-57.638973,-24.36941
3.065002,-0.6226713,-2.2310822,-34.777885,-55.743614,-23.568062
2.964553,-0.6022646,-2.1579633,-33.638115,-53.916737,-22.79567
2.8677025,-0.58258885,-2.0874639,-32.539173,-52.155304,-22.050945
2.7742934,-0.56361234,-2.0194693,-31.479282,-50.45646,-21.332685
2.684178,-0.5453049,-1.9538722,-30.456762,-48.817516,-20.63975
2.5972173,-0.5276384,-1.8905716,-29.47004,-47.23595,-19.971073
2.51328,-0.510586,-1.8294717,-28.51762,-45.70937,-19.325644
2.432242,-0.49412277,-1.7704824,-27.598103,-44.23552,-18.70251
2.3539863,-0.47822472,-1.7135184,-26.710152,-42.812275,-18.10077
2.278402,-0.46286935,-1.6584989,-25.852514,-41.43761,-17.519571
2.2053838,-0.44803533,-1.6053473,-25.023993,-40.10962,-16.958103
2.134832,-0.43370232,-1.553991,-24.223455,-38.82648,-16.415602
2.0666513,-0.4198511,-1.5043609,-23.449827,-37.586475,-15.891334
2.0007522,-0.40646335,-1.4563916,-22.702085,-36.38796,-15.384608
1.9370488,-0.39352167,-1.4100205,-21.979256,-35.229374,-14.894766
1.8754592,-0.3810094,-1.365188,-21.280413,-34.109234,-14.421178
1.8159055,-0.36891076,-1.3218374,-20.60467,-33.026123,-13.963244
1.7583133,-0.3572106,-1.2799149,-19.951183,-31.978685,-13.520394
1.7026117,-0.34589452,-1.2393684,-19.31915,-30.965633,-13.092082
1.6487327,-0.33494872,-1.2001488,-18.707798,-29.98573,-12.677785
1.5966115,-0.32436,-1.1622086,-18.11639,-29.037794,-12.277003
1.5461859,-0.3141158,-1.1255027,-17.544222,-28.120697,-11.88926
1.4973965,-0.30420396,-1.0899878,-16.99062,-27.233355,-11.514097
1.450186,-0.2946129,-1.0556222,-16.454933,-26.374733,-11.151077
1.4044999,-0.28533155,-1.0223664,-15.936544,-25.543835,-10.799778
1.3602858,-0.27634922,-0.9901819,-15.434856,-24.739706,-10.459798
1.3174932,-0.26765567,-0.95903224,-14.949298,-23.96143,-10.130748
1.2760736,-0.25924107,-0.92888206,-14.47932,-23.208128,-9.812256
1.2359807,-0.25109598,-0.89969754,-14.024395,-22.478952,-9.503964
1.1971698,-0.24321133,-0.8714462,-13.584015,-21.77309,-9.205531
1.1595976,-0.23557836,-0.8440966,-13.157693,-21.089762,-8.916624
1.1232231,-0.22818868,-0.8176188,-12.744959,-20.428213,-8.636925
1.0880061,-0.22103418,-0.7919836,-12.345361,-19.78772,-8.366128
1.0539087,-0.2141071,-0.7671633,-11.958464,-19.167582,-8.103938
1.0208935,-0.20739989,-0.7431308,-11.583848,-18.567131,-7.8500705
0.9889251,-0.20090534,-0.7198603,-11.22111,-17.985718,-7.6042523
0.9579692,-0.19461648,-0.69732684,-10.869861,-17.422718,-7.3662195
0.92799264,-0.18852659,-0.67550623,-10.529723,-16.87753,-7.1357174
0.89896345,-0.18262917,-0.65437526,-10.2003355,-16.349573,-6.9125004
0.870851,-0.17691796,-0.63391155,-9.88135,-15.838286,-6.6963315
0.84362537,-0.17138693,-0.6140934,-9.572427,-15.343131,-6.486983
0.817258,-0.16603026,-0.5949001,-9.273242,-14.863584,-6.284233
0.79172117,-0.16084233,-0.57631123,-8.983481,-14.399142,-6.08787
0.76698816,-0.15581767,-0.5583075,-8.702842,-13.949319,-5.8976874
0.74303305,-0.15095107,-0.54087013,-8.431028,-13.513645,-5.713487
0.719831,-0.14623746,-0.5239808,-8.16776,-13.091665,-5.535077
0.69735783,-0.14167191,-0.5076221,-7.912762,-12.682943,-5.362272
0.6755903,-0.13724972,-0.49177703,-7.6657705,-12.287054,-5.194892
0.65450585,-0.13296631,-0.4764292,-7.42653,-11.903587,-5.032765
0.6340827,-0.12881723,-0.46156272,-7.194793,-11.532149,-4.875723
0.61429983,-0.124798246,-0.44716236,-6.9703217,-11.172356,-4.723604
0.59513694,-0.1209052,-0.43321326,-6.7528844,-10.823837,-4.576253
0.57657427,-0.1171341,-0.4197011,-6.5422583,-10.486236,-4.433517
0.55859286,-0.11348108,-0.40661204,-6.3382273,-10.159205,-4.2952504
0.5411743,-0.10994241,-0.39393267,-6.1405826,-9.842411,-4.161312
0.52430075,-0.106514454,-0.38165003,-5.949122,-9.53553,-4.031564
0.507955,-0.10319373,-0.3697516,-5.763651,-9.238248,-3.905875
0.4921204,-0.099976845,-0.35822526,-5.583979,-8.950261,-3.7841163
0.4767808,-0.09686053,-0.34705922,-5.4099245,-8.671278,-3.666164
0.46192065,-0.09384161,-0.3362422,-5.241309,-8.401014,-3.551898
0.4475248,-0.09091701,-0.32576314,-5.077963,-8.139195,-3.4412024
0.43357864,-0.08808379,-0.31561142,-4.919719,-7.885555,-3.3339648
0.42006806,-0.08533904,-0.30577677,-4.7664175,-7.639836,-3.2300763
0.40697935,-0.08268,-0.2962492,-4.617903,-7.4017897,-3.129432
0.39429927,-0.08010397,-0.2870191,-4.474025,-7.171175,-3.0319295
0.38201496,-0.077608354,-0.2780771,-4.3346376,-6.947759,-2.9374704
0.37011403,-0.07519062,-0.26941416,-4.1996007,-6.731315,-2.8459592
0.35858446,-0.07284832,-0.26102152,-4.068777,-6.521625,-2.7573035
0.34741458,-0.070579104,-0.2528907,-3.942035,-6.318477,-2.671414
0.33659315,-0.06838067,-0.24501355,-3.8192465,-6.121666,-2.5882032
0.32610923,-0.06625081,-0.23738207,-3.7002878,-5.9309936,-2.5075881
0.31595224,-0.06418736,-0.22998859,-3.585039,-5.7462673,-2.429487
0.306112,-0.062188264,-0.22282566,-3.473384,-5.5673013,-2.3538213
0.29657856,-0.060251497,-0.21588606,-3.36521,-5.393915,-2.2805147
0.28734234,-0.05837511,-0.2091628,-3.2604086,-5.225935,-2.2094936
0.27839404,-0.056557212,-0.20264915,-3.1588743,-5.063191,-2.1406863
0.26972464,-0.05479598,-0.1963385,-3.0605047,-4.9055195,-2.074024
0.26132545,-0.053089645,-0.19022454,-2.9652011,-4.7527623,-2.009439
0.25318804,-0.051436484,-0.18430114,-2.8728676,-4.604766,-1.9468671
0.2453042,-0.04983484,-0.17856231,-2.7834113,-4.4613814,-1.886245
0.23766601,-0.048283104,-0.17300232,-2.6967428,-4.3224645,-1.8275119
0.23026583,-0.046779715,-0.16761556,-2.6127744,-4.187876,-1.7706088
0.2230962,-0.045323167,-0.16239662,-2.5314224,-4.0574813,-1.7154785
0.21614994,-0.043912,-0.1573403,-2.4526048,-3.9311488,-1.662066
0.20942008,-0.042544793,-0.15244149,-2.3762424,-3.808752,-1.6103172
0.20289986,-0.041220177,-0.14769527,-2.302259,-3.690168,-1.5601807
0.19658275,-0.039936822,-0.14309691,-2.23058,-3.5752776,-1.5116057
0.1904624,-0.03869344,-0.13864177,-2.161134,-3.463966,-1.4645438
0.18453269,-0.037488785,-0.1343254,-2.0938509,-3.3561213,-1.4189478
0.17878765,-0.03632165,-0.13014346,-2.0286632,-3.2516356,-1.3747718
0.17322154,-0.03519087,-0.12609178,-1.9655058,-3.1504042,-1.3319718
0.16782878,-0.034095302,-0.12216626,-1.9043154,-3.0523252,-1.2905047
0.16260397,-0.03303385,-0.11836301,-1.8450307,-2.957301,-1.2503289
0.15754187,-0.03200546,-0.11467819,-1.787592,-2.8652356,-1.2114043
0.15263739,-0.031009091,-0.11110812,-1.7319422,-2.7760375,-1.1736919
0.14788565,-0.03004375,-0.10764922,-1.6780251,-2.689617,-1.1371537
0.14328188,-0.029108467,-0.104298025,-1.6257871,-2.6058872,-1.1017534
0.13882145,-0.028202308,-0.10105118,-1.5751756,-2.5247648,-1.0674553
0.13449991,-0.027324364,-0.09790544,-1.5261401,-2.4461684,-1.0342252
0.13031292,-0.026473757,-0.09485765,-1.4786314,-2.3700192,-1.0020298
0.12625632,-0.025649635,-0.091904745,-1.4326019,-2.296241,-0.97083676
0.122326,-0.024851171,-0.08904379,-1.3880056,-2.2247598,-0.940615
0.11851806,-0.024077568,-0.086271904,-1.3447977,-2.1555045,-0.9113342
0.11482868,-0.023328051,-0.08358633,-1.3029352,-2.0884051,-0.882965
0.11125417,-0.02260187,-0.080984354,-1.262376,-2.0233948,-0.8554791
0.10779094,-0.021898298,-0.0784634,-1.2230796,-1.9604088,-0.82884896
0.10443554,-0.02121663,-0.076020926,-1.1850065,-1.8993835,-0.80304784
0.1011846,-0.020556184,-0.073654495,-1.1481187,-1.8402582,-0.77805
0.098034866,-0.019916298,-0.071361735,-1.1123794,-1.7829735,-0.75383043
0.09498319,-0.019296335,-0.06914035,-1.0777528,-1.7274723,-0.73036486
0.09202652,-0.018695671,-0.066988125,-1.0442041,-1.673699,-0.7076298
0.089161895,-0.018113708,-0.0649029,-1.0116999,-1.6215997,-0.6856025
0.08638645,-0.017549861,-0.062882595,-0.98020756,-1.5711223,-0.664261
0.0836974,-0.017003568,-0.06092518,-0.9496956,-1.5222162,-0.6435838
0.081092075,-0.01647428,-0.0590287,-0.9201335,-1.4748327,-0.62355036
0.07856784,-0.015961472,-0.05719126,-0.8914916,-1.4289242,-0.6041405
0.076122195,-0.015464625,-0.055411022,-0.8637414,-1.3844448,-0.5853349
0.07375268,-0.014983245,-0.053686198,-0.83685505,-1.3413502,-0.5671147
0.07145693,-0.014516852,-0.05201507,-0.8108057,-1.299597,-0.5494618
0.06923264,-0.014064976,-0.05039596,-0.78556716,-1.2591436,-0.5323583
0.0670776,-0.013627167,-0.048827257,-0.76111436,-1.2199495,-0.51578724
0.064989634,-0.013202987,-0.047307387,-0.73742276,-1.1819755,-0.49973208
0.062966675,-0.012792011,-0.045834824,-0.71446866,-1.1451836,-0.48417667
0.06100668,-0.0123938285,-0.044408105,-0.69222903,-1.1095369,-0.46910548
