ax,ay,az,gx,gy,gz
3.3673034,-0.6572787,4.8073163,-26.022964,-29.40845,-10.986464
5.0481343,-1.4476047,5.736276,-16.590364,-13.7096,-6.3916717
5.9390593,-1.5162436,6.5764184,-8.152061,0.8395233,-4.6615477
6.6289124,-1.1379561,7.440487,-4.512736,15.426502,-2.937723
7.1780376,-0.7303268,8.084404,-4.1523066,29.459332,0.3635774
7.5809994,-0.4613516,8.42293,-5.788289,44.765274,5.293095
7.8055096,-0.27875325,8.454197,-7.322994,59.901886,9.250481
7.7940097,-0.15412392,8.18374,-7.3691144,73.64319,12.168503
7.65314,-0.040448047,7.7177663,-7.4533076,84.83791,14.615719
7.4969583,0.03732483,7.1163464,-7.2660384,94.17701,16.66467
7.33373,0.10753082,6.430274,-7.100658,102.876045,18.287039
7.1170783,0.16873999,5.6202383,-6.357444,111.06585,19.966505
6.8376923,0.26840767,4.8056483,-5.686335,118.396996,21.878994
6.470233,0.47024837,4.0482635,-5.6855593,124.39578,23.49434
6.038199,0.7519505,3.3263779,-6.621239,128.46861,24.629467
5.5872216,1.0339319,2.6348875,-8.54242,130.2169,25.415361
5.117594,1.2952566,1.9632186,-10.556659,130.64195,25.53411
4.671557,1.5449941,1.3434029,-12.148924,130.36635,24.518286
4.2590246,1.8254737,0.7920626,-13.630607,129.61864,22.353312
3.8652835,2.1347263,0.29115406,-15.917587,128.07394,19.720516
3.473971,2.4195898,-0.19402644,-19.493128,124.93078,17.102955
3.0987756,2.6317554,-0.69081056,-23.416342,120.94664,14.172426
2.7532053,2.7759986,-1.1837473,-27.19195,116.61224,10.78667
2.410749,2.8440883,-1.6809064,-30.96549,111.66933,7.37236
2.0663807,2.8170285,-2.185114,-34.489914,105.88645,4.090498
1.7444197,2.7027133,-2.6725929,-36.9572,99.20268,0.5103294
1.4437547,2.5060475,-3.103836,-38.772415,92.07283,-3.1650698
1.1509331,2.2214415,-3.479135,-40.353603,84.23197,-6.404351
0.8866528,1.8047363,-3.8061564,-41.288925,75.5344,-9.043464
0.6965375,1.2890962,-4.077903,-41.05845,66.50686,-11.165599
0.60805297,0.7285828,-4.2802186,-38.951035,57.306667,-12.730436
0.673072,0.15183188,-4.35935,-35.657536,48.599865,-13.551037
0.8307505,-0.38739982,-4.322397,-31.072145,40.75582,-13.472835
1.0580442,-0.8080641,-4.178083,-25.624498,33.969387,-12.773612
1.3445684,-1.0658495,-3.935554,-19.767864,28.14895,-11.2725315
1.6551187,-1.1432397,-3.608258,-14.107352,23.928055,-8.633434
1.902548,-0.9951939,-3.2051754,-8.996025,20.963877,-5.776771
2.0594504,-0.7033526,-2.770314,-4.663546,19.108349,-3.0837517
2.1334887,-0.28073883,-2.3202822,-1.4891795,18.093222,-0.6150794
2.1274009,0.24009408,-1.8762175,0.16992456,17.581146,1.6771569
2.0323465,0.7927337,-1.4779112,-0.5190663,17.002068,3.457202
1.8550954,1.276823,-1.1859599,-2.5475357,16.046246,4.5460963
1.6734164,1.6748514,-0.9863992,-5.1005054,14.898328,4.694804
1.5254422,2.007845,-0.8667125,-7.8160286,13.901398,3.8511074
1.4022235,2.2861078,-0.8191213,-10.520445,13.122158,2.169659
1.2889657,2.5149667,-0.83621407,-13.374474,12.144394,-0.5060372
1.1934267,2.6795402,-0.90478987,-16.500532,10.857281,-3.5495842
1.1142527,2.780803,-1.0016198,-19.77174,9.385894,-6.588833
1.0395433,2.8174953,-1.1296232,-22.976553,7.7777677,-9.727022
0.97378397,2.7855744,-1.2835624,-25.893442,6.0220633,-13.088994
0.9259323,2.6809666,-1.4541024,-28.301455,4.0712414,-16.626717
0.87975353,2.4822485,-1.6298285,-30.25017,1.8759236,-19.919775
0.8324572,2.221564,-1.8009456,-31.74146,-0.71920943,-22.810337
0.79156214,1.8987309,-1.9573487,-32.62856,-3.6654456,-25.42983
0.7826322,1.5175067,-2.0892184,-32.75678,-6.6275067,-27.88115
0.8318164,1.0975803,-2.1933634,-31.67576,-9.403963,-29.666157
0.95237267,0.64876986,-2.234686,-30.015984,-11.89254,-30.298267
1.0964955,0.20205054,-2.2263718,-27.53606,-13.971141,-29.551332
1.2504507,-0.20537265,-2.1794462,-24.445065,-15.618366,-28.03954
1.4120297,-0.5503065,-2.1081297,-20.839645,-16.658339,-26.010887
1.5719715,-0.82558393,-2.0234768,-16.685303,-16.821032,-23.274616
1.6914222,-0.98982054,-1.9225754,-12.28684,-16.398664,-20.092348
1.7545906,-1.0546566,-1.8152927,-7.794746,-15.701022,-16.695242
1.7642125,-1.0214243,-1.7013657,-3.5168612,-14.917269,-13.326909
1.7351522,-0.9074171,-1.5838212,0.31959617,-14.284135,-10.150827
1.6860526,-0.7138822,-1.4467853,3.4449794,-13.766692,-7.3575344
1.6156094,-0.4484003,-1.2896929,5.8950505,-13.233552,-5.1031003
1.5334696,-0.16709256,-1.139602,7.7273526,-12.640329,-3.4578433
1.4471923,0.10935835,-1.0122813,8.956187,-12.1547785,-2.195373
1.3676285,0.38083187,-0.89700127,9.575583,-11.757475,-1.1444651
1.289792,0.6354917,-0.788746,9.519431,-11.449186,-0.55223054
1.2363183,0.84624916,-0.70128435,9.00328,-11.191891,-0.20088169
1.1982667,1.0135542,-0.6340516,8.095259,-10.917887,-0.035573006
1.1604218,1.1301224,-0.589363,6.9654846,-10.575491,-0.113796726
1.1216967,1.1925579,-0.56948876,5.834117,-10.215348,-0.5007623
1.0884792,1.2082678,-0.5663088,4.8498626,-9.940375,-0.95813334
1.0714563,1.1879323,-0.5757829,3.886148,-9.693656,-1.192191
1.0557451,1.1449816,-0.59281296,3.0540292,-9.37209,-1.3608059
1.042658,1.0836399,-0.61427605,2.514695,-8.856799,-1.6433531
1.0392007,1.0176308,-0.6330898,2.2487628,-8.10416,-1.8436415
1.0370522,0.95617896,-0.6472005,2.1856058,-7.081644,-1.8163391
1.0044054,0.92607814,-0.62682647,2.116802,-6.8587112,-1.7591602
0.9728082,0.896945,-0.6071074,2.0502105,-6.6429462,-1.7038195
0.9422249,0.86874676,-0.58802104,1.9857557,-6.4341044,-1.6502546
0.9126212,0.84145164,-0.56954604,1.9233654,-6.231951,-1.5984054
0.883964,0.81502926,-0.55166173,1.8629698,-6.036262,-1.5482138
0.85622156,0.7894503,-0.53434837,1.8045021,-5.8468194,-1.4996246
0.8293634,0.7646866,-0.51758677,1.7478981,-5.663415,-1.4525839
0.80336004,0.74071103,-0.5013586,1.6930956,-5.4858475,-1.4070405
0.77818316,0.7174976,-0.48564634,1.6400348,-5.313924,-1.3629446
0.75380546,0.695021,-0.4704328,1.5886585,-5.147458,-1.3202485
0.7302007,0.673257,-0.4557016,1.538911,-4.98627,-1.278906
0.7073435,0.6521823,-0.44143695,1.4907391,-4.8301864,-1.2388729
0.6852095,0.63177437,-0.4276236,1.4440912,-4.6790414,-1.2001064
0.663775,0.6120114,-0.41424683,1.3989176,-4.5326734,-1.1625651
0.64301735,0.5928725,-0.40129244,1.3551705,-4.390927,-1.1262091
0.62291455,0.57433736,-0.38874677,1.3128035,-4.253652,-1.0910002
0.6034455,0.5563866,-0.37659654,1.271772,-4.120705,-1.0569012
0.5845896,0.53900117,-0.36482903,1.232033,-3.9919455,-1.0238763
0.5663273,0.52216303,-0.35343194,1.1935449,-3.867239,-0.9918908
0.5486394,0.5058545,-0.3423933,1.1562673,-3.7464547,-0.96091145
0.5315075,0.4900586,-0.3317017,1.1201615,-3.6294675,-0.9309059
0.5149138,0.47475892,-0.32134596,1.0851899,-3.5161552,-0.90184295
0.4988411,0.45993966,-0.31131536,1.0513165,-3.406401,-0.8736925
0.48327282,0.44558543,-0.30159953,1.018506,-3.3000908,-0.8464255
0.46819282,0.43168142,-0.29218844,0.9867247,-3.197115,-0.8200137
0.4535856,0.4182133,-0.2830724,0.95593965,-3.0973678,-0.79442996
0.4394361,0.40516728,-0.27424204,0.9261194,-3.000746,-0.76964796
0.42572987,0.39252988,-0.2656883,0.89723325,-2.9071512,-0.7456422
0.4124528,0.38028818,-0.25740236,0.86925155,-2.8164868,-0.72238815
0.39959127,0.3684297,-0.24937579,0.8421457,-2.7286606,-0.69986194
0.38713223,0.35694224,-0.24160038,0.815888,-2.643582,-0.67804056
0.37506288,0.34581408,-0.23406819,0.79045165,-2.561165,-0.6569018
0.36337095,0.33503395,-0.22677152,0.7658107,-2.4813254,-0.63642406
0.35204452,0.3245908,-0.21970296,0.7419401,-2.4039814,-0.61658645
0.3410721,0.31447405,-0.21285532,0.71881557,-2.3290548,-0.5973689
0.33044255,0.3046734,-0.20622164,0.6964135,-2.2564695,-0.57875174
0.320145,0.29517892,-0.19979519,0.6747113,-2.1861515,-0.5607162
0.3101691,0.28598097,-0.19356945,0.6536869,-2.1180296,-0.54324394
0.30050468,0.27707022,-0.1875381,0.63331896,-2.0520349,-0.52631724
0.291142,0.26843765,-0.18169506,0.6135869,-1.9881005,-0.509919
0.2820715,0.26007456,-0.17603439,0.59447074,-1.9261616,-0.4940326
0.27328414,0.25197244,-0.17055039,0.57595116,-1.8661559,-0.478642
0.26477093,0.24412313,-0.1652375,0.55800945,-1.8080225,-0.4637316
0.25652334,0.23651871,-0.16009036,0.5406275,-1.7517027,-0.4492864
0.24853303,0.22915152,-0.15510379,0.5237878,-1.6971399,-0.4352918
0.24079193,0.22201408,-0.15027274,0.5074733,-1.6442788,-0.4217337
0.23329225,0.21509926,-0.14559236,0.49166754,-1.5930662,-0.40859842
0.22602642,0.20840006,-0.14105794,0.4763547,-1.5434506,-0.39587274
0.21898714,0.20190972,-0.13666488,0.46151927,-1.495382,-0.38354382
0.21216731,0.19562173,-0.13240878,0.4471464,-1.4488119,-0.37159926
0.20556007,0.18952975,-0.12828535,0.43322152,-1.4036934,-0.36002707
0.19915879,0.18362767,-0.12429046,0.4197307,-1.3599815,-0.34881556
0.19295701,0.17790952,-0.12042007,0.40666035,-1.3176318,-0.3379535
0.18694852,0.17236958,-0.1166703,0.3939973,-1.276602,-0.32742995
0.18112727,0.16700229,-0.11303739,0.38172892,-1.2368509,-0.31723434
0.1754874,0.16180225,-0.10951768,0.3698428,-1.1983383,-0.30735645
0.17002326,0.15676422,-0.10610764,0.35832703,-1.1610258,-0.2977863
0.16472937,0.15188317,-0.10280384,0.34717005,-1.1248757,-0.28851435
0.1596004,0.14715418,-0.09960297,0.3363607,-1.0898519,-0.27953124
0.15463121,0.1425725,-0.09650181,0.32588804,-1.0559192,-0.27082798
0.14981683,0.13813357,-0.09349726,0.31574163,-1.0230435,-0.26239586
0.1451524,0.13383289,-0.090586305,0.30591127,-0.9911919,-0.2542264
0.14063329,0.12966618,-0.08776602,0.29638714,-0.96033245,-0.24631138
0.1362549,0.12562925,-0.08503357,0.28715962,-0.93043417,-0.2386429
0.1320129,0.12171805,-0.08238623,0.27821952,-0.9014671,-0.23121326
0.12790301,0.11792866,-0.07982135,0.26955786,-0.8734022,-0.22401501
0.12392111,0.11425729,-0.07733634,0.26116595,-0.8462113,-0.21704094
0.12006322,0.11070025,-0.074928716,0.25303537,-0.8198672,-0.21028407
0.116325475,0.10725399,-0.07259607,0.245158,-0.79434353,-0.20373762
0.11270412,0.10391504,-0.07033607,0.23752594,-0.76961464,-0.19739501
0.10919554,0.10068007,-0.068146445,0.23013154,-0.74565583,-0.19124992
0.10579621,0.09754583,-0.066025,0.22296739,-0.72244304,-0.18529618
0.102502726,0.094509184,-0.06396961,0.21602632,-0.6999531,-0.17952783
0.0993118,0.0915671,-0.061978225,0.20930137,-0.6781634,-0.1739391
0.09622022,0.08871661,-0.060048845,0.20278582,-0.65705216,-0.16852437
0.093224905,0.08595488,-0.058179535,0.19647314,-0.6365983,-0.16327825
0.09032285,0.08327914,-0.05636843,0.19035701,-0.61678123,-0.15819545
0.08751115,0.08068671,-0.054613713,0.1844313,-0.59758115,-0.15327093
0.084786996,0.07817499,-0.05291363,0.17869009,-0.5789789,-0.14849971
0.08214765,0.07574148,-0.051266473,0.17312764,-0.5609558,-0.14387704
0.07959048,0.07338372,-0.049670603,0.16773835,-0.54349387,-0.1393983
0.07711292,0.07109937,-0.048124414,0.16251685,-0.5265755,-0.135059
0.0747125,0.06888614,-0.046626363,0.15745792,-0.51018393,-0.13085479
0.0723868,0.06674182,-0.045174953,0.15255648,-0.4943026,-0.12678146
0.070133515,0.064664245,-0.043768726,0.14780763,-0.47891572,-0.12283495
0.067950375,0.06265135,-0.042406276,0.14320661,-0.46400788,-0.119011305
0.06583519,0.060701124,-0.04108624,0.13874884,-0.44956413,-0.11530669
0.063785866,0.058811612,-0.039807305,0.13442984,-0.43557,-0.1117174
0.061800335,0.05698092,-0.03856818,0.1302453,-0.42201155,-0.10823986
0.059876613,0.055207215,-0.037367627,0.12619103,-0.40887517,-0.104870565
0.05801278,0.05348873,-0.036204454,0.12226296,-0.39614776,-0.10160617
0.056206968,0.051823743,-0.035077486,0.11845718,-0.3838165,-0.09844338
0.05445737,0.050210584,-0.0339856,0.114769876,-0.37186918,-0.09537906
0.052762236,0.048647646,-0.032927707,0.11119735,-0.36029375,-0.09241013
0.05111987,0.047133356,-0.031902745,0.107736036,-0.34907863,-0.08953362
0.049528632,0.04566621,-0.03090969,0.10438248,-0.33821267,-0.086746655
0.04798693,0.044244733,-0.029947547,0.1011333,-0.32768494,-0.084046446
0.046493217,0.042867504,-0.029015355,0.09798528,-0.31748492,-0.081430286
0.045046,0.04153315,-0.02811218,0.094935246,-0.30760244,-0.07889557
