ax,ay,az,gx,gy,gz
0.36091238,0.4390949,3.6327603,-5.3818674,4.7718616,-1.5536505
0.6401638,0.43952614,4.822613,-7.092447,3.807082,-3.401556
1.3859777,0.26807818,5.5372577,-5.727573,6.758207,-0.36943367
2.28712,0.3302402,6.279696,-10.182687,13.321693,6.101183
3.196291,0.5030345,7.1980267,-15.110117,22.699797,11.65339
4.014425,0.6170513,8.076112,-18.680046,35.902283,13.987395
4.5895553,0.70796126,8.653427,-19.803303,48.39245,12.365672
5.138519,0.81918025,9.004987,-18.403852,59.906258,10.6123
5.628747,0.9820642,9.191727,-17.295467,70.82688,9.439783
6.0482755,1.1613498,9.184012,-17.119081,81.81088,9.0750065
6.3509283,1.3185793,8.928996,-18.004444,92.312386,9.475344
6.508767,1.4193286,8.418625,-18.824842,102.0748,10.236564
6.5201693,1.4213866,7.640159,-19.370789,110.83131,11.079548
6.4470353,1.3516898,6.75301,-19.4699,118.49324,11.778212
6.297725,1.2832083,5.834115,-19.392284,124.92506,12.222727
6.0765095,1.2373687,4.9230137,-19.340351,130.00955,12.630025
5.7838745,1.1955086,4.013669,-18.925587,132.88875,12.929111
5.4228716,1.1584121,3.121081,-18.21809,133.90604,13.022284
5.082052,1.1519991,2.3111193,-17.323036,133.64403,12.918184
4.769981,1.2238519,1.6058624,-16.196598,132.81108,12.170302
4.4725056,1.3820554,0.9988806,-15.234443,131.58124,10.732502
4.1818185,1.5884367,0.45638233,-15.052011,129.43114,8.981454
3.8936172,1.8206612,-0.021844527,-15.559104,126.58078,7.0645814
3.6040235,2.0668142,-0.44852102,-16.707655,123.28792,5.0216208
3.3074043,2.3189483,-0.84130186,-18.547745,119.52263,2.7910814
2.997764,2.5485015,-1.222073,-21.063448,115.226295,0.34968767
2.6830802,2.7138636,-1.6121848,-24.017523,110.062706,-2.3181107
2.358255,2.7826884,-2.0358264,-26.873703,104.223366,-5.167666
2.0461168,2.773314,-2.4647503,-29.564392,97.761185,-8.033497
1.7436765,2.6867821,-2.8890398,-31.88434,90.8017,-11.017398
1.4404086,2.524776,-3.2828526,-33.819603,83.18882,-14.008988
1.1358747,2.2756457,-3.6150036,-35.485756,74.47445,-16.78667
0.84837127,1.8475188,-3.8489244,-36.603546,65.14301,-19.090033
0.6275351,1.3199146,-4.0010276,-36.818275,55.58704,-20.716404
0.5044845,0.7351379,-4.073299,-35.966805,45.724808,-22.11628
0.5813907,0.10808892,-4.033829,-33.97401,35.845543,-23.565159
0.9219284,-0.49162573,-3.8526666,-30.46364,27.991371,-23.458757
1.429324,-0.95287883,-3.52665,-26.581165,22.267015,-21.368578
1.8769302,-1.2881259,-3.1609707,-22.448017,18.28878,-18.109217
2.234875,-1.4810786,-2.778567,-17.973722,15.589103,-14.451977
2.5123956,-1.4823792,-2.3716676,-13.535354,14.1076,-10.737749
2.7036102,-1.3032256,-1.9580504,-9.875203,13.686919,-6.9108553
2.7752416,-0.95622396,-1.5654671,-7.0411067,13.686388,-3.3161798
2.7669797,-0.53871995,-1.2095015,-4.8854446,13.94205,-0.34037194
2.709334,-0.063312136,-0.8931455,-3.3771338,14.443156,1.6711097
2.6213355,0.44171906,-0.62567043,-2.6786213,15.001756,2.8113892
2.5103898,0.94245183,-0.42024285,-3.1381109,15.413022,3.0156066
2.3832686,1.383438,-0.30537105,-4.322103,15.648476,2.5144258
2.258133,1.7449598,-0.27211636,-6.091291,15.714262,1.2758647
2.1377676,2.0216222,-0.31205195,-8.041062,15.678111,-0.602916
2.0270824,2.223931,-0.40415943,-10.071308,15.575441,-2.8943172
1.9182723,2.3612683,-0.53739434,-12.203712,15.290319,-5.4908805
1.7932869,2.4141095,-0.7170115,-14.29177,14.661251,-8.253824
1.6661475,2.4095821,-0.9164875,-16.3054,13.55639,-11.048927
1.5500633,2.3568568,-1.1193119,-18.223944,12.019485,-13.823007
1.453433,2.2599695,-1.3195541,-19.957047,10.200763,-16.541265
1.382654,2.1274178,-1.5090424,-21.464382,8.219551,-18.943678
1.3186927,1.9538717,-1.6714633,-22.925253,6.1839123,-20.783195
1.2302663,1.7452811,-1.8152267,-24.409552,3.9380493,-22.167986
1.1227022,1.47039,-1.9478232,-25.66616,1.4141439,-23.330606
1.0175343,1.1252855,-2.0581713,-26.35309,-1.292382,-24.269844
0.93496805,0.7392272,-2.1379933,-26.333778,-4.26209,-24.527637
0.8994837,0.3081598,-2.1748362,-25.808195,-7.3415585,-23.997307
0.8997905,-0.13810068,-2.1764536,-24.501762,-10.320553,-22.90078
0.9445839,-0.556878,-2.1356742,-22.297575,-12.975365,-21.63177
1.0411814,-0.9249484,-2.0575633,-19.433681,-15.214255,-20.086655
1.1757451,-1.2300792,-1.9528123,-15.894406,-16.73749,-17.805712
1.3258221,-1.4244846,-1.8137865,-11.9630785,-17.652794,-15.01603
1.4567701,-1.4942198,-1.6458359,-7.84229,-17.938892,-12.07647
1.551609,-1.4537483,-1.4633524,-3.9294412,-17.84955,-9.149622
1.6192173,-1.3321922,-1.2809948,-0.36461446,-17.57466,-6.1648145
1.6672218,-1.1338768,-1.0955629,2.5986924,-16.932398,-3.4052155
1.6805197,-0.85018855,-0.9162608,5.008593,-16.069117,-1.0352966
1.6716863,-0.5335043,-0.7582147,6.6616125,-15.137472,0.98555464
1.6446424,-0.22281227,-0.6355151,7.5855746,-14.2499695,2.8143978
1.5910789,0.05483401,-0.5573992,7.942353,-13.493848,4.2511897
1.526112,0.2892488,-0.51420337,8.044356,-12.901333,4.9484057
1.4736809,0.49064496,-0.49720538,8.108363,-12.335799,5.0080214
1.4454495,0.68534887,-0.48574454,7.9834585,-11.809819,4.742141
1.4452776,0.8592797,-0.4821899,7.4354186,-11.273907,4.6157074
1.4558226,0.9941062,-0.49081588,6.564709,-10.574561,4.7010283
1.4547263,1.0896457,-0.5206965,5.827732,-9.582629,4.6875224
1.4089627,1.055367,-0.50431615,5.6444,-9.281174,4.5400596
1.3646675,1.0221883,-0.4884614,5.4669504,-8.98939,4.397329
1.3217912,0.9900722,-0.47311446,5.2951846,-8.706953,4.259169
1.2802856,0.95898294,-0.4582582,5.1289105,-8.433547,4.1254272
1.240105,0.9288861,-0.44387618,4.9679446,-8.168867,3.9959545
1.201205,0.89974856,-0.42995256,4.8121085,-7.9126244,3.8706083
1.1635432,0.8715384,-0.41647208,4.6612325,-7.6645365,3.7492516
1.1270784,0.8442248,-0.40342006,4.515152,-7.424334,3.631752
1.0917711,0.81777835,-0.39078236,4.3737087,-7.1917562,3.5179822
1.0575832,0.7921703,-0.37854537,4.2367496,-6.9665527,3.4078197
1.0244781,0.7673733,-0.3666959,4.1041284,-6.7484818,3.301146
0.9924204,0.7433608,-0.35522133,3.975703,-6.5373096,3.1978474
0.9613758,0.72010726,-0.34410942,3.8513365,-6.332812,3.0978134
0.93131155,0.69758797,-0.3333484,3.730897,-6.134771,3.0009382
0.90219575,0.67577916,-0.32292685,3.614257,-5.9429784,2.9071193
0.87399775,0.6546578,-0.31283382,3.5012941,-5.7572317,2.8162577
0.846688,0.6342017,-0.3030587,3.3918893,-5.577336,2.7282581
0.8202378,0.61438954,-0.2935913,3.285928,-5.403102,2.6430285
0.7946196,0.5952005,-0.28442165,3.1832998,-5.234349,2.5604796
0.7698067,0.5766147,-0.27554026,3.0838976,-5.0709004,2.4805257
0.7457733,0.55861276,-0.26693788,2.9876182,-4.9125867,2.4030836
0.7224945,0.541176,-0.2586056,2.8943617,-4.7592435,2.328073
0.6999462,0.5242865,-0.2505348,2.8040318,-4.6107125,2.2554164
0.6781051,0.5079267,-0.24271713,2.716535,-4.4668403,2.1850386
0.6569488,0.49207982,-0.23514456,2.6317813,-4.3274784,2.116867
0.6364555,0.4767295,-0.22780928,2.5496836,-4.192484,2.050832
0.6166041,0.46186006,-0.22070378,2.4701576,-4.061718,1.9868655
0.59737426,0.4474562,-0.21382077,2.3931217,-3.935047,1.9249018
0.5787464,0.43350318,-0.20715322,2.3184972,-3.8123405,1.8648777
0.5607014,0.41998678,-0.20069428,2.2462075,-3.6934736,1.8067317
0.54322076,0.40689316,-0.19443737,2.1761792,-3.5783248,1.7504046
0.52628684,0.39420897,-0.18837613,2.1083405,-3.4667768,1.6958388
0.5098823,0.38192132,-0.18250437,2.0426228,-3.358716,1.6429788
0.4939904,0.3700177,-0.17681614,1.9789588,-3.2540326,1.5917709
0.47859508,0.35848606,-0.17130563,1.9172843,-3.15262,1.5421631
0.4636807,0.3473146,-0.16596726,1.8575362,-3.0543754,1.4941049
0.44923213,0.33649206,-0.16079561,1.7996542,-2.9591992,1.4475477
0.43523473,0.32600746,-0.15578546,1.7435796,-2.8669949,1.4024442
0.42167428,0.31585017,-0.15093172,1.6892556,-2.777669,1.3587488
0.40853712,0.30600995,-0.14622948,1.6366273,-2.6911314,1.3164173
0.39580995,0.2964768,-0.14167398,1.5856414,-2.6072946,1.275407
0.3834799,0.28724113,-0.13726063,1.5362464,-2.5260735,1.2356762
0.37153453,0.27829358,-0.13298497,1.4883925,-2.4473865,1.1971849
0.35996178,0.26962516,-0.1288427,1.4420313,-2.371154,1.1598945
0.34875,0.2612271,-0.124829605,1.3971161,-2.2972994,1.123767
0.33788788,0.25309095,-0.120941676,1.3536016,-2.225748,1.0887663
0.32736444,0.2452085,-0.117174976,1.311444,-2.1564276,1.0548569
0.31716913,0.23757182,-0.113525726,1.2706009,-2.0892687,1.0220048
0.30729166,0.23017322,-0.10999024,1.2310312,-2.0242033,0.990177
0.2977221,0.22300525,-0.10656497,1.1926948,-1.9611665,0.9593413
0.2884508,0.2160607,-0.10324646,1.1555535,-1.9000944,0.9294667
0.2794685,0.2093326,-0.100031376,1.1195697,-1.8409257,0.90052325
0.2707661,0.20281419,-0.0969165,1.0847074,-1.783601,0.8724818
0.2623349,0.1964989,-0.093898684,1.0509315,-1.7280627,0.8453142
0.25416645,0.1903804,-0.090974905,1.018208,-1.674255,0.8189932
0.24625249,0.18445255,-0.08814222,0.98650414,-1.6221238,0.79349226
0.2385851,0.17870937,-0.0853978,0.955788,-1.571617,0.76878583
0.23115659,0.17314513,-0.082738884,0.9260289,-1.5226835,0.74484915
0.22395949,0.16775423,-0.08016279,0.8971968,-1.4752746,0.7216582
0.2169866,0.16253126,-0.07766695,0.86926293,-1.4293424,0.6991896
0.2102309,0.15747099,-0.07524886,0.84219915,-1.3848411,0.6774209
0.20368563,0.15256834,-0.072906084,0.8159784,-1.3417258,0.6563303
0.19734423,0.14781839,-0.07063628,0.7905743,-1.2999535,0.6358966
0.19120035,0.14321637,-0.06843717,0.76596147,-1.2594823,0.6160993
0.1852478,0.13875769,-0.06630655,0.7421152,-1.2202713,0.5969186
0.17948064,0.13443786,-0.06424229,0.71901155,-1.1822817,0.5783352
0.17389308,0.13025257,-0.062242307,0.69662744,-1.1454751,0.5603306
0.16847953,0.1261976,-0.06030461,0.67494035,-1.1098148,0.5428867
0.16323456,0.12226893,-0.058427256,0.65392864,-1.0752649,0.52598596
0.15815291,0.118462585,-0.05660836,0.63357127,-1.041791,0.50961155
0.1532295,0.11477476,-0.054846104,0.61384773,-1.0093592,0.493747
0.1484594,0.11120178,-0.05313872,0.5947384,-0.9779375,0.47837642
0.14383782,0.107740045,-0.051484503,0.5762241,-0.9474941,0.46348447
0.13936016,0.1043861,-0.04988179,0.5582862,-0.9179986,0.4490562
0.13502191,0.10113658,-0.04832898,0.5409069,-0.8894215,0.4350772
0.13081872,0.09798823,-0.04682452,0.52406865,-0.86173415,0.4215334
0.12674642,0.09493792,-0.0453669,0.5077547,-0.8349089,0.4084113
0.122800894,0.09198257,-0.04395466,0.49194866,-0.8089188,0.39569777
0.11897821,0.08911923,-0.04258639,0.47663474,-0.78373784,0.38338006
0.11527454,0.08634505,-0.04126072,0.4617976,-0.7593409,0.37144583
0.111686185,0.08365723,-0.03997632,0.4474224,-0.7357035,0.35988316
0.108209535,0.081053086,-0.03873191,0.43349472,-0.71280205,0.34868047
0.10484113,0.07853002,-0.037526242,0.42000064,-0.6906135,0.33782652
0.10157759,0.0760855,-0.036358107,0.40692666,-0.6691158,0.3273105
0.09841564,0.07371708,-0.035226338,0.39425972,-0.6482873,0.31712186
0.095352136,0.0714224,-0.034129806,0.3819871,-0.62810725,0.3072504
0.092383996,0.06919915,-0.033067405,0.37009653,-0.60855544,0.29768628
0.089508265,0.067045115,-0.03203808,0.35857615,-0.58961225,0.28841987
0.086722046,0.06495813,-0.0310408,0.34741437,-0.57125884,0.27944195
0.084022574,0.06293612,-0.030074565,0.3366001,-0.55347675,0.2707435
0.08140713,0.060977057,-0.029138409,0.32612246,-0.5362482,0.26231584
0.078873105,0.059078977,-0.028231395,0.315971,-0.519556,0.25415054
0.07641797,0.057239983,-0.027352616,0.30613554,-0.5033834,0.24623941
0.07403926,0.055458236,-0.026501194,0.29660627,-0.48771423,0.23857455
0.07173459,0.053731956,-0.025676275,0.28737363,-0.47253287,0.2311483
0.069501676,0.052059412,-0.024877036,0.2784284,-0.45782408,0.22395322
0.06733826,0.050438933,-0.024102677,0.26976162,-0.44357318,0.21698213
0.06524219,0.0488689,-0.023352422,0.26136464,-0.42976588,0.21022803
