ax,ay,az,gx,gy,gz
-1.3572851,-4.993682,4.7891345,-28.464806,-119.79654,-32.015743
-0.79015356,-5.5622582,5.8954268,-23.422924,-120.90883,-31.185385
-0.14829642,-5.6358566,7.0829234,-20.212618,-115.68232,-27.379658
0.61190385,-5.729898,8.168664,-12.305915,-102.035446,-21.782705
1.7590708,-5.927818,9.057997,-4.675445,-86.88882,-15.919168
3.0027156,-6.143316,9.736671,3.67376,-68.99459,-9.072658
4.0822024,-6.2574525,10.158192,14.221623,-49.895744,-2.507396
4.9089317,-6.1578684,10.318266,24.951885,-29.604792,3.307079
5.4717402,-5.85456,10.218627,33.42764,-7.8042088,8.102232
5.801012,-5.413607,9.802116,39.280445,12.557904,12.692495
5.981219,-4.916673,9.216804,42.732895,30.953663,17.10493
6.069076,-4.4283853,8.541035,44.60415,47.490448,21.152584
6.101217,-3.9333267,7.8176103,44.967213,62.77566,24.907612
6.082132,-3.4077911,7.0457387,44.50099,76.7762,28.53164
5.9907846,-2.844508,6.208021,43.542652,89.26821,31.56731
5.827834,-2.299517,5.358607,42.132317,99.98015,33.755077
5.59024,-1.7623467,4.5225973,40.377064,108.70373,34.868706
5.3140836,-1.2298791,3.737025,38.086876,115.561005,34.9417
5.028198,-0.72706807,3.0041416,35.07706,121.00145,33.97221
4.696147,-0.2775384,2.26742,31.662937,125.266174,32.611626
4.3016176,0.124105036,1.5174199,28.446318,127.541145,30.708357
3.856902,0.47350487,0.7920175,25.364239,127.63413,27.917507
3.3931675,0.76560867,0.11085079,22.326937,125.73566,24.279707
2.9213085,0.98905134,-0.515157,18.977827,121.21374,19.94002
2.4436727,1.1315298,-1.071853,15.513376,115.311195,15.411952
1.9585572,1.1853164,-1.5954335,12.18907,108.03755,10.638873
1.4711136,1.1166358,-2.0853093,8.9607115,98.98734,5.905581
1.0406384,0.90812707,-2.5155017,5.6954346,88.03844,1.8428205
0.722584,0.5378582,-2.862575,2.5957198,75.79944,-1.1987749
0.6179773,-0.05898784,-3.072179,0.9818002,63.414593,-2.42583
0.6813845,-0.7133026,-3.139761,1.484627,52.19386,-2.1964397
0.8405853,-1.2824086,-3.0544455,3.840622,42.463272,-0.900108
1.0260177,-1.7064112,-2.8448796,7.1481853,33.909725,0.98991233
1.2380513,-1.9616165,-2.5082142,11.486629,27.215107,3.4882257
1.4923033,-1.9499031,-2.0094068,15.551248,22.010141,6.5384474
1.7367038,-1.7391684,-1.4345629,18.631138,18.594917,9.7671995
1.960056,-1.3928605,-0.84439945,20.659735,16.771996,12.770476
2.1591692,-0.93308413,-0.27831832,21.281307,16.779322,15.107934
2.304834,-0.4489157,0.19913323,20.318953,18.960566,16.435198
2.364369,0.010712621,0.49823615,18.723444,22.306822,16.69572
2.3496199,0.41832626,0.6413123,16.750582,25.909979,16.055868
2.2840612,0.76224613,0.6636129,14.549263,29.409702,14.663287
2.189221,1.0409204,0.5945693,12.241308,32.6244,12.58352
2.0703163,1.2700399,0.46052158,10.016334,35.376644,9.941746
1.9268365,1.4612486,0.26551315,7.7623315,37.319347,6.4769425
1.7734214,1.6061819,0.043095928,5.556153,38.51463,2.476536
1.6142538,1.6891519,-0.19803588,3.3482654,39.043358,-1.645344
1.4407322,1.7178884,-0.4654892,0.99141145,38.763508,-5.668915
1.2483809,1.6790587,-0.7610708,-1.5873995,37.194263,-9.772824
1.0397534,1.507432,-1.1020801,-4.20512,34.49708,-13.60299
0.8463695,1.1980369,-1.4635328,-6.5541544,30.859219,-16.779594
0.65945154,0.75841,-1.8260157,-8.02825,26.472252,-18.9675
0.48652095,0.25575203,-2.1604877,-8.430898,21.316147,-19.967094
0.35511598,-0.248735,-2.4279702,-7.831707,15.233194,-19.112106
0.29786757,-0.68228537,-2.5536242,-6.787732,8.842665,-16.958475
0.299555,-1.015722,-2.5503695,-5.3269672,2.6047866,-14.207331
0.3559645,-1.2488738,-2.4262228,-3.2671905,-2.9560704,-11.6367655
0.47712696,-1.3723005,-2.1823528,-0.61572886,-7.50789,-9.257104
0.66569126,-1.3642213,-1.8218331,1.9825995,-10.987393,-6.565883
0.88123554,-1.2011547,-1.3728224,3.6158457,-13.100704,-3.532903
1.0770636,-0.9930357,-0.93996924,4.666133,-13.965815,-0.6485118
1.2266409,-0.76988024,-0.5760487,5.3889823,-13.693293,1.8125839
1.315366,-0.54750264,-0.3016333,5.8716874,-12.664918,3.8448946
1.3484042,-0.3351282,-0.11556568,6.375089,-11.089517,5.322893
1.3270274,-0.12019985,-0.020086372,6.977067,-9.521068,6.306336
1.2854774,0.09416686,0.030488215,7.435037,-7.980696,6.5447993
1.2442805,0.091148995,0.02951113,7.1967587,-7.724931,6.3350515
1.2044749,0.08823307,0.028567044,6.966529,-7.477804,6.132388
1.1660074,0.085415155,0.027654694,6.7440376,-7.2389846,5.9365373
1.1288271,0.082691535,0.026772873,6.5289917,-7.008156,5.7472396
1.0928855,0.08005866,0.02592043,6.32111,-6.785018,5.5642486
1.0581365,0.07751314,0.025096275,6.1201262,-6.569284,5.38733
1.0245363,0.07505177,0.024299363,5.9257865,-6.3606815,5.2162595
0.99204266,0.07267147,0.023528699,5.737848,-6.15895,5.0508237
0.96061575,0.07036931,0.022783332,5.5560784,-5.9638405,4.8908186
0.93021715,0.06814249,0.022062356,5.380257,-5.7751155,4.736049
0.9008103,0.0659883,0.021364901,5.2101717,-5.5925474,4.586329
0.8723601,0.0639042,0.020690138,5.0456195,-5.415919,4.4414797
0.844833,0.061887722,0.020037265,4.8864064,-5.245021,4.30133
0.81819683,0.05993651,0.019405523,4.732346,-5.079654,4.165716
0.79242074,0.058048293,0.018794179,4.58326,-4.9196267,4.034481
0.767475,0.05622091,0.018202532,4.4389772,-4.7647552,3.9074743
0.7433314,0.05445228,0.017629907,4.2993336,-4.614863,3.784551
0.7199624,0.052740403,0.017075656,4.1641707,-4.46978,3.6655717
0.697342,0.051083356,0.016539156,4.0333366,-4.3293443,3.550403
0.6754447,0.049479287,0.01601981,3.906686,-4.1933985,3.438917
0.6542465,0.047926426,0.015517043,3.7840781,-4.061793,3.3309898
0.6337239,0.04642306,0.0150303,3.665378,-3.9343812,3.2265024
0.6138545,0.044967536,0.014559049,3.550456,-3.8110251,3.1253405
0.59461665,0.043558277,0.014102777,3.4391866,-3.6915896,3.027394
0.5759895,0.04219375,0.013660988,3.3314493,-3.5759454,2.9325566
0.5579529,0.040872492,0.013233205,3.227128,-3.4639678,2.8407261
0.54048747,0.03959308,0.012818972,3.1261106,-3.3555365,2.751804
0.52357465,0.03835414,0.012417844,3.0282888,-3.2505357,2.6656952
0.50719637,0.037154358,0.012029393,2.933559,-3.1488535,2.5823078
0.49133527,0.035992462,0.011653207,2.8418202,-3.0503824,2.5015535
0.47597453,0.034867223,0.011288891,2.752976,-2.9550176,2.423347
0.46109805,0.033777453,0.010936059,2.666932,-2.862659,2.3476057
0.4466901,0.03272201,0.01059434,2.5835986,-2.7732096,2.27425
0.4327357,0.031699788,0.010263377,2.502888,-2.6865757,2.2032034
0.41922024,0.03070972,0.009942825,2.4247162,-2.6026669,2.1343915
0.4061296,0.029750774,0.009632349,2.3490016,-2.5213954,2.0677428
0.3934502,0.028821953,0.009331626,2.2756658,-2.4426775,2.0031877
0.38116893,0.027922295,0.009040345,2.2046323,-2.366431,1.9406596
0.36927304,0.02705087,0.008758206,2.135828,-2.292577,1.8800937
0.3577503,0.026206776,0.008484916,2.069182,-2.2210398,1.8214275
0.3465888,0.025389148,0.008220194,2.004625,-2.151745,1.7646004
0.33577704,0.02459714,0.007963767,1.9420915,-2.0846221,1.7095542
0.32530397,0.023829943,0.007715373,1.8815166,-2.0196016,1.6562322
0.3151588,0.023086766,0.0074747563,1.8228383,-1.956617,1.6045799
0.30533123,0.022366852,0.007241671,1.7659968,-1.8956039,1.5545443
0.29581118,0.021669464,0.0070158793,1.7109339,-1.8364998,1.5060744
0.28658888,0.020993892,0.0067971502,1.6575934,-1.7792447,1.4591206
0.27765498,0.020339444,0.0065852613,1.6059208,-1.7237798,1.4136351
0.26900035,0.019705456,0.006379996,1.5558636,-1.670049,1.3695716
0.26061624,0.019091282,0.006181146,1.507371,-1.6179973,1.3268852
0.25249407,0.0184963,0.0059885094,1.4603934,-1.5675721,1.2855325
0.24462564,0.017919902,0.0058018905,1.4148835,-1.5187222,1.2454717
0.23700295,0.017361507,0.0056211003,1.3707948,-1.4713978,1.206662
0.2296183,0.016820546,0.005445955,1.3280828,-1.4255512,1.1690642
0.22246417,0.016296476,0.005276277,1.2867043,-1.3811358,1.1326401
0.21553335,0.015788764,0.0051118964,1.2466173,-1.3381069,1.097353
0.20881882,0.015296895,0.004952645,1.2077814,-1.2964208,1.0631671
0.20231383,0.014820375,0.004798363,1.1701573,-1.2560354,1.0300479
0.19601177,0.014358722,0.0046488945,1.1337069,-1.21691,0.997962
0.1899063,0.013911469,0.0045040883,1.0983937,-1.1790051,0.966877
0.18399125,0.013478166,0.004363799,1.0641819,-1.1422825,0.93676156
0.17826068,0.0130583765,0.0042278846,1.031037,-1.1067051,0.90758526
0.1727088,0.012651676,0.004096208,0.99892557,-1.072237,0.8793188
0.16733001,0.012257658,0.0039686374,0.9678154,-1.0388436,0.8519336
0.16211893,0.011875923,0.0038450437,0.9376751,-1.0064914,0.82540214
0.15707028,0.011506087,0.0037253029,0.90847445,-0.9751476,0.7996978
0.152179,0.011147779,0.0036092943,0.8801839,-0.9447808,0.77479464
0.14744017,0.010800639,0.0034969014,0.8527751,-0.9153605,0.75066763
0.14284903,0.010464317,0.0033880111,0.8262205,-0.88685703,0.7272926
0.13840096,0.010138476,0.0032825142,0.8004934,-0.85924184,0.70464593
0.13409148,0.009822789,0.0031803048,0.77556795,-0.8324871,0.682705
0.12991628,0.009516938,0.0030812798,0.7514192,-0.806566,0.66144764
0.12587117,0.009220615,0.0029853403,0.72802275,-0.78145254,0.64085263
0.12195209,0.008933525,0.0028923894,0.7053553,-0.75712144,0.6208992
0.118155085,0.008655379,0.0028023345,0.6833939,-0.7335484,0.6015674
0.11447637,0.008385896,0.002715085,0.6621167,-0.71070963,0.5828378
0.11091225,0.008124809,0.002630553,0.64150226,-0.68858224,0.56469166
0.107459135,0.007871853,0.002548654,0.62152994,-0.6671442,0.54711074
0.10411358,0.0076267766,0.002469306,0.60217965,-0.64637375,0.5300774
0.100872226,0.007389333,0.0023924296,0.5834321,-0.6262503,0.51357454
0.09773182,0.007159285,0.0023179473,0.5652684,-0.6067536,0.49758568
0.09468922,0.0069364007,0.0022457847,0.54767036,-0.58786404,0.48209476
0.091741376,0.006720458,0.0021758692,0.5306204,-0.56956273,0.4670863
0.08888533,0.0065112403,0.0021081313,0.5141014,-0.5518314,0.4525452
0.08611822,0.0063085374,0.0020425026,0.4980968,-0.53465223,0.43845692
0.08343728,0.0061121467,0.0019789175,0.48259056,-0.518008,0.42480734
0.08083982,0.0059218714,0.0019173125,0.4675672,-0.5018821,0.4115828
0.078323245,0.005737521,0.0018576258,0.45301163,-0.48625827,0.39877006
0.07588503,0.005558911,0.0017997975,0.4389093,-0.47112095,0.38635626
0.073522724,0.005385862,0.0017437697,0.42524603,-0.45645496,0.374329
0.07123398,0.0052182013,0.0016894866,0.41200823,-0.4422456,0.3626762
0.069016494,0.0050557605,0.0016368935,0.39918256,-0.4284787,0.35138625
0.066868044,0.0048983777,0.001585938,0.38675624,-0.4151404,0.34044778
0.064786494,0.004745895,0.0015365689,0.3747168,-0.40221736,0.3298499
0.06276975,0.0045981593,0.0014887368,0.3630522,-0.3896967,0.31958196
0.060815793,0.0044550234,0.0014423941,0.35175076,-0.37756586,0.3096337
0.058922667,0.004316344,0.001397494,0.34080118,-0.36581266,0.29999518
0.057088483,0.0041819816,0.0013539918,0.33019248,-0.3544254,0.29065672
0.0553114,0.0040518027,0.001311844,0.31991407,-0.34339264,0.281609
0.05358964,0.003925676,0.0012710083,0.30995563,-0.33270335,0.27284294
0.051921483,0.0038034762,0.001231444,0.3003072,-0.32234684,0.2643498
0.05030526,0.0036850807,0.0011931112,0.29095918,-0.31231275,0.25612104
0.048739348,0.0035703708,0.0011559719,0.28190216,-0.30259103,0.24814846
0.047222186,0.0034592322,0.0011199887,0.27312708,-0.29317194,0.24042408
0.045752253,0.003351553,0.0010851257,0.2646252,-0.28404608,0.23294015
0.044328082,0.0032472264,0.0010513479,0.25638795,-0.27520433,0.22568922
0.042948242,0.0031461471,0.0010186218,0.24840716,-0.2666378,0.21866399
0.04161136,0.0030482146,0.0009869144,0.24067478,-0.25833797,0.21185747
0.040316094,0.0029533308,0.00095619395,0.23318313,-0.2502965,0.20526284
0.039061148,0.0028614004,0.0009264299,0.22592469,-0.24250536,0.19887349
0.03784527,0.002772332,0.00089759234,0.2188922,-0.23495676,0.19268303
0.03666724,0.002686036,0.00086965255,0.21207862,-0.22764313,0.18668528
0.03552588,0.0026024266,0.00084258243,0.20547715,-0.22055717,0.18087424
0.03442005,0.0025214197,0.000816355,0.19908117,-0.21369179,0.1752441
