ax,ay,az,gx,gy,gz
13.407394,-10.941009,11.392831,7.8237076,-2.7745707,62.200565
13.909403,-11.115392,11.833167,29.251041,23.702494,56.439808
14.184934,-10.549725,12.207663,40.82425,48.016045,58.29969
14.02509,-9.582557,12.223902,46.563946,70.46318,64.33354
13.401974,-8.648194,11.844696,52.514168,90.11126,68.93327
12.604814,-7.792745,11.191889,59.742245,108.22806,71.51504
11.789867,-7.0083523,10.25019,65.96384,123.07911,73.329666
11.147733,-6.347181,9.269974,70.82083,135.53117,75.144196
10.628245,-5.733656,8.28322,73.88579,146.12904,76.70756
10.192418,-5.1471205,7.3107414,76.20164,155.70935,77.67272
9.7808485,-4.551453,6.3578653,78.42488,164.59547,77.94828
9.3129635,-3.8670135,5.3755584,79.908195,171.62733,76.980156
8.839103,-3.1749358,4.460895,79.9267,176.90715,75.15387
8.389633,-2.5127215,3.6209111,78.7971,181.11145,72.78803
7.951138,-1.8858178,2.8337991,76.71724,184.39365,69.92057
7.5239134,-1.2817346,2.0967894,72.98548,187.21881,66.672066
7.096015,-0.72077096,1.3722904,68.76795,189.73589,63.368168
6.5999656,-0.17541695,0.6277455,64.522156,190.15933,59.090813
6.0595703,0.32951635,-0.08241156,59.703934,188.46986,53.776237
5.5109363,0.77109176,-0.72437716,54.74571,184.92572,47.899082
4.9864874,1.1803854,-1.2933018,48.999798,179.28847,41.589638
4.494295,1.506989,-1.8067816,42.440716,172.1857,35.475296
4.007934,1.710852,-2.273496,35.626457,163.89125,29.578241
3.4947064,1.7786077,-2.6988735,29.534878,154.60916,23.463129
2.971327,1.7027186,-3.0965655,24.072138,144.22356,17.11678
2.4806435,1.4397218,-3.4730787,19.490944,131.44394,10.910145
2.168126,0.8827937,-3.768318,16.106932,117.57199,5.955758
2.0840771,0.17142484,-3.9280307,14.278261,103.93608,3.4458148
2.188633,-0.57407254,-3.9189858,14.220588,91.94291,3.3289475
2.3525274,-1.2540638,-3.7857056,16.000568,81.90346,4.857671
2.5030074,-1.7912955,-3.5536287,19.981428,73.79208,7.113472
2.6608808,-2.0540943,-3.1512287,24.48549,67.3549,9.985493
2.8102427,-2.0706992,-2.6606863,28.329815,62.52441,13.403758
2.9348295,-1.9014302,-2.1411927,31.008644,59.17562,16.721252
3.027885,-1.6207517,-1.635823,32.681988,57.076633,19.700832
3.110254,-1.2558285,-1.1571957,33.337955,56.711525,21.75662
3.1620233,-0.8150533,-0.75759506,33.1274,57.55373,22.845163
3.1665444,-0.3655842,-0.4640944,32.080982,59.184708,22.999613
3.123806,0.06860456,-0.29011363,30.363197,61.12286,22.307562
3.0430028,0.47150037,-0.22125618,28.08573,63.063553,20.808931
2.930041,0.8338284,-0.2475322,25.444647,64.8773,18.212553
2.766934,1.1350437,-0.38385895,22.708164,66.26987,14.73932
2.5649204,1.3751072,-0.58545315,19.691185,66.73919,10.529832
2.346846,1.5463413,-0.82354784,16.284231,66.14622,6.124209
2.1198354,1.6320816,-1.097551,12.42439,64.24548,1.6778581
1.8878856,1.6227659,-1.3982922,8.193993,60.729786,-2.8981085
1.6656413,1.450988,-1.7328799,4.100158,56.11194,-7.394879
1.483292,1.1381235,-2.0816245,0.44684964,50.440277,-11.319619
1.3525982,0.67903847,-2.4284794,-2.3776603,44.08211,-14.202857
1.2588658,0.11283162,-2.7437751,-3.7166293,37.596203,-15.579623
1.1836585,-0.47229743,-3.0106668,-2.555816,31.041838,-14.823605
1.1301054,-0.9472202,-3.1800642,-0.57111263,24.053375,-12.818437
1.1275295,-1.2896363,-3.2341816,1.7173823,17.132801,-10.204377
1.1739134,-1.5111114,-3.1789596,4.4294434,10.728143,-7.6195545
1.2692907,-1.6227479,-3.0094469,7.432914,5.158121,-5.0216656
1.4052138,-1.6116678,-2.7299433,10.134443,0.63108563,-2.0843549
1.5764631,-1.4608101,-2.3492222,11.956757,-2.8919365,1.0228337
1.7347736,-1.2586077,-1.955449,13.087133,-5.3015304,4.0097575
1.8608527,-1.025981,-1.585942,13.7243805,-6.5879407,6.672331
1.9501721,-0.77670187,-1.2587175,14.271396,-6.9995975,8.781052
2.010551,-0.5139623,-0.9730125,14.537413,-6.4887295,9.93914
2.0447774,-0.24260177,-0.7489507,14.299764,-5.4855804,10.568264
2.0515392,0.0069464524,-0.5849375,13.656155,-4.3101816,10.7395735
2.0364637,0.22610986,-0.4759552,12.802557,-3.0100698,10.509398
2.0052722,0.40695798,-0.4152116,11.937018,-1.4835908,9.813874
1.9408846,0.39389095,-0.40187952,11.553732,-1.4359541,9.498759
1.8786831,0.38126752,-0.3890001,11.183457,-1.3899347,9.194344
1.8185825,0.36907047,-0.37655565,10.82569,-1.3454696,8.900209
1.7605022,0.3572834,-0.36452955,10.479948,-1.3024992,8.615962
1.7043653,0.34589076,-0.35290584,10.145776,-1.2609665,8.341226
1.6500987,0.33487767,-0.34166938,9.822737,-1.2208176,8.075643
1.5976328,0.32423005,-0.3308058,9.510416,-1.182001,7.818873
1.5469012,0.31393436,-0.32030132,9.208421,-1.1444675,7.570591
1.4978406,0.30397782,-0.31014284,8.916372,-1.1081702,7.3304863
1.4503905,0.2943481,-0.30031782,8.63391,-1.0730644,7.0982637
1.4044931,0.2850335,-0.2908143,8.360691,-1.0391074,6.87364
1.360093,0.27602276,-0.28162083,8.096385,-1.0062582,6.6563444
1.3171374,0.26730517,-0.27272642,7.840678,-0.97447777,6.446118
1.2755754,0.25887042,-0.2641206,7.593268,-0.9437284,6.2427125
1.2353586,0.25070867,-0.25579333,7.3538647,-0.91397417,6.0458903
1.1964405,0.24281044,-0.24773493,7.1221914,-0.8851807,5.855423
1.158776,0.23516668,-0.23993614,6.8979826,-0.85731494,5.671092
1.1223227,0.22776867,-0.2323881,6.6809816,-0.83034503,5.4926877
1.0870389,0.22060806,-0.22508225,6.4709444,-0.8042405,5.320008
1.0528853,0.21367678,-0.2180104,6.267634,-0.77897215,5.1528587
1.0198237,0.20696712,-0.21116465,6.070824,-0.75451165,4.991054
0.9878174,0.20047164,-0.20453745,5.8802967,-0.730832,4.8344145
0.9568313,0.1941832,-0.19812146,5.6958423,-0.707907,4.682767
0.92683136,0.1880949,-0.19190969,5.517258,-0.68571174,4.5359464
0.89778495,0.1822001,-0.18589534,5.34435,-0.6642219,4.393792
0.8696606,0.17649242,-0.1800719,5.176931,-0.6434142,4.2561507
0.84242797,0.17096572,-0.17443311,5.0148196,-0.6232663,4.122873
0.81605774,0.16561405,-0.1689729,4.857843,-0.6037564,3.9938164
0.79052186,0.16043168,-0.16368544,4.7058325,-0.5848638,3.8688426
0.765793,0.15541312,-0.15856509,4.558626,-0.5665683,3.747819
0.741845,0.15055302,-0.15360641,4.416068,-0.5488505,3.6306164
0.71865255,0.14584625,-0.14880419,4.2780075,-0.5316917,3.5171118
0.6961912,0.14128785,-0.14415334,4.144299,-0.5150737,3.407185
0.67443734,0.13687304,-0.13964897,4.0148025,-0.49897924,3.300721
0.65336823,0.13259718,-0.1352864,3.8893816,-0.48339134,3.1976078
0.6329618,0.12845582,-0.13106105,3.767906,-0.46829376,3.097738
0.61319685,0.12444463,-0.12696852,3.6502488,-0.45367074,3.0010076
0.5940528,0.12055947,-0.123004556,3.5362878,-0.4395071,2.907316
0.57550985,0.116796285,-0.119165055,3.425905,-0.4257882,2.816566
0.55754876,0.1131512,-0.11544604,3.3189862,-0.4124998,2.728664
0.54015106,0.10962044,-0.11184367,3.2154207,-0.3996282,2.643519
0.5232988,0.106200375,-0.10835424,3.1151023,-0.38716012,2.5610435
0.50697464,0.10288748,-0.10497416,3.0179276,-0.37508276,2.4811523
0.49116182,0.09967836,-0.101699956,2.923797,-0.36338374,2.4037638
0.47584414,0.09656973,-0.09852828,2.8326135,-0.35205102,2.3287985
0.46100593,0.0935584,-0.09545588,2.7442842,-0.341073,2.2561798
0.44663197,0.0906413,-0.09247961,2.6587186,-0.33043852,2.1858332
0.43270767,0.087815434,-0.089596435,2.5758297,-0.3201367,2.117687
0.41921875,0.08507795,-0.08680343,2.4955328,-0.310157,2.0516717
0.40615156,0.082426034,-0.08409773,2.417746,-0.30048928,1.9877205
0.39349273,0.079857,-0.0814766,2.3423905,-0.29112372,1.9257678
0.38122946,0.077368245,-0.07893736,2.2693894,-0.2820508,1.8657508
0.36934927,0.07495723,-0.07647745,2.1986687,-0.27326128,1.8076087
0.35784012,0.07262152,-0.07409436,2.130157,-0.2647463,1.7512826
0.34669033,0.07035874,-0.071785696,2.0637844,-0.25649717,1.6967151
0.33588865,0.0681666,-0.0695491,1.9994838,-0.2485056,1.6438513
0.3254241,0.066042885,-0.06738231,1.9371904,-0.24076347,1.5926374
0.31528616,0.063985445,-0.06528315,1.876841,-0.23326296,1.5430219
0.30546457,0.061992206,-0.06324948,1.8183748,-0.22599648,1.4949546
0.29594937,0.060061157,-0.061279267,1.7617325,-0.21895671,1.4483869
0.28673097,0.058190342,-0.05937051,1.7068572,-0.21213654,1.4032718
0.2778001,0.056377877,-0.057521287,1.6536934,-0.2055291,1.359564
0.26914778,0.054621935,-0.055729736,1.6021876,-0.1991277,1.317219
0.26076525,0.05292075,-0.053994045,1.5522879,-0.19292592,1.2761946
0.25264406,0.05127261,-0.052312475,1.503944,-0.18691751,1.2364492
0.24477609,0.049675845,-0.05068333,1.4571073,-0.1810964,1.1979431
0.23715337,0.04812886,-0.04910497,1.4117306,-0.17545678,1.1606371
0.22976823,0.046630092,-0.047575805,1.3677684,-0.16999292,1.1244941
0.22261329,0.045178037,-0.046094302,1.3251762,-0.16469938,1.0894775
0.21568133,0.043771237,-0.04465897,1.2839116,-0.1595708,1.0555522
0.20896538,0.042408276,-0.043268364,1.2439327,-0.15460204,1.0226841
0.2024587,0.041087784,-0.041921094,1.2051997,-0.1497881,0.9908402
0.19615476,0.039808437,-0.0406158,1.1676735,-0.14512415,0.95998853
0.19004722,0.03856895,-0.039351173,1.1313164,-0.14060552,0.93009806
0.18412997,0.037368078,-0.038125947,1.0960921,-0.13622768,0.9011388
0.17839706,0.036204617,-0.03693889,1.0619651,-0.1319862,0.8730817
0.17284273,0.0350774,-0.03578881,1.0289012,-0.12787686,0.84589857
0.16746141,0.033985294,-0.034674555,0.99686724,-0.123895526,0.81956226
0.16224772,0.032927208,-0.03359501,0.9658311,-0.1200382,0.7940462
0.15719642,0.031902075,-0.032549087,0.9357616,-0.116301015,0.769325
0.15230244,0.030908871,-0.03153574,0.90662867,-0.112680234,0.74537367
0.1475609,0.029946601,-0.030553954,0.87840307,-0.10917222,0.7221683
0.142967,0.0290143,-0.029602744,0.85105646,-0.10577345,0.6996857
0.13851619,0.028111031,-0.028681157,0.82456154,-0.10248053,0.67790323
0.13420397,0.027235894,-0.02778827,0.7988917,-0.09929016,0.6567991
0.13002603,0.026388008,-0.026923187,0.77402127,-0.09619914,0.6363521
0.1259782,0.025566524,-0.026085043,0.74992526,-0.09320437,0.6165419
0.12205642,0.024770621,-0.025272999,0.72657955,-0.090302855,0.5973485
0.11825675,0.023999501,-0.024486238,0.70396084,-0.08749168,0.5787528
0.114575386,0.023252392,-0.023723977,0.68204635,-0.08476805,0.5607361
0.11100866,0.022528544,-0.02298545,0.6608143,-0.082129225,0.5432804
0.10755298,0.021827236,-0.022269918,0.6402433,-0.07957256,0.5263682
0.1042049,0.021147761,-0.021576663,0.62031275,-0.07709549,0.5099826
0.10096106,0.020489445,-0.020904996,0.60100275,-0.07469556,0.4941071
0.09781822,0.019851623,-0.020254238,0.582294,-0.072370335,0.4787259
0.094773225,0.01923366,-0.019623742,0.5641677,-0.07011752,0.4638236
0.091823034,0.018634936,-0.019012874,0.54660577,-0.067934826,0.44938526
0.088964686,0.018054852,-0.018421026,0.52959055,-0.0658201,0.43539643
0.086195335,0.017492829,-0.017847603,0.5131051,-0.0637712,0.42184308
0.083512194,0.016948301,-0.017292034,0.49713287,-0.061786097,0.40871173
0.08091259,0.016420728,-0.01675376,0.4816579,-0.059862792,0.39598915
0.078393914,0.015909577,-0.016232241,0.46666467,-0.05799936,0.38366267
0.07595365,0.0154143395,-0.015726961,0.45213822,-0.05619394,0.3717199
0.07358935,0.014934519,-0.015237409,0.43806398,-0.054444727,0.36014897
0.07129866,0.014469637,-0.014763098,0.4244279,-0.05274997,0.3489382
0.06907927,0.014019226,-0.014303552,0.4112163,-0.05110797,0.33807647
0.066928975,0.013582837,-0.013858313,0.39841598,-0.049517084,0.32755286
0.06484562,0.013160032,-0.013426933,0.38601416,-0.047975723,0.31735682
0.062827125,0.01275039,-0.013008983,0.3739984,-0.046482347,0.30747822
0.06087146,0.012353499,-0.012604043,0.3623567,-0.045035455,0.29790714
0.058976673,0.011968964,-0.012211708,0.35107738,-0.04363361,0.28863397
0.057140872,0.011596398,-0.011831587,0.34014916,-0.0422754,0.2796495
0.055362217,0.011235431,-0.011463299,0.32956117,-0.04095947,0.27094468
0.053638928,0.010885701,-0.011106475,0.31930277,-0.039684504,0.26251087
0.051969286,0.010546857,-0.010760759,0.30936366,-0.038449228,0.25433958
