ax,ay,az,gx,gy,gz
-0.02181838,-2.7409341,5.7727795,-41.948566,-107.14552,-25.30205
0.24158134,-3.4070663,6.7158127,-41.067783,-102.79847,-21.069092
0.56552887,-4.0272,7.364467,-36.829857,-94.25284,-19.13233
1.0983456,-4.615669,7.970007,-29.651398,-83.26689,-17.093246
1.754918,-5.1050577,8.512404,-18.995905,-67.981674,-12.600695
2.5534203,-5.440993,8.934503,-8.488802,-52.3982,-6.252884
3.255721,-5.628109,9.197334,2.357585,-35.145447,0.8943101
3.7924743,-5.682132,9.190129,13.727365,-17.413712,6.473073
4.2488675,-5.585094,8.999442,23.025904,-0.6137009,10.754556
4.6568727,-5.400291,8.717827,30.36742,16.205505,15.111911
4.977285,-5.069323,8.316666,36.046074,31.89837,19.793964
5.2010865,-4.61613,7.855775,39.75022,46.849876,24.351383
5.3426533,-4.101852,7.334551,42.141567,60.752827,28.30011
5.3891497,-3.5564575,6.752994,44.17856,73.37479,31.394535
5.355276,-2.9714947,6.1412706,45.0639,84.47626,33.658295
5.2604623,-2.3533175,5.4861803,44.752228,94.01432,35.179417
5.143252,-1.7455207,4.83344,43.04384,102.147026,36.051094
5.007168,-1.1656034,4.1855235,40.514107,109.265015,36.011597
4.8433657,-0.6579294,3.5235877,37.646927,115.531975,35.139458
4.6436305,-0.21147574,2.842237,34.348232,120.42527,33.47198
4.372504,0.1850595,2.120726,30.987318,123.642525,31.178146
4.0569596,0.5233563,1.4040262,27.786037,125.0781,28.115847
3.7252457,0.8076306,0.7219547,24.57799,124.94849,24.299437
3.3848345,1.0420874,0.081076175,21.321484,123.40409,19.98852
3.0228832,1.2214755,-0.5213556,17.954184,119.743225,15.13718
2.6148288,1.3053546,-1.0864942,14.841162,114.431145,10.176814
2.191131,1.307545,-1.6057248,11.737975,107.63794,5.4175897
1.7599512,1.2062287,-2.0719805,8.675491,99.38615,0.89289707
1.3540331,0.9756117,-2.4637337,5.796993,89.67587,-2.9593792
1.034166,0.60524386,-2.7576127,3.0871449,78.58837,-4.9828024
0.8746288,0.06708835,-2.9137216,0.9876512,67.39394,-5.2011085
0.8400175,-0.5119617,-2.9630075,0.33155382,56.79407,-4.559844
0.9259011,-1.0648487,-2.894772,1.5835781,47.31037,-3.6396549
1.1149273,-1.5074829,-2.6864111,4.4865866,39.4215,-2.380308
1.3633976,-1.7786113,-2.3494225,8.299207,33.82075,-0.21857497
1.5973362,-1.7795839,-1.8913057,11.811264,29.637444,2.4506733
1.8013372,-1.5846633,-1.3821295,14.259381,26.734333,5.2805543
1.9731214,-1.2466506,-0.86318403,15.222805,25.128506,7.8591676
2.1017892,-0.84427637,-0.3828551,15.016648,24.795351,9.9347315
2.176464,-0.4309271,0.010477307,14.0859165,26.066912,11.055591
2.1683373,-0.040922463,0.24503644,12.815753,28.212461,11.137068
2.104977,0.31276327,0.35982248,11.217564,30.64217,10.455121
1.9978001,0.62868595,0.37696865,9.399222,32.970913,9.152237
1.8546093,0.90507615,0.3128834,7.668424,34.879963,7.1761327
1.6955787,1.1440598,0.19087422,5.9601536,36.05603,4.2652755
1.5314001,1.3314639,0.007155853,4.1114187,36.518932,0.63018274
1.3729925,1.4539796,-0.203673,2.1514502,36.238045,-3.4385304
1.2230083,1.5038837,-0.43056443,0.0429063,35.217064,-7.4717665
1.0870055,1.4777372,-0.6694104,-2.153962,33.504433,-11.24367
0.95233655,1.3685735,-0.92300236,-4.481407,30.77507,-14.5438795
0.8125593,1.1139132,-1.1933602,-6.652318,27.347128,-17.209116
0.6832941,0.75695306,-1.4640574,-8.121071,23.403748,-19.241278
0.58165973,0.3131404,-1.7260679,-8.561376,19.069944,-20.513113
0.5131166,-0.1790856,-1.9580064,-8.006575,14.338695,-20.65707
0.4747178,-0.6596656,-2.1296406,-6.706096,9.128288,-18.943573
0.4672688,-1.0538453,-2.191068,-5.066749,3.8760417,-16.070518
0.47817722,-1.3228687,-2.170152,-3.0315762,-1.1144626,-12.97707
0.5128451,-1.4760206,-2.077236,-0.395833,-5.6226163,-10.285433
0.57877725,-1.5195683,-1.910091,2.382769,-9.574464,-7.6363783
0.67480916,-1.4510492,-1.6664435,4.7564545,-12.926646,-4.7414904
0.8142293,-1.2352678,-1.3283534,6.3485913,-15.722473,-1.8832608
0.96953565,-0.97277427,-0.96675307,7.268047,-17.700651,0.70683384
1.117762,-0.71989167,-0.6327202,7.8083735,-18.566597,2.9780648
1.231397,-0.48483726,-0.3603651,8.188323,-18.249363,4.692599
1.2994007,-0.26879218,-0.16463718,8.315659,-16.910095,5.7041717
1.3216074,-0.06917664,-0.04240952,8.236777,-15.291217,6.3245134
1.2792524,-0.06695966,-0.04105038,7.972805,-14.801164,6.1218257
1.2383282,-0.06481757,-0.039737146,7.717749,-14.327662,5.9259834
1.1987795,-0.06274748,-0.038468055,7.4712663,-13.870078,5.7367244
1.1605542,-0.06074666,-0.03724143,7.233031,-13.427805,5.553798
1.1236024,-0.0588125,-0.03605567,7.0027328,-13.000266,5.3769665
1.0878768,-0.05694252,-0.034909256,6.7800765,-12.586915,5.2060027
1.0533321,-0.055134356,-0.03380074,6.56478,-12.187227,5.04069
1.0199252,-0.053385746,-0.032728735,6.356576,-11.800705,4.8808227
0.987615,-0.05169454,-0.031691924,6.1552057,-11.42687,4.726203
0.95636207,-0.05005867,-0.030689036,5.960425,-11.065268,4.576643
0.9261287,-0.04847617,-0.029718867,5.771999,-10.715463,4.431962
0.8968789,-0.046945155,-0.02878026,5.5897026,-10.377038,4.291988
0.8685781,-0.04546381,-0.027872106,5.413321,-10.049593,4.156555
0.84119326,-0.044030413,-0.026993345,5.2426476,-9.732746,4.025506
0.8146927,-0.042643297,-0.026142959,5.0774856,-9.426129,3.8986883
0.7890459,-0.041300874,-0.02531997,4.9176445,-9.129392,3.7759562
0.76422364,-0.040001605,-0.024523439,4.762943,-8.842195,3.65717
0.74019784,-0.038744032,-0.023752468,4.6132045,-8.564212,3.5421953
0.7169416,-0.037526734,-0.02300619,4.4682627,-8.295134,3.4309032
0.6944289,-0.036348358,-0.022283772,4.327955,-8.034658,3.3231695
0.6726349,-0.035207596,-0.021584416,4.192126,-7.782498,3.218875
0.6515355,-0.034103196,-0.020907352,4.060626,-7.5383744,3.1179044
0.6311077,-0.033033945,-0.020251835,3.9333115,-7.3020205,3.0201476
0.6113291,-0.03199868,-0.019617153,3.8100436,-7.0731792,2.9254975
0.59217834,-0.030996276,-0.019002618,3.6906888,-6.851602,2.8338523
0.5736348,-0.030025654,-0.018407568,3.575118,-6.63705,2.7451127
0.55567855,-0.029085772,-0.017831363,3.4632075,-6.429293,2.6591835
0.5382904,-0.028175628,-0.017273387,3.3548377,-6.228109,2.575973
0.5214518,-0.027294246,-0.016733047,3.2498927,-6.0332837,2.4953923
0.50514483,-0.026440697,-0.01620977,3.1482615,-5.8446097,2.417356
0.4893524,-0.025614075,-0.015703,3.0498369,-5.6618886,2.3417816
0.47405776,-0.024813512,-0.015212205,2.9545147,-5.484927,2.2685897
0.4592449,-0.024038166,-0.01473687,2.862195,-5.31354,2.1977031
0.44489828,-0.023287224,-0.014276496,2.7727814,-5.1475472,2.1290479
0.43100294,-0.022559902,-0.013830604,2.68618,-4.9867754,2.062552
0.41754436,-0.021855444,-0.013398727,2.602301,-4.8310575,1.9981465
0.40450862,-0.021173114,-0.012980418,2.521057,-4.680232,1.9357642
0.39188215,-0.02051221,-0.012575244,2.442364,-4.5341415,1.8753407
0.37965193,-0.019872045,-0.012182783,2.3661404,-4.392636,1.8168132
0.3678053,-0.019251961,-0.011802632,2.2923076,-4.2555685,1.7601216
0.35633007,-0.018651316,-0.0114344,2.2207894,-4.1227984,1.7052072
0.34521446,-0.018069493,-0.011077708,2.1515126,-3.9941888,1.6520138
0.33444703,-0.017505895,-0.010732188,2.0844057,-3.8696077,1.6004866
0.32401675,-0.016959945,-0.010397486,2.0194001,-3.7489278,1.5505728
0.31391296,-0.016431084,-0.010073262,1.9564291,-3.632025,1.5022213
0.3041253,-0.01591877,-0.009759183,1.8954287,-3.5187802,1.4553828
0.29464382,-0.015422483,-0.009454928,1.8363363,-3.409078,1.4100094
0.2854588,-0.014941714,-0.009160187,1.7790917,-3.302806,1.3660549
0.27656093,-0.014475975,-0.00887466,1.7236367,-3.199856,1.3234744
0.26794118,-0.014024792,-0.008598058,1.669915,-3.100124,1.2822248
0.25959074,-0.013587707,-0.008330097,1.6178718,-3.0035079,1.2422639
0.25150114,-0.013164275,-0.008070508,1.5674542,-2.9099102,1.2035514
0.24366422,-0.012754069,-0.007819026,1.5186114,-2.8192356,1.166048
0.23607199,-0.012356671,-0.007575397,1.4712937,-2.7313921,1.1297157
0.22871679,-0.011971679,-0.007339373,1.4254532,-2.6462913,1.0945176
0.22159117,-0.011598703,-0.007110717,1.3810436,-2.5638468,1.0604181
0.21468794,-0.011237369,-0.006889196,1.3380198,-2.4839752,1.027383
0.20800011,-0.010887309,-0.0066745877,1.2963386,-2.4065957,0.9953785
0.20152092,-0.01054817,-0.006466675,1.2559577,-2.3316305,0.9643725
0.19524385,-0.01021961,-0.0062652477,1.2168366,-2.2590036,0.93433374
0.18916255,-0.009901298,-0.006070103,1.1789355,-2.1886423,0.9052319
0.18327092,-0.009592913,-0.0058810445,1.1422166,-2.120475,0.87703764
0.177563,-0.009294145,-0.005697881,1.1066425,-2.0544333,0.84972256
0.17203304,-0.009004692,-0.005520428,1.0721776,-1.9904509,0.8232591
0.16667548,-0.008724262,-0.005348508,1.0387872,-1.928463,0.79762065
0.16148494,-0.008452574,-0.0051819463,1.0064378,-1.8684075,0.7727815
0.15645619,-0.008189355,-0.005020577,0.9750965,-1.810224,0.74871653
0.15158416,-0.007934339,-0.004864237,0.9447322,-1.7538539,0.7254016
0.14686397,-0.007687272,-0.0047127693,0.91531414,-1.6992406,0.70281327
0.14229088,-0.0074479035,-0.0045660217,0.8868128,-1.6463292,0.6809289
0.13786028,-0.007215994,-0.004423847,0.8591996,-1.5950664,0.6597264
0.13356774,-0.00699131,-0.004286102,0.83244675,-1.545401,0.63918453
0.12940894,-0.0067736264,-0.0041526486,0.80652744,-1.4972829,0.6192827
0.1253797,-0.0065627247,-0.004023353,0.78141564,-1.4506639,0.6000009
0.12147598,-0.0063583935,-0.003898085,0.75708616,-1.4054973,0.5813198
0.11769387,-0.0061604274,-0.0037767198,0.73351455,-1.3617376,0.5632206
0.11402957,-0.0059686275,-0.0036591347,0.7106772,-1.3193411,0.54568523
0.11047941,-0.005782802,-0.0035452123,0.6885512,-1.2782651,0.528696
0.107039824,-0.0056027644,-0.0034348383,0.6671143,-1.2384685,0.512236
0.103707366,-0.005428334,-0.003327902,0.64634514,-1.1999115,0.4962886
0.100478694,-0.005259337,-0.003224296,0.6262228,-1.1625552,0.48083788
0.09735058,-0.0050956025,-0.0031239167,0.6067272,-1.1263624,0.46586838
0.09431988,-0.004936967,-0.0030266636,0.58783865,-1.0912967,0.45136505
0.09138356,-0.004783272,-0.002932439,0.56953835,-1.057323,0.43731338
0.088538684,-0.0046343626,-0.0028411485,0.55180794,-1.0244073,0.4236993
0.08578239,-0.0044900905,-0.002752701,0.53462964,-0.9925165,0.41050914
0.08311193,-0.004350311,-0.0026670075,0.51798624,-0.9616188,0.3977297
0.080524616,-0.0042148842,-0.0025839824,0.5018611,-0.9316832,0.3853482
0.07801787,-0.004083674,-0.0025035427,0.4862381,-0.9026797,0.37335223
0.07558917,-0.0039565493,-0.0024256073,0.4711015,-0.8745793,0.3617298
0.07323609,-0.0038333826,-0.0023500987,0.4564362,-0.8473538,0.3504692
0.07095628,-0.0037140509,-0.002276941,0.4422275,-0.820976,0.33955926
0.06874745,-0.0035984346,-0.0022060613,0.42846122,-0.7954195,0.32898897
0.0666074,-0.003486418,-0.002137388,0.41512355,-0.7706587,0.3187478
0.06453397,-0.003377889,-0.002070853,0.40220112,-0.74666876,0.30882543
0.06252509,-0.0032727388,-0.0020063897,0.389681,-0.72342575,0.29921204
0.060578763,-0.0031708623,-0.0019439331,0.37755072,-0.70090634,0.28989792
0.058693025,-0.0030721575,-0.001883421,0.36579806,-0.67908806,0.28087378
0.056865994,-0.0029765256,-0.0018247927,0.35441127,-0.65794903,0.27213058
0.055095844,-0.0028838709,-0.0017679897,0.343379,-0.63746804,0.26365957
0.0533808,-0.0027941007,-0.0017129552,0.33269018,-0.6176247,0.25545228
0.051719148,-0.0027071252,-0.0016596338,0.3223341,-0.59839916,0.2475005
0.050109226,-0.0026228575,-0.0016079724,0.31230044,-0.57977206,0.23979625
0.04854942,-0.0025412128,-0.0015579194,0.30257913,-0.5617249,0.23233186
0.047038175,-0.00246211,-0.0015094245,0.29316044,-0.5442395,0.22509983
0.045573976,-0.0023854696,-0.0014624392,0.28403497,-0.5272985,0.21809295
0.044155356,-0.0023112153,-0.0014169166,0.27519357,-0.5108848,0.21130417
0.0427809,-0.0022392722,-0.0013728112,0.2666274,-0.49498212,0.20472676
0.041449226,-0.0021695688,-0.0013300787,0.2583279,-0.47957444,0.19835408
0.04015901,-0.002102035,-0.0012886765,0.25028676,-0.46464643,0.19217978
0.03890896,-0.0020366039,-0.001248563,0.24249594,-0.4501831,0.18619768
0.037697818,-0.0019732094,-0.0012096984,0.23494764,-0.43617,0.1804018
0.036524378,-0.0019117884,-0.0011720435,0.22763431,-0.42259312,0.17478636
0.035387468,-0.0018522793,-0.0011355608,0.22054864,-0.40943888,0.1693457
