ax,ay,az,gx,gy,gz
-0.687279,3.0236638,-3.1100283,3.2736661,-32.73757,11.707379
-0.7976864,3.4888558,-3.5226352,-11.692478,-47.034645,12.207012
-0.835275,4.192435,-3.906028,-20.399384,-62.78231,7.82811
-0.62026656,4.776929,-3.9865627,-28.464722,-76.892944,-0.7524243
0.07233662,5.328024,-3.5993338,-35.58956,-79.62883,-5.252538
0.8214537,6.1329627,-3.126474,-44.830757,-74.90528,-6.3731465
1.3079462,6.836613,-2.7321935,-55.872314,-67.73362,-11.456928
1.5807731,7.1777186,-2.396642,-62.848858,-59.93511,-21.522255
1.6897388,7.346613,-2.160027,-66.43962,-53.107735,-34.665413
1.667252,7.344513,-2.0072184,-69.34613,-48.493435,-47.69798
1.5840269,7.1307716,-1.9190528,-72.90336,-46.503643,-58.90491
1.563434,6.672284,-1.848575,-76.18223,-46.2254,-67.275734
1.6490971,6.0138545,-1.778223,-78.34895,-46.36069,-73.59135
1.7677802,5.3141103,-1.6857163,-79.344795,-46.513863,-78.62834
1.8927845,4.5879936,-1.5614545,-79.02124,-46.37545,-82.70919
2.0231845,3.8616748,-1.4208031,-77.85471,-46.200615,-85.78337
2.1884215,3.1418245,-1.2546768,-75.7957,-45.26942,-86.794426
2.3459399,2.4243639,-1.1045533,-72.75646,-43.833908,-86.42398
2.4428825,1.756571,-0.97313917,-68.902855,-41.911854,-85.3925
2.4582305,1.1713969,-0.8593274,-64.93986,-39.999344,-83.85662
2.4153376,0.6533176,-0.75398946,-61.092823,-38.322258,-81.81036
2.3334305,0.20098911,-0.6428321,-57.250984,-36.761158,-78.93949
2.231327,-0.16945927,-0.5023774,-53.461143,-35.104477,-75.50732
2.1587374,-0.48702595,-0.33167192,-49.8113,-33.26857,-71.50283
2.126719,-0.7589087,-0.11846371,-46.291386,-30.957623,-67.079445
2.1288087,-0.98491025,0.13081475,-42.577618,-28.083916,-62.27957
2.1475935,-1.1325582,0.39706853,-38.349182,-24.862633,-57.35092
2.1745846,-1.1747315,0.6627927,-34.145283,-21.464342,-52.90982
2.2204654,-1.1600152,0.9052083,-30.585264,-17.614588,-49.08054
2.2741718,-1.1330882,1.104108,-27.545366,-13.293189,-45.82421
2.3230758,-1.1242218,1.2448728,-24.844934,-8.5642605,-42.96587
2.362297,-1.1318216,1.3196238,-22.410995,-3.2414246,-40.092613
2.3598838,-1.1368713,1.3031904,-20.38559,1.886,-37.137302
2.3266706,-1.13995,1.2331614,-18.408655,6.754044,-34.192413
2.2673433,-1.1263596,1.1152128,-16.359259,11.246611,-31.394943
2.1751583,-1.0947409,0.9507819,-14.376407,15.029192,-28.98105
2.070271,-1.0585924,0.76277524,-12.366776,18.170483,-26.903807
1.9560535,-1.0056149,0.54165643,-10.675163,20.712175,-24.965466
1.8378003,-0.9486468,0.30272752,-9.412307,22.666864,-23.118177
1.7135571,-0.9101194,0.0435595,-8.358435,24.074284,-21.435928
1.5803002,-0.89208466,-0.23296331,-7.019425,24.959465,-19.94165
1.4408945,-0.8690165,-0.5208656,-5.4846315,25.139128,-18.749023
1.3032103,-0.83146465,-0.82529885,-3.9808512,24.722681,-17.67209
1.1757355,-0.79233336,-1.1310477,-2.5832305,23.758116,-16.512747
1.0518415,-0.7503556,-1.4411542,-1.1148982,22.125458,-15.251183
0.9308131,-0.7045081,-1.7494153,0.66092247,19.757376,-14.023393
0.8137759,-0.6587224,-2.044616,2.2581513,16.260897,-13.002155
0.71150744,-0.65516496,-2.3214471,3.8742259,12.167486,-12.30292
0.6345391,-0.6874808,-2.5770714,5.3860993,7.723915,-11.900098
0.60248107,-0.75290024,-2.7911422,6.8962374,3.1246338,-11.171723
0.60411745,-0.8220783,-2.9468226,8.098473,-1.715422,-9.510394
0.6235122,-0.85244906,-3.028585,8.766907,-6.711381,-6.7740555
0.63114536,-0.81455034,-3.0153363,9.334497,-11.654025,-4.2293963
0.6230577,-0.7288806,-2.9349291,9.807675,-16.749935,-2.4016314
0.6337891,-0.6195964,-2.7730367,9.91343,-21.777655,-0.9875897
0.6949807,-0.48988128,-2.5326202,9.668842,-26.31011,0.5999946
0.81155264,-0.34158143,-2.2270153,8.662487,-29.794193,2.5371177
0.95072085,-0.20195001,-1.8850628,7.228429,-32.188244,3.8621862
1.1005197,-0.09499165,-1.5447423,5.8636785,-33.50753,4.547554
1.2411196,5.552775e-05,-1.232573,4.595141,-34.022453,4.830854
1.3601308,0.09051689,-0.95145273,3.0917914,-33.991875,4.9812193
1.4622436,0.16106199,-0.6975385,1.3820179,-33.12988,5.2766128
1.5097758,0.20271812,-0.502093,-0.31960016,-31.907284,5.611054
1.5237446,0.21884917,-0.34996337,-2.0037434,-30.465199,5.841435
1.5178328,0.206113,-0.2394137,-3.5338643,-28.805546,5.9735928
1.503967,0.15739988,-0.15553148,-4.790297,-26.587175,6.2580285
1.473875,0.08550338,-0.10792315,-5.722404,-24.031374,7.207642
1.3997884,0.03180675,-0.11029293,-6.6405907,-21.91338,8.556672
1.3005345,-0.0029985681,-0.13337412,-7.4811254,-20.587818,9.862306
1.2139126,-0.021206025,-0.15354659,-7.9704576,-19.952732,10.561798
1.1641499,-0.035017926,-0.15200087,-7.9285097,-19.51956,10.55394
1.147516,-0.052155193,-0.13044342,-7.509523,-18.947445,10.437666
1.1566765,-0.08422202,-0.084512755,-6.7923374,-17.810852,10.565551
1.1609684,-0.11691356,-0.040412087,-5.938104,-16.260672,10.857632
1.1591954,-0.12974629,0.0051237033,-5.3574877,-14.633774,11.273557
1.1573538,-0.12200133,0.063124865,-5.2169375,-13.004101,11.743466
1.1207665,-0.11814451,0.061129306,-5.0520153,-12.593004,11.372221
1.0853695,-0.114413165,0.059198666,-4.892458,-12.195281,11.013054
1.0511209,-0.11080289,0.057330668,-4.7380776,-11.810462,10.66554
1.0179808,-0.10730946,0.055523127,-4.588694,-11.438098,10.329273
0.9859108,-0.10392883,0.05377395,-4.4441338,-11.077757,10.003864
0.954874,-0.10065711,0.052081127,-4.3042307,-10.729025,9.688939
0.924835,-0.09749059,0.05044273,-4.168826,-10.391505,9.384139
0.89575994,-0.09442566,0.048856907,-4.037766,-10.0648155,9.089119
0.86761606,-0.0914589,0.04732187,-3.9109035,-9.7485895,8.803548
0.8403721,-0.08858701,0.04583592,-3.7880971,-9.442474,8.527108
0.81399775,-0.08580679,0.0443974,-3.6692111,-9.146131,8.259493
0.78846407,-0.083115175,0.043004733,-3.5541143,-8.859233,8.000406
0.76374304,-0.08050923,0.041656386,-3.4426808,-8.581466,7.7495666
0.7398077,-0.077986114,0.040350895,-3.334789,-8.312527,7.5066996
0.71663225,-0.07554309,0.03908685,-3.2303221,-8.052126,7.2715416
0.6941915,-0.073177524,0.03786288,-3.1291673,-7.79998,7.0438395
0.6724615,-0.07088688,0.036677673,-3.0312164,-7.5558205,6.823349
0.651419,-0.0686687,0.03552996,-2.9363642,-7.3193855,6.609834
0.6310415,-0.06652063,0.034418527,-2.8445098,-7.090423,6.4030676
0.6113075,-0.064440385,0.033342186,-2.7555559,-6.86869,6.2028303
0.59219605,-0.062425774,0.0322998,-2.6694083,-6.653953,6.0089097
0.5736871,-0.060474668,0.031290278,-2.5859764,-6.445985,5.821102
0.5557611,-0.058585018,0.030312551,-2.5051725,-6.2445674,5.6392107
0.53839934,-0.056754846,0.0293656,-2.426912,-6.0494895,5.463044
0.52158374,-0.05498224,0.028448433,-2.351113,-5.860548,5.2924185
0.50529665,-0.05326536,0.027560098,-2.2776968,-5.6775455,5.1271567
0.4895213,-0.051602412,0.026699672,-2.206587,-5.5002923,4.967087
0.4742412,-0.049991675,0.025866259,-2.13771,-5.3286047,4.812042
0.45944065,-0.04843149,0.025059,-2.0709944,-5.1623044,4.661864
0.4451043,-0.046920236,0.024277061,-2.0063713,-5.00122,4.516395
0.4312174,-0.045456365,0.023519637,-1.9437741,-4.845186,4.3754873
0.4177657,-0.044038367,0.022785949,-1.8831387,-4.694042,4.2389956
0.40473536,-0.042664785,0.022075241,-1.8244025,-4.547632,4.1067786
0.39211303,-0.041334216,0.02138679,-1.7675055,-4.405807,3.978702
0.3798858,-0.04004529,0.020719886,-1.7123895,-4.268421,3.8546345
0.36804113,-0.038796697,0.02007385,-1.658998,-4.1353335,3.734449
0.35656697,-0.037587162,0.019448023,-1.6072766,-4.006409,3.6180227
0.34545162,-0.036415447,0.018841764,-1.5571725,-3.8815167,3.505237
0.33468378,-0.035280365,0.018254459,-1.5086349,-3.7605283,3.3959775
0.32425246,-0.034180757,0.01768551,-1.4616143,-3.6433213,3.2901328
0.31414706,-0.033115506,0.017134337,-1.4160627,-3.5297763,3.1875951
0.30435735,-0.032083534,0.016600383,-1.3719342,-3.4197786,3.0882607
0.2948734,-0.03108379,0.016083105,-1.3291838,-3.3132162,2.9920285
0.28568554,-0.030115265,0.0155819785,-1.2877685,-3.2099812,2.8988013
0.27678457,-0.029176977,0.015096497,-1.247646,-3.1099691,2.8084846
0.26816142,-0.028267974,0.01462617,-1.2087759,-3.0130787,2.7209868
0.25980735,-0.027387341,0.01417052,-1.1711187,-2.919212,2.6362197
0.251714,-0.026534187,0.013729088,-1.1346368,-2.8282745,2.5540977
0.24387312,-0.025707647,0.0133014275,-1.0992929,-2.740174,2.4745378
0.23627684,-0.024906894,0.012887108,-1.0650516,-2.6548216,2.3974597
0.2289175,-0.024131114,0.012485712,-1.0318782,-2.5721316,2.3227856
0.22178765,-0.023379529,0.0120968325,-0.99973947,-2.4920201,2.2504404
0.21488012,-0.02265138,0.01172008,-0.9686029,-2.4144068,2.180351
0.20818798,-0.021945933,0.011355074,-0.93843704,-2.3392134,2.112447
0.20170447,-0.02126248,0.011001448,-0.9092117,-2.2663643,2.04666
0.19542307,-0.020600332,0.010658845,-0.8808974,-2.195786,1.9829236
0.18933745,-0.019958824,0.010326921,-0.8534656,-2.1274078,1.9211739
0.1834415,-0.01933731,0.010005342,-0.8268888,-2.0611606,1.8613489
0.17772932,-0.018735163,0.009693786,-0.8011403,-1.9969779,1.8033882
0.17219514,-0.018151782,0.009391937,-0.77619416,-1.9347955,1.7472337
0.16683339,-0.01758658,0.009099496,-0.75202537,-1.8745507,1.6928291
0.1616387,-0.017038988,0.008816165,-0.72860956,-1.816183,1.6401197
0.15660588,-0.016508456,0.008541662,-0.7059234,-1.7596337,1.5890524
0.15172985,-0.015994454,0.008275712,-0.683944,-1.7048463,1.5395762
0.14700572,-0.015496464,0.008018046,-0.6626493,-1.6517656,1.4916413
0.14242874,-0.015013988,0.007768407,-0.6420179,-1.6003385,1.4451995
0.13799435,-0.01454654,0.0075265444,-0.62202924,-1.5505133,1.4002044
0.13369808,-0.014093652,0.0072922152,-0.60266316,-1.5022401,1.3566109
0.12953562,-0.013654871,0.0070651844,-0.5839003,-1.4554704,1.3143752
0.1255028,-0.013229756,0.006845225,-0.5657218,-1.4101574,1.2734549
0.121595584,-0.01281788,0.006632116,-0.5481095,-1.3662558,1.2338091
0.117810056,-0.012418832,0.0064256443,-0.5310456,-1.3237213,1.195398
0.11414241,-0.012032212,0.0062256022,-0.51451325,-1.2825115,1.1581831
0.11058899,-0.011657631,0.00603179,-0.49849567,-1.242585,1.122127
0.10714622,-0.011294714,0.005844013,-0.48297688,-1.2039018,1.0871938
0.10381066,-0.0109431,0.0056620836,-0.46794137,-1.1664232,1.0533485
0.100578964,-0.010602433,0.005485819,-0.45337403,-1.1301117,1.020557
0.097447895,-0.010272375,0.005315043,-0.4392603,-1.0949308,0.9887867
0.09441432,-0.009952594,0.0051495847,-0.42558604,-1.0608454,0.95800555
0.0914752,-0.00964277,0.004989278,-0.41233754,-1.0278213,0.92818284
0.0886276,-0.009342592,0.004833963,-0.39950156,-0.9958254,0.8992887
0.08586866,-0.009051762,0.0046834834,-0.38706523,-0.96482575,0.8712942
0.08319562,-0.008769985,0.0045376895,-0.37501612,-0.93479127,0.84417135
0.0806058,-0.008496982,0.0043964344,-0.36334214,-0.9056919,0.8178929
0.07809661,-0.008232478,0.0042595775,-0.35203162,-0.8774985,0.7924326
0.07566555,-0.00797621,0.0041269814,-0.34107324,-0.8501829,0.76776505
0.07331017,-0.00772792,0.0039985133,-0.33045605,-0.8237177,0.7438654
0.07102811,-0.00748736,0.0038740446,-0.3201694,-0.79807645,0.72070986
0.06881711,-0.007254289,0.0037534512,-0.31020296,-0.7732335,0.69827515
0.06667494,-0.007028474,0.0036366119,-0.30054682,-0.74916387,0.67653894
0.06459946,-0.006809689,0.0035234103,-0.29119128,-0.72584367,0.6554794
0.06258859,-0.0065977154,0.0034137326,-0.28212702,-0.7032494,0.63507545
0.060640324,-0.0063923406,0.0033074694,-0.2733449,-0.6813585,0.61530674
0.058752708,-0.0061933594,0.0032045143,-0.26483622,-0.66014916,0.59615344
0.05692385,-0.006000573,0.003104764,-0.2565924,-0.63960004,0.57759637
0.055151932,-0.005813787,0.0030081193,-0.2486052,-0.61969066,0.559617
0.05343517,-0.005632817,0.002914483,-0.24086666,-0.600401,0.5421973
0.051771853,-0.0054574795,0.0028237617,-0.23336902,-0.5817118,0.52531993
0.050160315,-0.0052876007,0.0027358644,-0.22610478,-0.5636045,0.50896794
0.04859894,-0.0051230104,0.0026507033,-0.21906666,-0.5460608,0.49312493
0.04708617,-0.0049635433,0.0025681932,-0.21224765,-0.5290632,0.47777516
0.045620497,-0.00480904,0.0024882518,-0.2056409,-0.5125948,0.46290317
0.044200443,-0.004659347,0.0024107988,-0.19923982,-0.496639,0.44849417
0.042824596,-0.0045143133,0.0023357568,-0.19303799,-0.48117992,0.4345337
