ax,ay,az,gx,gy,gz
2.2536569,9.074628,3.1709378,-71.79974,-76.01705,-35.789417
2.6664407,10.163532,3.5249825,-98.078445,-70.94361,-51.104294
3.072841,10.384728,3.5873592,-112.81435,-59.950275,-64.609955
3.4170794,10.179401,3.3522558,-118.63652,-47.14163,-75.37464
3.651071,9.779774,2.889124,-121.60216,-35.527966,-81.16787
3.8125772,9.118679,2.3365326,-122.78059,-24.961771,-82.66425
3.7703905,8.514561,1.7688303,-121.57288,-16.311533,-84.55135
3.5636213,7.958168,1.2922016,-119.02754,-9.007777,-87.509735
3.2452755,7.4465017,0.92960757,-116.91996,-3.3152616,-91.75887
2.8966465,6.894618,0.6574494,-117.01562,0.4110883,-96.861275
2.6037018,6.2305336,0.39166623,-118.02797,1.9554389,-101.444336
2.472947,5.487589,0.13530315,-119.00193,2.2812324,-104.40444
2.4764786,4.703594,-0.11411885,-119.26256,1.9858005,-106.104416
2.551741,3.8816504,-0.31425455,-118.76313,2.0199738,-106.99145
2.6443696,3.0355265,-0.49436748,-116.43818,2.5373218,-107.25058
2.7434218,2.1630652,-0.66393113,-113.00947,2.9637127,-106.38822
2.830057,1.3345927,-0.807312,-108.52122,3.3845775,-103.900444
2.8720326,0.5961565,-0.93626446,-103.27827,3.7939022,-100.174446
2.8630862,-0.04519697,-1.0444564,-97.29381,4.286097,-95.63233
2.8109212,-0.5741515,-1.115391,-90.75276,4.8028955,-90.358665
2.7131279,-0.9942964,-1.127944,-84.164185,5.4860864,-84.93587
2.588471,-1.3491871,-1.1111331,-77.62371,6.116755,-79.50512
2.4678278,-1.6371875,-1.0521982,-71.28339,6.7231803,-73.76326
2.3699176,-1.8636237,-0.94798267,-65.24772,7.177866,-67.69893
2.3088448,-2.0219958,-0.7863125,-59.533,7.844173,-61.23181
2.2917302,-2.061639,-0.564085,-53.867374,8.735647,-55.175117
2.2982264,-2.0437794,-0.32215044,-48.652405,10.189139,-50.041435
2.337334,-2.0239444,-0.08330175,-43.75076,12.528492,-45.494923
2.396791,-2.0000463,0.12410696,-39.141037,15.650345,-41.19646
2.4616253,-1.9729913,0.28650427,-34.8771,19.523495,-36.474846
2.5170126,-1.9237908,0.3867903,-30.369001,23.949942,-31.286348
2.5253942,-1.8418108,0.41935012,-25.778172,28.386927,-26.409828
2.4701097,-1.7355635,0.38419795,-21.282804,32.35358,-22.326406
2.3520503,-1.6006211,0.30021963,-17.39696,35.609806,-19.195524
2.2058728,-1.4499942,0.1912008,-14.585683,38.050217,-16.840616
2.0643637,-1.2971027,0.059218183,-12.825085,39.498943,-14.52132
1.9530009,-1.1352948,-0.06318322,-12.049155,40.27888,-12.035283
1.8739228,-0.9835928,-0.19655527,-11.874849,40.7763,-9.7584505
1.8096265,-0.8374196,-0.35676533,-11.727003,41.227234,-8.04682
1.7467836,-0.69377404,-0.554558,-11.231245,41.583263,-7.23258
1.6506293,-0.55239916,-0.81634086,-10.873235,41.53398,-6.975137
1.5222601,-0.42923957,-1.1219499,-10.224857,40.83668,-7.064272
1.3784466,-0.3195287,-1.4475739,-9.461925,39.39321,-7.0691695
1.2297306,-0.21881299,-1.7882308,-8.624466,37.18577,-6.817685
1.0634156,-0.12690708,-2.1448472,-7.5022497,33.782112,-6.517108
0.86699474,-0.03221682,-2.510456,-6.034718,29.5561,-6.4200134
0.6542385,0.073616594,-2.8624687,-4.2653704,24.497438,-6.6197567
0.43191177,0.19041389,-3.1846123,-2.5134583,18.714773,-6.9830475
0.20852838,0.3190038,-3.4731321,-1.0397813,11.971186,-7.50036
0.009694336,0.4512991,-3.7149007,-0.118840165,3.9790015,-8.237297
-0.12378796,0.54855853,-3.897369,0.4636247,-4.7537694,-9.237841
-0.16299523,0.571731,-3.9952562,1.0933233,-14.064217,-10.046248
-0.0693217,0.565259,-3.9492126,1.819384,-23.371447,-9.930852
0.14563254,0.6091571,-3.731102,2.0897968,-31.939037,-9.379228
0.44833204,0.6850473,-3.3599033,1.7941062,-38.289406,-9.842908
0.8411037,0.73223776,-2.8913527,1.1971076,-42.88322,-10.962285
1.2991977,0.703753,-2.4088771,0.06792403,-45.83837,-11.426687
1.7684985,0.61920714,-1.9463578,-1.4425417,-47.27656,-10.764161
2.1895597,0.5187743,-1.5344815,-2.8669803,-46.878597,-9.55509
2.5164747,0.40881583,-1.2073697,-3.3322508,-44.512653,-8.585785
2.6946247,0.304911,-0.98599094,-3.184351,-41.512436,-7.7081532
2.7645183,0.22356364,-0.8222865,-2.8597162,-38.332508,-6.5962973
2.7425897,0.17009114,-0.70247364,-2.447733,-35.3736,-5.2607384
2.6600263,0.14964558,-0.60469496,-2.0440805,-32.603508,-3.953612
2.539951,0.14376909,-0.52365774,-1.6994591,-29.749825,-3.0193155
2.405833,0.13960232,-0.4526113,-1.5488527,-26.654514,-2.1149528
2.2649233,0.14541575,-0.38964942,-1.5461653,-23.26917,-1.1845365
2.114697,0.17598563,-0.34688896,-1.3756492,-19.968868,-0.60577416
1.9574482,0.21421486,-0.32527107,-0.5149544,-17.296053,-1.0230721
1.844363,0.21165706,-0.30252707,0.9066253,-15.748071,-2.1192453
1.7856389,0.20491794,-0.29289466,0.8777585,-15.246655,-2.051769
1.7288635,0.19840245,-0.2835819,0.84984964,-14.761879,-1.9865317
1.6739647,0.19210234,-0.274577,0.82286334,-14.293127,-1.9234511
1.6208743,0.18600973,-0.26586866,0.7967659,-13.839815,-1.862448
1.5695266,0.18011713,-0.25744623,0.77152514,-13.401383,-1.8034475
1.5198591,0.17441735,-0.24929936,0.7471103,-12.977298,-1.7463776
1.471812,0.16890351,-0.24141829,0.723492,-12.567048,-1.6911695
1.4253279,0.16356905,-0.2337936,0.70064205,-12.170144,-1.6377575
1.380352,0.15840767,-0.2264163,0.6785335,-11.7861185,-1.5860785
1.3368318,0.15341334,-0.21927778,0.65714043,-11.414522,-1.5360721
1.2947168,0.14858027,-0.21236974,0.6364382,-11.054924,-1.4876803
1.2539587,0.14390291,-0.20568427,0.61640286,-10.706911,-1.4408476
1.2145109,0.13937594,-0.19921374,0.59701174,-10.370087,-1.3955207
1.176329,0.13499421,-0.19295083,0.5782428,-10.04407,-1.3516481
1.13937,0.13075283,-0.18688852,0.560075,-9.728497,-1.3091807
1.1035926,0.12664707,-0.18102004,0.5424881,-9.423012,-1.2680712
1.0689574,0.12267237,-0.17533888,0.5254626,-9.127279,-1.2282739
1.035426,0.11882435,-0.1698388,0.50897974,-8.840973,-1.1897451
1.0029619,0.1150988,-0.16451378,0.49302152,-8.563778,-1.1524426
0.9715296,0.111491665,-0.15935801,0.47757047,-8.295394,-1.1163256
0.9410951,0.107999034,-0.1543659,0.46260992,-8.035529,-1.0813551
0.91162556,0.10461714,-0.14953206,0.4481237,-7.7839036,-1.0474935
0.8830893,0.10134235,-0.14485133,0.43409625,-7.540247,-1.0147042
0.8554559,0.09817117,-0.14031866,0.42051262,-7.304299,-0.98295224
0.8286958,0.09510021,-0.13592926,0.40735826,-7.0758085,-0.95220387
0.8027807,0.09212622,-0.13167846,0.39461932,-6.8545327,-0.9224264
0.7776832,0.089246064,-0.12756178,0.38228223,-6.6402383,-0.8935884
0.75337684,0.08645669,-0.12357485,0.3703341,-6.4326987,-0.8656595
0.7298361,0.08375518,-0.119713515,0.35876226,-6.231696,-0.83861023
0.7070363,0.08113871,-0.11597371,0.34755468,-6.0370207,-0.8124124
0.6849537,0.07860453,-0.112351544,0.33669963,-5.848469,-0.7870386
0.6635652,0.076150015,-0.10884324,0.3261858,-5.6658435,-0.76246244
0.6428487,0.0737726,-0.10544515,0.31600225,-5.4889555,-0.7386583
0.6227826,0.07146984,-0.10215375,0.30613846,-5.3176217,-0.7156016
0.6033462,0.06923934,-0.09896564,0.2965842,-5.1516643,-0.6932684
0.58451945,0.06707881,-0.09587752,0.2873296,-4.990912,-0.67163575
0.5662829,0.064986005,-0.092886224,0.27836516,-4.8352,-0.65068126
0.5486179,0.062958784,-0.089988664,0.26968163,-4.684367,-0.63038343
0.5315062,0.060995065,-0.087181866,0.26127014,-4.538259,-0.6107214
0.5149303,0.059092835,-0.08446296,0.253122,-4.396726,-0.5916751
0.49887326,0.057250142,-0.08182915,0.2452289,-4.259623,-0.5732249
0.48331863,0.055465113,-0.07927776,0.23758277,-4.12681,-0.55535203
0.46825057,0.053735916,-0.07680617,0.23017584,-3.9981515,-0.53803825
0.45365366,0.052060794,-0.07441188,0.22300051,-3.8735163,-0.5212658
0.43951312,0.05043804,-0.07209243,0.21604949,-3.7527773,-0.50501776
0.4258145,0.048866,-0.069845475,0.20931573,-3.6358118,-0.48927754
0.4125439,0.047343083,-0.06766873,0.20279236,-3.522501,-0.4740291
0.39968786,0.045867737,-0.065559976,0.19647278,-3.41273,-0.459257
0.38723335,0.04443847,-0.063517086,0.19035056,-3.3063872,-0.4449463
0.37516773,0.043053832,-0.06153799,0.18441951,-3.2033648,-0.4310824
0.36347878,0.041712422,-0.059620675,0.17867364,-3.103559,-0.41765133
0.35215467,0.04041288,-0.057763208,0.1731071,-3.0068684,-0.4046395
0.341184,0.039153896,-0.055963706,0.16771428,-2.9131951,-0.39203376
0.33055562,0.037934195,-0.054220356,0.16248974,-2.822445,-0.37982133
0.32025883,0.036752548,-0.0525314,0.1574282,-2.7345262,-0.36798993
0.31028324,0.035607763,-0.050895125,0.15252455,-2.6493497,-0.3565276
0.30061883,0.034498684,-0.049309887,0.14777385,-2.56683,-0.34542277
0.29125577,0.03342419,-0.047774084,0.1431713,-2.4868836,-0.3346643
0.2821847,0.032383204,-0.046286173,0.13871226,-2.4094305,-0.32424125
0.27339643,0.03137467,-0.044844653,0.13439226,-2.334392,-0.3141432
0.26488215,0.030397583,-0.043448076,0.13020694,-2.261693,-0.30435997
0.2566333,0.029450953,-0.04209503,0.12615208,-2.19126,-0.2948817
0.24864155,0.02853383,-0.04078416,0.122223616,-2.1230228,-0.2856989
0.24089889,0.02764529,-0.03951415,0.11841759,-2.0569122,-0.27680227
0.23339753,0.026784442,-0.038283717,0.11473018,-1.9928619,-0.2681829
0.22612993,0.02595042,-0.037091628,0.11115768,-1.9308076,-0.25983214
0.2190888,0.025142387,-0.035936683,0.107696496,-1.8706869,-0.2517416
0.21226704,0.024359532,-0.034817725,0.10434316,-1.8124394,-0.24390315
0.20565784,0.023601066,-0.033733632,0.1010943,-1.7560068,-0.2363089
0.19925453,0.02286623,-0.03268331,0.09794666,-1.7013323,-0.22895126
0.19305071,0.022154287,-0.031665713,0.09489708,-1.6483611,-0.22182283
0.18704015,0.021464521,-0.03067981,0.09194249,-1.5970399,-0.21491645
0.1812168,0.020796241,-0.02972462,0.08907994,-1.5473175,-0.2082252
0.17557485,0.020148776,-0.028799184,0.08630655,-1.4991437,-0.20174238
0.17010865,0.019521479,-0.02790257,0.08361954,-1.4524705,-0.19546148
0.16481267,0.01891372,-0.027033882,0.08101623,-1.4072509,-0.1893762
0.15968163,0.018324887,-0.026192252,0.07849399,-1.3634397,-0.18348046
0.15471041,0.017754395,-0.02537683,0.076050304,-1.320993,-0.17776832
0.149894,0.01720167,-0.024586804,0.07368272,-1.279868,-0.17223407
0.14522757,0.016666155,-0.02382138,0.07138886,-1.2400237,-0.16687216
0.14070646,0.016147317,-0.02307979,0.069166444,-1.2014203,-0.16167723
0.13632613,0.015644636,-0.022361295,0.06701323,-1.164019,-0.15664406
0.13208221,0.015157608,-0.021665173,0.064927064,-1.1277823,-0.15176763
0.12797044,0.014685745,-0.020990727,0.062905855,-1.092674,-0.14704303
0.12398669,0.014228575,-0.020337282,0.060947582,-1.0586588,-0.14246556
0.120126985,0.01378564,-0.019704182,0.059050284,-1.0257027,-0.1380306
0.11638746,0.013356496,-0.019090796,0.057212062,-0.99377286,-0.13373375
0.11276436,0.012940713,-0.018496506,0.05543107,-0.9628371,-0.12957066
0.10925407,0.012537876,-0.017920721,0.053705536,-0.93286455,-0.1255372
0.10585307,0.012147581,-0.017362861,0.052033722,-0.90382516,-0.12162933
0.10255796,0.011769438,-0.016822372,0.05041396,-0.87568986,-0.117843114
0.099365436,0.011403068,-0.016298708,0.048844624,-0.8484306,-0.114174776
0.09627231,0.011048104,-0.01579135,0.047324147,-0.8220199,-0.11062065
0.09327548,0.0107041905,-0.015299785,0.045851007,-0.7964315,-0.107177176
0.090371944,0.010370985,-0.014823524,0.044423733,-0.7716397,-0.1038409
0.087558806,0.010048151,-0.01436209,0.04304089,-0.74761975,-0.10060849
0.08483324,0.009735369,-0.013915022,0.041701097,-0.7243476,-0.09747671
0.08219253,0.009432324,-0.013481872,0.040403016,-0.7017999,-0.094442435
0.079634026,0.009138713,-0.013062206,0.039145343,-0.6799542,-0.091502614
0.07715517,0.008854242,-0.012655605,0.037926823,-0.6587885,-0.08865432
0.07475349,0.008578627,-0.012261661,0.036746237,-0.63828176,-0.08589469
0.07242657,0.008311593,-0.0118799815,0.035602406,-0.6184133,-0.083220966
0.07017209,0.008052871,-0.011510183,0.03449418,-0.5991635,-0.080630474
0.067987785,0.007802203,-0.011151897,0.03342045,-0.5805129,-0.07812063
0.065871485,0.007559338,-0.010804763,0.03238015,-0.56244284,-0.07568891
0.063821055,0.007324034,-0.010468436,0.03137223,-0.5449353,-0.07333289
0.061834462,0.0070960545,-0.01014258,0.030395688,-0.52797276,-0.07105022
0.059909705,0.006875172,-0.009826866,0.029449547,-0.51153827,-0.0688386
0.058044866,0.0066611646,-0.0095209805,0.028532855,-0.49561536,-0.066695824
0.056238078,0.0064538196,-0.009224616,0.027644701,-0.48018813,-0.06461976
