ax,ay,az,gx,gy,gz
0.42636752,0.35636687,0.87000793,-29.74118,-10.764643,-4.383676
0.6610907,0.24374586,0.836175,-29.849253,-11.306556,-4.1270146
0.804547,-0.13492246,0.9789578,-25.942741,-6.192922,-3.542726
0.8384414,-0.34914812,0.9045466,-26.509779,-2.9286764,0.3427937
0.65130645,-0.29821345,0.7063417,-29.576578,-2.603774,2.9246078
0.4192389,-0.23065826,0.53880936,-33.5403,-3.8395245,2.824386
0.37039205,-0.32476428,0.5117184,-36.985405,-3.6312106,2.1773481
0.47112668,-0.47333074,0.5862735,-39.00292,-1.1040474,1.374552
0.57308215,-0.63799655,0.6397572,-39.236095,2.7392154,1.1377224
0.66628534,-0.9210952,0.6398838,-37.968613,6.6384926,2.1036873
0.7679288,-1.3332698,0.5565065,-34.45553,9.771004,4.3384056
0.9223214,-1.8549039,0.41784245,-29.27854,11.968513,8.055621
1.1406689,-2.331501,0.30762628,-23.467154,14.111159,12.9486885
1.3535258,-2.733029,0.19039029,-17.402819,16.575418,18.60689
1.5710878,-3.1723964,0.02196717,-10.118771,19.731426,25.058243
1.7685001,-3.5453303,-0.16327317,-1.9491816,23.258163,32.78951
1.9137523,-3.789081,-0.3710405,6.4290423,26.498337,41.368927
1.9944502,-3.9267225,-0.6106602,15.166027,28.956354,50.041252
2.0297961,-3.967977,-0.8717597,23.86036,29.823385,58.95396
2.0113423,-3.8280106,-1.1338571,31.106308,29.32073,67.49724
1.9719362,-3.6037743,-1.3863649,37.234,28.02396,75.41162
1.9090953,-3.3502297,-1.6546403,42.52656,26.053375,82.40349
1.8131877,-3.1139026,-1.9737147,47.75215,22.969194,88.06343
1.6956668,-2.91383,-2.3173935,54.117233,18.17279,92.29418
1.578599,-2.6238537,-2.638158,60.631065,12.103173,95.79023
1.4154305,-2.1396992,-2.8851926,65.32841,4.2857428,98.84522
1.1788837,-1.4622345,-3.0373306,68.16915,-4.8967185,99.87174
0.95056313,-0.73760164,-3.0891943,69.59556,-14.438269,98.170906
0.80308807,-0.05488376,-3.0727785,70.45702,-22.926582,92.89718
0.75969845,0.5014051,-2.98935,71.73632,-29.601788,86.79469
0.724881,1.1090693,-2.8435552,71.9807,-35.150234,80.24515
0.66775835,1.7960205,-2.669424,70.17936,-40.358307,72.974205
0.6073368,2.4784923,-2.5172083,65.80989,-45.9417,64.62856
0.5819078,3.0347428,-2.4159312,60.051666,-51.582237,54.28476
0.7128247,3.3392982,-2.2739913,54.941555,-54.93118,43.681408
0.9302357,3.5330927,-2.0798028,49.081657,-56.198513,33.66532
1.1424481,3.6380084,-1.9048439,42.303562,-56.005146,24.82248
1.2523035,3.6551242,-1.842402,34.894714,-55.789394,17.156818
1.2893198,3.6192377,-1.8621943,27.156837,-56.986935,10.599974
1.3711421,3.439289,-1.8890996,19.506376,-58.855663,5.3850045
1.542064,3.1371787,-1.8667933,12.292206,-60.423996,2.1205945
1.7617359,2.7409048,-1.818877,6.066886,-61.10275,0.6586487
1.9812211,2.315896,-1.757256,1.2716001,-60.583797,-0.024586996
2.1785161,1.892443,-1.6972872,-2.174589,-58.836613,-0.23252076
2.3481474,1.4485106,-1.650936,-4.7047505,-56.435455,0.13238218
2.4975321,1.0004276,-1.6000643,-6.225311,-53.21023,1.0779833
2.6207702,0.55960953,-1.5547427,-6.619265,-49.258526,2.357456
2.7125592,0.15833819,-1.5004237,-5.8249183,-44.53995,3.9743433
2.7822292,-0.19717546,-1.4378461,-4.0156684,-38.96351,6.034246
2.8368416,-0.5143124,-1.3894356,-1.8929174,-33.230576,8.6378
2.9074044,-0.8013548,-1.3456429,0.50944084,-27.15897,11.944801
2.9908254,-1.0619166,-1.3191075,3.2639084,-20.681816,16.26968
3.0550733,-1.3001125,-1.3416872,6.2684517,-14.143004,21.43741
3.0855727,-1.4933982,-1.4286796,9.785368,-8.406254,27.663542
3.065942,-1.5989629,-1.5604719,13.565751,-3.4873857,34.325394
3.0037694,-1.6287973,-1.7275424,17.241222,-0.05885848,41.082417
2.906245,-1.6000968,-1.9069359,20.784689,2.0444522,47.78172
2.7782261,-1.5277312,-2.1162255,24.316137,2.6615503,54.020927
2.6282005,-1.4262358,-2.3534968,29.061054,1.5177726,59.05958
2.4772842,-1.2030393,-2.5556927,34.04293,-0.59130913,62.774067
2.3550115,-0.8924099,-2.694337,38.270245,-3.5875623,65.43963
2.253121,-0.5412073,-2.7896721,41.536846,-7.093898,67.8715
2.1331518,-0.14358988,-2.8812401,44.05276,-11.174654,69.8243
1.9920155,0.28627235,-2.9848964,45.944485,-16.771494,69.76329
1.8284731,0.7765032,-3.070226,46.779552,-23.609737,68.294395
1.7198329,1.2931865,-3.056155,46.384785,-30.0813,66.03686
1.6532104,1.8467458,-2.998079,44.260586,-36.192303,62.87206
1.5553119,2.3695152,-2.978562,41.421227,-42.41712,57.717094
1.4472586,2.8433821,-2.9905524,38.42002,-49.280636,49.55223
1.4169897,3.2037556,-3.0129833,34.00506,-56.873997,40.87625
1.4701306,3.4159117,-3.0105958,28.621714,-64.445625,32.664223
1.5912042,3.5735571,-2.9048247,22.14006,-70.659836,25.26226
1.782739,3.6506388,-2.7303727,15.643972,-74.07542,17.60301
2.0647924,3.5872195,-2.5293486,9.6464,-73.64056,9.499153
2.3577347,3.3849103,-2.406613,4.3368278,-71.85295,2.6899676
2.5635614,3.1431777,-2.3728602,-0.90330696,-70.22622,-2.3029613
2.7206283,2.8293195,-2.3824117,-5.9396725,-69.36261,-5.788157
2.9076421,2.4709384,-2.3318028,-10.791002,-68.51746,-7.5041127
3.1462703,2.064705,-2.1949563,-15.169064,-65.81999,-6.2735376
3.4026818,1.6766002,-1.9843799,-19.82687,-60.956432,-3.0699265
3.295485,1.6237813,-1.9218647,-19.202251,-59.036087,-2.973213
3.1917422,1.5726641,-1.8613638,-18.597757,-57.17761,-2.879615
3.0913343,1.5231904,-1.8028079,-18.0127,-55.378883,-2.7890265
2.9941487,1.4753041,-1.7461311,-17.446413,-53.637875,-2.7013447
2.9000757,1.4289516,-1.6912694,-16.898266,-51.95263,-2.6164713
2.8090105,1.3840811,-1.6381619,-16.367643,-50.321266,-2.5343115
2.7208521,1.340643,-1.5867497,-15.85396,-48.741978,-2.4547746
2.6355038,1.2985893,-1.5369761,-15.356648,-47.213028,-2.3777726
2.5528717,1.2578741,-1.4887867,-14.875165,-45.73274,-2.3032212
2.472866,1.218453,-1.4421289,-14.408985,-44.2995,-2.2310395
2.3954,1.1802833,-1.3969522,-13.957604,-42.911755,-2.161149
2.3203902,1.1433238,-1.3532078,-13.520534,-41.568012,-2.0934746
2.247756,1.1075348,-1.310849,-13.097306,-40.266823,-2.0279434
2.1774197,1.072878,-1.2698301,-12.687468,-39.0068,-1.9644854
2.1093063,1.0393167,-1.2301078,-12.290583,-37.786606,-1.903033
2.0433438,1.006815,-1.1916397,-11.90623,-36.60494,-1.8435211
1.9794624,0.9753387,-1.1543852,-11.534003,-35.46055,-1.7858868
1.9175947,0.9448547,-1.1183051,-11.17351,-34.352238,-1.7300692
1.8576757,0.9153308,-1.0833614,-10.824371,-33.278835,-1.6760098
1.7996427,0.8867363,-1.0495176,-10.486222,-32.239216,-1.6236519
1.743435,0.85904115,-1.0167384,-10.1587105,-31.2323,-1.572941
1.6889943,0.83221656,-0.9849896,-9.841493,-30.257036,-1.5238241
1.6362637,0.8062347,-0.9542382,-9.534241,-29.31241,-1.4762502
1.5851889,0.7810687,-0.9244523,-9.236636,-28.397442,-1.43017
1.5357169,0.75669235,-0.8956011,-8.94837,-27.511189,-1.385536
1.4877964,0.73308057,-0.86765486,-8.669147,-26.652733,-1.3423018
1.4413785,0.7102091,-0.84058475,-8.398676,-25.82119,-1.3004231
1.3964151,0.6880543,-0.81436294,-8.136682,-25.015703,-1.2598568
1.3528601,0.6665935,-0.7889625,-7.882894,-24.23545,-1.2205611
1.310669,0.6458047,-0.7643574,-7.637053,-23.479628,-1.182496
1.2697984,0.6256666,-0.7405225,-7.398907,-22.747463,-1.1456223
1.2302067,0.6061586,-0.71743333,-7.168213,-22.03821,-1.1099023
1.1918534,0.58726084,-0.69506645,-6.9447346,-21.35114,-1.0752996
1.1546996,0.56895405,-0.673399,-6.728245,-20.685556,-1.041779
1.1187071,0.5512195,-0.6524089,-6.5185227,-20.04078,-1.0093064
1.0838395,0.53403926,-0.6320748,-6.3153553,-19.416153,-0.97784865
1.0500615,0.51739585,-0.61237603,-6.118536,-18.811045,-0.9473738
1.0173386,0.5012723,-0.59329265,-5.927865,-18.22484,-0.917851
0.98563766,0.48565236,-0.5748053,-5.7431493,-17.656942,-0.88925016
0.95492667,0.47052014,-0.5568952,-5.564201,-17.106777,-0.8615424
0.9251744,0.45586032,-0.5395443,-5.3908396,-16.57379,-0.8346997
0.8963508,0.4416581,-0.5227349,-5.2228894,-16.057436,-0.80869484
0.86842674,0.42789912,-0.5064501,-5.06018,-15.557199,-0.7835015
0.84137404,0.41456944,-0.49067345,-4.9025483,-15.07257,-0.75909436
0.8151653,0.40165564,-0.47538903,-4.7498345,-14.603061,-0.7354486
0.7897741,0.38914466,-0.46058136,-4.6018844,-14.148197,-0.7125405
0.76517487,0.3770239,-0.44623557,-4.4585485,-13.7075205,-0.6903469
0.74134284,0.36528116,-0.43233716,-4.319683,-13.280588,-0.6688454
0.7182539,0.35390458,-0.41887212,-4.185148,-12.866967,-0.64801437
0.6958849,0.34288272,-0.40582693,-4.054807,-12.466244,-0.6278329
0.67421323,0.33220446,-0.39318842,-3.9285297,-12.078012,-0.60828054
0.65321714,0.32185906,-0.3809439,-3.806189,-11.701883,-0.5893377
0.6328755,0.31183615,-0.36908105,-3.6876616,-11.337479,-0.5709853
0.6131678,0.30212563,-0.3575879,-3.5728285,-10.984431,-0.5532049
0.59407437,0.29271773,-0.34645298,-3.4615738,-10.642386,-0.5359786
0.5755759,0.28360298,-0.33566502,-3.3537865,-10.311001,-0.51928914
0.55765384,0.2747723,-0.32521322,-3.2493577,-9.989941,-0.50311977
0.54029024,0.26621673,-0.31508708,-3.1481826,-9.6788845,-0.48745415
0.5234676,0.25792772,-0.30527642,-3.05016,-9.377521,-0.47227663
0.50716907,0.24989694,-0.29577145,-2.9551911,-9.085545,-0.45757198
0.49137828,0.24211638,-0.28656256,-2.8631806,-8.802665,-0.4433254
0.4760794,0.23457816,-0.27764052,-2.7740366,-8.528597,-0.42952263
0.46125707,0.22727478,-0.26899642,-2.6876693,-8.263066,-0.4161498
0.44689643,0.22019887,-0.26062158,-2.6039922,-8.005807,-0.4031935
0.43298307,0.21334335,-0.25250757,-2.5229213,-7.7565594,-0.3906408
0.41950306,0.20670137,-0.24464628,-2.4443758,-7.5150757,-0.378479
0.40644288,0.20026623,-0.23702984,-2.3682761,-7.2811127,-0.36669603
0.39378947,0.19403152,-0.22965059,-2.2945466,-7.0544357,-0.35527998
0.38153008,0.18799096,-0.22250114,-2.2231133,-6.8348184,-0.34421948
0.36965248,0.18213852,-0.21557435,-2.1539044,-6.6220403,-0.3335034
0.35814476,0.17646833,-0.20886326,-2.0868506,-6.4158883,-0.32312104
0.34699535,0.17097472,-0.20236115,-2.0218852,-6.2161555,-0.31306198
0.33619317,0.16565216,-0.19606152,-1.9589425,-6.0226426,-0.30331615
0.32572734,0.16049533,-0.18995804,-1.8979597,-5.835155,-0.2938738
0.31558737,0.15549907,-0.1840446,-1.8388759,-5.6535053,-0.28472543
0.30576313,0.15065838,-0.1783153,-1.7816317,-5.477512,-0.27586195
0.2962448,0.14596842,-0.17276438,-1.7261698,-5.3069983,-0.2672744
0.2870228,0.14142449,-0.1673863,-1.6724349,-5.1417933,-0.25895426
0.27808794,0.13702202,-0.16217566,-1.6203729,-4.9817324,-0.25089318
0.2694313,0.13275664,-0.15712725,-1.5699319,-4.8266544,-0.24308304
0.2610441,0.12862404,-0.15223601,-1.5210613,-4.6764054,-0.23551609
0.2529181,0.1246201,-0.14749706,-1.4737123,-4.5308337,-0.22818471
0.24504505,0.12074082,-0.14290565,-1.4278374,-4.389794,-0.2210816
0.23741712,0.11698232,-0.1384572,-1.3833907,-4.2531457,-0.21419962
0.23002666,0.113340825,-0.13414721,-1.3403276,-4.120751,-0.20753188
0.22286628,0.1098127,-0.12997141,-1.2986053,-3.9924784,-0.20107174
0.21592882,0.10639441,-0.12592562,-1.2581818,-3.868199,-0.1948127
0.20920734,0.10308254,-0.122005776,-1.2190169,-3.747789,-0.18874852
0.2026951,0.09987377,-0.11820796,-1.181071,-3.631127,-0.18287313
0.19638559,0.09676489,-0.11452837,-1.1443067,-3.5180972,-0.17718065
0.1902725,0.093752794,-0.11096333,-1.1086867,-3.4085858,-0.17166537
0.18434972,0.09083446,-0.10750928,-1.0741756,-3.3024836,-0.16632178
0.17861131,0.08800698,-0.104162745,-1.0407388,-3.1996844,-0.16114454
0.17305154,0.08526752,-0.10092039,-1.0083429,-3.1000853,-0.15612847
0.16766483,0.08261334,-0.09777897,-0.9769555,-3.0035868,-0.15126854
0.16244581,0.08004178,-0.09473534,-0.9465452,-2.910092,-0.14655991
0.15738927,0.07755027,-0.09178646,-0.9170815,-2.819508,-0.14199786
0.15249014,0.075136326,-0.08892937,-0.888535,-2.7317436,-0.13757782
0.1477435,0.072797514,-0.08616122,-0.86087716,-2.6467113,-0.13329536
0.14314462,0.07053152,-0.08347924,-0.8340802,-2.564326,-0.12914622
