ax,ay,az,gx,gy,gz
-0.009090992,-1.0045546,-0.6609151,-52.545933,9.210993,-56.15324
0.10911617,-1.8504957,-0.38269883,-50.629135,18.781313,-51.1507
0.60578465,-2.4895577,0.03311837,-40.007275,38.09716,-40.952003
0.83938384,-3.1675382,0.01791132,-30.123589,48.165325,-34.124317
1.1883457,-3.9511387,-0.010088897,-16.44846,56.256264,-26.58453
1.6862476,-4.4590044,0.047847282,-5.9791617,61.723675,-16.215506
2.2883787,-4.6695266,0.21728633,-4.7686687,67.75823,-1.9665443
2.7049127,-4.8103313,0.076881796,-9.51548,72.57384,17.118118
2.7450583,-4.9753346,-0.51547354,-11.965847,74.80358,35.710655
2.6906536,-5.111501,-1.1868541,-12.717871,74.56372,53.822258
2.63071,-5.238589,-1.863953,-11.252622,72.134766,72.3371
2.6010983,-5.303842,-2.4800384,-6.8547077,68.3916,90.43555
2.6300304,-5.211984,-2.9893324,2.4776812,64.45995,105.531876
2.660733,-4.9335394,-3.4169235,13.77439,60.26225,116.68909
2.649865,-4.616222,-3.7873,26.163807,55.441044,125.358406
2.58913,-4.265457,-4.1210375,38.66786,49.33118,132.28809
2.5264301,-3.8847015,-4.3978696,51.219894,42.329437,137.63414
2.5122087,-3.4984124,-4.6169953,64.093254,34.62231,141.02203
2.58085,-3.1192853,-4.759355,76.47934,26.992434,143.69678
2.635752,-2.732001,-4.867561,87.780174,19.095581,146.74986
2.6134114,-2.1686447,-4.91917,96.87092,10.440849,150.34984
2.454697,-1.2935152,-4.8679934,102.65098,0.93535155,151.32115
2.2215111,-0.34074125,-4.7131124,104.88679,-8.702819,146.7793
2.0546985,0.47139883,-4.510008,105.24835,-17.804123,139.40216
2.0040603,1.0932351,-4.264137,105.18072,-24.847086,131.7615
1.9681064,1.618044,-4.047271,104.39124,-30.770502,124.3061
1.8829553,2.1140158,-3.872148,102.83203,-36.436966,116.383934
1.7386312,2.6181445,-3.7605088,98.93835,-43.90047,106.659615
1.6445956,3.0927024,-3.6329746,93.397644,-51.863873,95.80292
1.6816257,3.4472725,-3.4631038,87.065384,-58.793808,84.78915
1.7855927,3.6941357,-3.2826133,80.40605,-64.29351,73.9774
1.8694694,3.8551369,-3.136596,73.74944,-68.55168,63.49209
1.9516932,4.0198965,-2.9570794,66.92386,-70.74727,52.255203
2.0467484,4.1535597,-2.7494946,59.113503,-71.8509,41.08101
2.1534772,4.2490726,-2.5312216,50.697666,-71.35738,30.582737
2.2334101,4.29052,-2.3975909,42.199146,-70.25583,20.48155
2.2817693,4.211868,-2.3620913,34.365524,-69.3669,10.876921
2.3388443,4.0235205,-2.3653765,27.2237,-68.8046,2.75845
2.4338574,3.779349,-2.3538332,19.915926,-68.29196,-3.591109
2.5361006,3.4577773,-2.3627613,12.302611,-67.91278,-8.043899
2.6469948,3.039103,-2.3813434,5.2122555,-67.21518,-10.428768
2.764903,2.6006835,-2.3968632,-0.67372596,-65.89443,-11.464661
2.8928866,2.1785986,-2.3924587,-4.4827003,-63.349396,-12.029328
3.0129511,1.7355103,-2.378299,-6.6904635,-60.08602,-12.100176
3.1039553,1.3206965,-2.3496578,-7.8598285,-56.372177,-11.413906
3.1816578,0.9232724,-2.3095684,-8.369338,-52.487408,-9.712867
3.2439363,0.54341483,-2.266024,-8.2152815,-48.6428,-6.7885065
3.306635,0.22113809,-2.1950266,-7.458318,-44.33263,-2.3982284
3.3368208,0.02778415,-2.1122105,-6.8627467,-39.793354,2.2158742
3.340353,-0.10457179,-2.034596,-6.57833,-35.133198,6.3808794
3.322432,-0.24823076,-2.002771,-5.7512584,-30.68338,10.597739
3.292816,-0.37850982,-1.9851923,-4.1714296,-26.40884,14.982158
3.260818,-0.47089702,-1.979941,-2.5762231,-22.71889,19.491486
3.2454567,-0.54437774,-1.9769493,-1.1282575,-19.212273,24.087143
3.2320912,-0.62430227,-1.9946743,0.4478322,-16.013988,28.924372
3.227138,-0.7004925,-2.019964,2.376802,-13.048253,33.968258
3.225029,-0.7389827,-2.0463705,4.715108,-10.144517,39.018898
3.2054298,-0.74488235,-2.0942724,7.8790617,-7.6337385,43.843033
3.1520011,-0.7621357,-2.1813931,11.888785,-5.737314,49.140427
3.0921974,-0.74744093,-2.2836587,16.533382,-4.516638,55.83608
3.0358992,-0.6748287,-2.3983324,21.468208,-3.8227305,63.546623
2.9775546,-0.55266315,-2.53721,26.920383,-3.8175235,71.61605
2.898971,-0.38184005,-2.701735,33.058823,-5.3589873,79.13468
2.7874403,-0.14133808,-2.8809228,39.030495,-8.523951,86.06887
2.660177,0.20760295,-3.015639,43.432304,-13.441888,92.69234
2.5212994,0.72104007,-3.0483377,45.298798,-19.44032,97.49052
2.3601525,1.3265218,-3.0109267,45.394306,-25.436588,98.25674
2.2205079,1.8411407,-2.9773707,46.712795,-30.015825,92.41107
2.1266603,2.1940417,-2.9918585,49.101955,-34.390453,83.906204
2.0588477,2.5110278,-2.9932022,49.188595,-39.96353,76.28147
1.9919254,2.797808,-3.0053267,45.02419,-47.461433,70.93766
1.9231219,3.0727825,-3.038193,37.91233,-56.67639,66.582375
1.9255632,3.338985,-3.0236118,30.54909,-64.85995,60.409657
1.9980468,3.5048885,-2.9771926,26.227484,-71.19244,52.16963
2.0621002,3.6228964,-2.9095519,22.925566,-76.14534,43.198524
2.1226654,3.7827697,-2.7923534,18.905033,-80.153946,34.70638
2.1658275,3.9524117,-2.688494,12.839183,-83.75586,26.356236
2.2165234,4.0234604,-2.6436305,5.6328807,-86.59866,17.150042
2.3431675,3.9928377,-2.5802803,-1.56494,-88.1282,7.381672
2.5333097,3.8524785,-2.5192957,-7.8909135,-88.48632,-2.1109633
2.7902746,3.5343719,-2.4518373,-13.433876,-87.648445,-9.216597
3.078878,3.1132474,-2.3770766,-18.533098,-85.89604,-12.408056
3.36031,2.6514595,-2.2911608,-23.886967,-82.99994,-10.658298
3.6507573,2.2177243,-2.1717536,-30.0534,-78.98406,-6.2380238
3.938217,1.803914,-2.0420325,-36.78364,-73.50516,1.0667282
3.814553,1.7472693,-1.9779108,-35.6286,-71.19703,1.0332319
3.6948369,1.6924329,-1.9158359,-34.51043,-68.96257,1.0008049
3.578936,1.6393442,-1.8557394,-33.4279,-66.79933,0.9694113
3.4667244,1.5879451,-1.7975556,-32.379818,-64.70495,0.939017
3.358079,1.5381798,-1.7412212,-31.365051,-62.677128,0.9095887
3.2528825,1.4899942,-1.686675,-30.382498,-60.71368,0.8810946
3.1510215,1.4433364,-1.6338582,-29.431097,-58.812485,0.8535039
3.0523863,1.3981562,-1.5827142,-28.509827,-56.9715,0.826787
2.9568715,1.3544053,-1.5331882,-27.617702,-55.188763,0.8009153
2.8643758,1.3120372,-1.4852276,-26.753777,-53.462364,0.7758614
2.7748005,1.2710071,-1.4387814,-25.917128,-51.79048,0.75159854
2.6880515,1.2312713,-1.3938004,-25.106874,-50.171345,0.72810113
2.6040368,1.1927881,-1.3502375,-24.322165,-48.60325,0.70534444
2.5226686,1.1555171,-1.3080466,-23.56217,-47.084545,0.6833046
2.4438615,1.1194192,-1.2671838,-22.826097,-45.613644,0.66195846
2.3675332,1.0844568,-1.2276063,-22.113178,-44.18901,0.64128375
2.2936041,1.0505934,-1.1892729,-21.422668,-42.809155,0.6212589
2.2219977,1.0177938,-1.1521437,-20.753853,-41.472652,0.60186315
2.1526396,0.9860241,-1.1161803,-20.106035,-40.178112,0.5830764
2.085458,0.95525134,-1.0813456,-19.478546,-38.924194,0.56487924
2.0203836,0.92544377,-1.0476032,-18.87074,-37.70961,0.5472528
1.9573493,0.8965707,-1.0149189,-18.281988,-36.5331,0.53017896
1.8962903,0.8686024,-0.98325884,-17.711687,-35.39346,0.51364017
1.837144,0.84151024,-0.95259047,-17.15925,-34.289516,0.49761945
1.7798496,0.8152663,-0.9228824,-16.624111,-33.220142,0.48210037
1.7243487,0.7898439,-0.8941042,-16.105722,-32.184242,0.46706706
1.6705843,0.76521695,-0.86622643,-15.603553,-31.180752,0.45250413
1.6185018,0.74136037,-0.8392207,-15.117092,-30.208652,0.43839672
1.5680478,0.71824974,-0.8130595,-14.6458435,-29.26695,0.42473048
1.5191711,0.69586164,-0.7877161,-14.189327,-28.354689,0.41149148
1.471822,0.67417324,-0.7631648,-13.747078,-27.470938,0.39866623
1.4259524,0.6531625,-0.7393806,-13.318647,-26.614801,0.3862417
1.3815157,0.6328081,-0.7163394,-12.903601,-25.785408,0.37420532
1.3384668,0.6130894,-0.6940178,-12.501516,-24.981918,0.36254486
1.2967621,0.5939864,-0.67239326,-12.111988,-24.203518,0.3512485
1.2563595,0.5754798,-0.6514438,-11.734619,-23.449419,0.3403048
1.2172179,0.5575509,-0.6311482,-11.36903,-22.718859,0.32970268
1.1792978,0.54018146,-0.611486,-11.014851,-22.011097,0.31943142
1.142561,0.52335405,-0.5924373,-10.671721,-21.32542,0.30948067
1.1069703,0.50705165,-0.57398295,-10.339298,-20.661135,0.2998404
1.0724899,0.49125773,-0.55610424,-10.017245,-20.01757,0.29050082
1.0390849,0.47595644,-0.5387832,-9.705236,-19.394081,0.28145254
1.0067216,0.46113235,-0.5220023,-9.402958,-18.790035,0.27268645
0.97536755,0.4467705,-0.5057447,-9.1101055,-18.204824,0.26419368
0.94499105,0.43285644,-0.48999396,-8.826384,-17.63786,0.25596574
0.9155616,0.41937616,-0.47473428,-8.551507,-17.088572,0.2479943
0.8870495,0.40631613,-0.45995027,-8.285199,-16.556406,0.24027136
0.85942614,0.39366314,-0.4456271,-8.027192,-16.040827,0.23278914
0.8326638,0.38140455,-0.43175036,-7.777227,-15.541318,0.22554012
0.8067354,0.36952797,-0.41830605,-7.5350513,-15.057376,0.21851702
0.7816151,0.3580215,-0.4052807,-7.3004227,-14.588515,0.21171278
0.7572774,0.34687358,-0.39266124,-7.0731053,-14.134264,0.20512055
0.7336982,0.336073,-0.380435,-6.8528705,-13.694167,0.19873373
0.7108535,0.32560894,-0.36858967,-6.6394978,-13.267781,0.19254589
0.6887206,0.31547087,-0.35711336,-6.432772,-12.854679,0.18655084
0.66727716,0.30564862,-0.3459946,-6.2324867,-12.454447,0.18074255
0.6465017,0.2961324,-0.33522215,-6.0384407,-12.066683,0.1751152
0.62637347,0.28691253,-0.3247853,-5.8504386,-11.690996,0.16966313
0.60687214,0.27797988,-0.31467354,-5.668293,-11.327012,0.1643809
0.5879782,0.26932546,-0.30487671,-5.4918203,-10.974365,0.15926318
0.56967276,0.26094058,-0.29538503,-5.320844,-10.632702,0.15430486
0.5519374,0.25281686,-0.28618896,-5.1551933,-10.30168,0.14950097
0.53475446,0.24494614,-0.2772793,-4.994701,-9.980966,0.14484668
0.5181066,0.23732051,-0.26864707,-4.8392067,-9.67024,0.14033733
0.50197715,0.22993237,-0.26028368,-4.6885552,-9.369191,0.13596843
0.48634997,0.2227743,-0.25218076,-4.542595,-9.0775175,0.13173556
0.47120944,0.21583913,-0.24433012,-4.4011793,-8.794926,0.12763451
0.45654038,0.20911992,-0.23672396,-4.264168,-8.521133,0.12366117
0.44232807,0.20260991,-0.22935463,-4.1314225,-8.255867,0.11981154
0.42855832,0.19630262,-0.22221479,-4.0028105,-7.9988604,0.11608178
0.4152173,0.19019173,-0.21529724,-3.878203,-7.749856,0.11246816
0.40229166,0.1842711,-0.20859508,-3.7574754,-7.5086045,0.10896704
0.38976848,0.17853482,-0.2021016,-3.6405065,-7.2748647,0.10557494
0.3776352,0.17297712,-0.19581029,-3.5271797,-7.0484023,0.102288455
0.3658797,0.16759248,-0.18971486,-3.4173813,-6.8289905,0.09910429
0.3544902,0.16237547,-0.1838092,-3.311001,-6.6164103,0.09601927
0.34345528,0.15732089,-0.17808741,-3.2079332,-6.410448,0.09303029
0.33276394,0.15242368,-0.17254376,-3.108074,-6.2108984,0.09013436
0.32240543,0.14767893,-0.1671727,-3.0113237,-6.0175614,0.0873286
0.3123694,0.14308189,-0.16196886,-2.9175854,-5.830243,0.08461018
0.30264583,0.13862798,-0.15692702,-2.8267655,-5.6487565,0.0819764
0.29322496,0.13431272,-0.15204214,-2.7387729,-5.47292,0.079424605
0.28409737,0.1301318,-0.14730933,-2.6535196,-5.302558,0.076952256
0.27525395,0.12608103,-0.14272386,-2.5709205,-5.137499,0.07455687
0.2666858,0.12215637,-0.13828114,-2.4908926,-4.977578,0.07223606
0.25838444,0.11835389,-0.13397673,-2.4133563,-4.822636,0.0699875
0.25034145,0.11466978,-0.12980631,-2.3382335,-4.672518,0.06780893
0.24254887,0.11110035,-0.12576571,-2.2654493,-4.5270724,0.06569819
0.23499887,0.10764205,-0.12185091,-2.1949308,-4.3861547,0.06365315
0.22768389,0.104291394,-0.11805797,-2.1266077,-4.249624,0.06167177
0.22059661,0.10104505,-0.1143831,-2.0604115,-4.117343,0.059752077
0.21372998,0.09789976,-0.11082263,-1.9962758,-3.9891798,0.057892136
0.20707709,0.09485238,-0.107373,-1.9341366,-3.8650064,0.056090098
0.20063129,0.091899864,-0.10403074,-1.8739318,-3.7446985,0.054344155
0.19438615,0.08903926,-0.100792535,-1.8156011,-3.6281357,0.05265256
