ax,ay,az,gx,gy,gz
-1.7745616,-0.5481868,-2.658206,22.194746,14.870135,-11.430104
-2.1235442,-0.6743615,-3.1360042,31.162453,5.284032,-10.200769
-2.128539,-0.6836165,-3.2917688,29.612726,-4.905077,-6.5884957
-2.1100464,-0.7950979,-3.437241,26.831043,-13.879705,-4.1089625
-2.0865576,-0.96870947,-3.5871475,24.090034,-20.31772,-1.7325941
-2.1046693,-1.1560922,-3.808383,22.29529,-27.197514,-0.5570211
-2.0801675,-1.4405344,-4.045398,20.411106,-33.525394,-0.44269353
-2.024979,-1.9281757,-4.3559937,22.440468,-39.86631,-1.2997719
-1.948982,-2.5048976,-4.7092347,26.786325,-46.534893,-1.2566262
-1.863005,-3.0681503,-5.034789,32.227608,-53.62662,0.1459914
-1.744545,-3.5375907,-5.288704,37.00399,-61.6446,3.4172494
-1.4557127,-3.9699426,-5.364889,40.83591,-68.81706,7.918473
-1.0394316,-4.3487334,-5.283529,43.888817,-74.284966,13.688572
-0.5903124,-4.625773,-5.096332,47.251724,-78.11519,20.001417
-0.17750211,-4.7885995,-4.8517747,51.099888,-80.95938,26.397379
0.20826949,-4.8578663,-4.5521502,54.773838,-83.28502,32.793674
0.6340584,-4.897677,-4.0984225,57.387814,-84.55576,40.142586
1.0847265,-4.774428,-3.5154173,57.62387,-84.63216,49.629826
1.5400492,-4.480739,-2.8709705,55.95732,-83.779144,60.136917
1.9490715,-4.0821047,-2.2284257,54.487057,-82.15626,69.32241
2.308178,-3.681237,-1.6103442,55.54407,-78.636986,74.66907
2.63391,-3.2451038,-1.0162387,57.875168,-73.580605,77.67053
2.9280531,-2.6977143,-0.4483457,59.217495,-67.37286,79.879585
3.177404,-2.084824,0.06933745,59.041325,-60.552017,81.87053
3.3860123,-1.4593288,0.51363236,58.013714,-53.370876,83.29233
3.5596747,-0.8734372,0.87306684,56.94475,-45.313663,83.090454
3.6891875,-0.33210135,1.1362474,55.661354,-36.625336,81.68239
3.7818472,0.17586048,1.3153241,53.620358,-27.493923,79.57877
3.8040316,0.6428514,1.3829204,50.906498,-18.508816,77.08754
3.744649,1.0537579,1.3346422,47.537018,-10.175012,74.2205
3.6357422,1.4086523,1.2048626,42.952057,-2.5419106,70.800354
3.5096166,1.6969488,0.99951035,37.40963,4.6890664,67.03046
3.3609152,1.8854481,0.720706,32.605083,11.375076,62.62332
3.1588929,2.0117605,0.36931026,29.134115,16.78796,57.329777
2.9397888,2.1168578,-0.0051893503,25.644226,20.852917,51.756474
2.7148075,2.188463,-0.39857846,21.278433,23.3252,46.663906
2.480354,2.1958208,-0.82383114,16.923174,24.299004,42.096447
2.261568,2.1661546,-1.2376148,12.670813,23.803757,37.964
2.0899348,2.134369,-1.6081252,8.221686,22.319674,34.31465
1.9554118,2.0799456,-1.939516,3.9529035,20.336323,30.874998
1.8468523,2.0086224,-2.2358768,0.5458827,18.14377,27.388214
1.7390652,1.9283206,-2.5102947,-2.1053421,15.787409,23.993048
1.6144253,1.8452768,-2.7780147,-4.0120525,12.84723,20.622179
1.4935032,1.7601242,-3.0127037,-5.6745224,9.317851,17.552658
1.3854728,1.6651974,-3.2112393,-7.4626665,5.336535,15.060498
1.2970873,1.5572921,-3.3755286,-9.457913,0.8879381,13.381227
1.2396152,1.4533199,-3.4889297,-11.379316,-3.6215355,11.981873
1.1956244,1.3706511,-3.5604775,-12.952616,-8.261844,10.381883
1.1764079,1.2979739,-3.575156,-13.994724,-12.776763,8.415187
1.1676806,1.2226388,-3.5548418,-14.439052,-17.140352,6.3129644
1.1639813,1.1396145,-3.5201755,-14.588159,-21.749815,4.47584
1.203115,1.0795182,-3.422572,-15.077719,-26.087715,3.110888
1.2570637,1.0348356,-3.2805724,-15.881037,-30.21381,2.097552
1.3160031,1.0055033,-3.08121,-17.003353,-33.96758,1.1121597
1.3851073,0.9873989,-2.8271139,-18.14863,-37.078312,-0.35824943
1.4823259,0.969169,-2.5298007,-19.134922,-39.24867,-2.3868697
1.610593,0.9300652,-2.2156072,-19.515253,-40.719715,-4.879396
1.7415994,0.8743492,-1.9149618,-19.767824,-41.707565,-7.503899
1.8597782,0.7913899,-1.6232243,-20.364279,-42.366917,-9.635589
1.9627154,0.695776,-1.3365437,-21.623436,-42.674797,-11.031477
2.0615358,0.5775803,-1.0599719,-23.149471,-42.139137,-12.092657
2.1733224,0.40413743,-0.812164,-24.032808,-40.81349,-13.397479
2.270719,0.18323813,-0.6111719,-23.954378,-38.7666,-14.850264
2.3352802,-0.059211317,-0.46693945,-23.128859,-36.39682,-15.894667
2.2601442,-0.057306234,-0.451916,-22.384703,-35.225777,-15.383267
2.1875732,-0.055466183,-0.43740538,-21.66595,-34.094707,-14.889324
2.1174657,-0.053688604,-0.4233874,-20.9716,-33.00204,-14.412151
2.0497262,-0.051971063,-0.4098429,-20.300703,-31.946281,-13.951096
1.9842639,-0.050311256,-0.3967537,-19.652355,-30.926008,-13.505537
1.9209919,-0.048706986,-0.38410246,-19.025703,-29.939873,-13.074887
1.859828,-0.047156166,-0.37187272,-18.41993,-28.986595,-12.6585865
1.8006936,-0.045656808,-0.3600488,-17.834257,-28.064949,-12.256099
1.7435141,-0.04420701,-0.34861574,-17.267944,-27.173767,-11.866916
1.6882178,-0.042804968,-0.33755925,-16.720284,-26.311941,-11.490552
1.6347367,-0.04144895,-0.3268657,-16.190601,-25.478405,-11.126543
1.5830057,-0.040137302,-0.3165221,-15.678252,-24.672144,-10.774445
1.5329623,-0.038868446,-0.3065159,-15.182617,-23.892185,-10.433833
1.4845469,-0.03764087,-0.29683524,-14.703107,-23.137602,-10.104302
1.4377024,-0.03645312,-0.2874687,-14.239154,-22.407501,-9.785464
1.392374,-0.035303816,-0.27840528,-13.790217,-21.701029,-9.476945
1.3485093,-0.03419162,-0.26963452,-13.355776,-21.01737,-9.178387
1.3060578,-0.033115253,-0.26114634,-12.935331,-20.355736,-8.889448
1.264971,-0.032073498,-0.25293106,-12.528404,-19.715374,-8.609799
1.2252027,-0.031065166,-0.24497937,-12.134535,-19.095558,-8.339123
1.1867081,-0.03008913,-0.23728237,-11.753281,-18.495596,-8.077116
1.1494443,-0.029144302,-0.22983147,-11.384216,-17.914816,-7.8234873
1.1133701,-0.028229635,-0.22261842,-11.026933,-17.352575,-7.577954
1.0784456,-0.02734412,-0.21563527,-10.681037,-16.808256,-7.3402467
1.0446327,-0.026486788,-0.20887436,-10.346149,-16.28126,-7.110105
1.0118943,-0.025656706,-0.20232835,-10.021907,-15.771013,-6.887278
0.9801954,-0.024852974,-0.19599013,-9.707957,-15.276965,-6.6715245
0.94950145,-0.024074726,-0.18985288,-9.403961,-14.79858,-6.4626117
0.9197796,-0.023321124,-0.18390998,-9.109592,-14.335346,-6.260315
0.890998,-0.022591364,-0.17815511,-8.824537,-13.886767,-6.0644183
0.86312616,-0.021884669,-0.17258213,-8.548491,-13.452366,-5.8747134
0.8361343,-0.021200288,-0.16718511,-8.281161,-13.031682,-5.6909986
0.8099941,-0.0205375,-0.16195837,-8.022265,-12.6242695,-5.5130796
0.78467786,-0.019895604,-0.1568964,-7.771531,-12.2297,-5.3407693
0.7601591,-0.019273926,-0.15199386,-7.528694,-11.847559,-5.173887
0.736412,-0.018671816,-0.14724563,-7.293501,-11.477447,-5.0122566
0.7134119,-0.018088646,-0.14264676,-7.065706,-11.118976,-4.8557105
0.6911348,-0.017523808,-0.13819245,-6.845071,-10.771772,-4.7040854
0.6695576,-0.016976714,-0.13387808,-6.631367,-10.435477,-4.5572233
0.64865774,-0.016446797,-0.12969916,-6.4243736,-10.109741,-4.414973
0.62841386,-0.01593351,-0.12565139,-6.2238755,-9.794227,-4.2771864
0.6088049,-0.015436322,-0.12173057,-6.0296664,-9.488608,-4.143721
0.58981067,-0.014954722,-0.117932685,-5.841546,-9.192572,-4.0144405
0.57141167,-0.014488214,-0.114253804,-5.6593204,-8.905812,-3.8892112
0.55358905,-0.014036318,-0.11069016,-5.4828033,-8.628035,-3.7679048
0.53632444,-0.013598572,-0.107238114,-5.311813,-8.358955,-3.6503963
0.5196003,-0.013174528,-0.10389411,-5.146175,-8.098299,-3.5365663
0.5033994,-0.0127637535,-0.10065474,-4.9857197,-7.8457975,-3.426298
0.48770526,-0.012365827,-0.0975167,-4.8302836,-7.601195,-3.3194785
0.4725019,-0.011980344,-0.09447679,-4.679708,-7.364241,-3.2159996
0.45777386,-0.011606912,-0.09153191,-4.5338397,-7.1346946,-3.1157558
0.4435061,-0.011245151,-0.088679075,-4.3925304,-6.9123225,-3.0186448
0.42968413,-0.010894694,-0.08591537,-4.255636,-6.696899,-2.9245682
0.41629395,-0.010555184,-0.083238006,-4.1230187,-6.4882045,-2.8334303
0.40332198,-0.010226279,-0.08064426,-3.9945426,-6.286028,-2.745139
0.39075506,-0.009907642,-0.0781315,-3.8700786,-6.0901647,-2.6596043
0.37858045,-0.009598954,-0.07569719,-3.7495,-5.900416,-2.57674
0.36678588,-0.0092999,-0.07333886,-3.6326854,-5.7165895,-2.4964623
0.35535938,-0.009010181,-0.07105413,-3.5195162,-5.5385003,-2.41869
0.34428942,-0.008729501,-0.0688407,-3.4098783,-5.365968,-2.3433442
0.33356485,-0.008457578,-0.06669631,-3.3036606,-5.1988187,-2.2703493
0.3231748,-0.008194136,-0.064618826,-3.2007568,-5.0368834,-2.1996315
0.31310883,-0.007938912,-0.062606126,-3.1010623,-4.8799987,-2.131119
0.30335677,-0.007691648,-0.060656205,-3.0044768,-4.728007,-2.0647435
0.2939088,-0.0074520935,-0.058767084,-2.9109032,-4.5807543,-2.0004375
0.2847554,-0.0072200084,-0.056936864,-2.8202472,-4.438093,-1.9381367
0.2758874,-0.0069951587,-0.0551637,-2.7324173,-4.299879,-1.877778
0.2672958,-0.0067773177,-0.053445816,-2.6473253,-4.165974,-1.819301
0.25897202,-0.0065662675,-0.051781476,-2.5648859,-4.0362425,-1.7626467
0.2509077,-0.0063617947,-0.050169006,-2.4850156,-3.9105546,-1.7077582
0.24309465,-0.0061636944,-0.04860679,-2.4076347,-3.7887838,-1.6545802
0.2355251,-0.005971768,-0.04709326,-2.332665,-3.6708076,-1.6030594
0.22819142,-0.0057858215,-0.04562689,-2.2600315,-3.5565073,-1.553144
0.22108623,-0.0056056688,-0.04420621,-2.189661,-3.4457688,-1.5047839
0.21420243,-0.005431129,-0.04282979,-2.121483,-3.3384802,-1.4579304
0.20753309,-0.005262027,-0.041496255,-2.0554292,-3.2345343,-1.4125369
0.20107152,-0.005098193,-0.040204264,-1.9914331,-3.1338265,-1.3685572
0.19481122,-0.0049394625,-0.03895252,-1.9294306,-3.036256,-1.3259478
0.18874595,-0.0047856765,-0.037739765,-1.8693594,-2.9417248,-1.2846655
0.18286958,-0.0046366807,-0.036564786,-1.8111593,-2.850138,-1.2446691
0.17717625,-0.0044923257,-0.035426404,-1.754772,-2.7614038,-1.2059184
0.17166024,-0.0043524667,-0.03432348,-1.700141,-2.6754334,-1.1683748
0.16631603,-0.0042169634,-0.033254903,-1.6472113,-2.5921404,-1.1320003
0.16113827,-0.0040856805,-0.032219607,-1.5959301,-2.5114417,-1.0967587
0.15612173,-0.0039584856,-0.031216552,-1.5462458,-2.433256,-1.0626147
0.15126143,-0.0038352523,-0.030244734,-1.4981089,-2.357505,-1.0295339
0.14655249,-0.0037158562,-0.029303178,-1.451471,-2.284113,-0.9974832
0.14199017,-0.003600178,-0.028390944,-1.4062853,-2.2130065,-0.96643066
0.13756992,-0.003488102,-0.027507113,-1.3625067,-2.144114,-0.936345
0.13328731,-0.003379516,-0.026650805,-1.3200912,-2.0773668,-0.90719616
0.12913804,-0.0032743108,-0.02582116,-1.2789966,-2.012698,-0.87895495
0.12511797,-0.0031723818,-0.025017349,-1.2391814,-1.9500427,-0.85159314
0.121223085,-0.0030736262,-0.024238564,-1.200606,-1.8893384,-0.8250832
0.117449455,-0.0029779454,-0.023484027,-1.1632316,-1.830524,-0.79939866
0.11379332,-0.0028852436,-0.022752982,-1.1270208,-1.7735409,-0.77451384
0.11025102,-0.002795428,-0.022044698,-1.0919375,-1.7183318,-0.7504038
0.106819004,-0.002708409,-0.021358468,-1.0579464,-1.6648417,-0.7270444
0.10349384,-0.002624099,-0.0206936,-1.0250137,-1.6130168,-0.7044123
0.10027219,-0.0025424138,-0.020049432,-0.99310625,-1.5628055,-0.68248475
0.097150855,-0.0024632718,-0.01942532,-0.9621921,-1.5141574,-0.66123986
0.09412669,-0.0023865937,-0.018820638,-0.9322404,-1.4670238,-0.6406564
0.09119666,-0.0023123026,-0.01823478,-0.90322125,-1.4213576,-0.6207138
0.088357866,-0.0022403244,-0.017667161,-0.87510544,-1.3771131,-0.601392
0.08560744,-0.0021705872,-0.017117213,-0.8478649,-1.334246,-0.5826717
0.082942635,-0.0021030207,-0.016584385,-0.82147247,-1.2927134,-0.5645342
0.08036079,-0.0020375578,-0.016068146,-0.7959016,-1.2524737,-0.5469613
0.07785932,-0.0019741326,-0.015567976,-0.7711268,-1.2134867,-0.52993554
0.07543572,-0.001912682,-0.015083378,-0.74712324,-1.1757134,-0.5134397
0.07308757,-0.0018531444,-0.014613865,-0.7238669,-1.1391159,-0.49745747
0.070812516,-0.0017954601,-0.014158968,-0.70133454,-1.1036578,-0.48197272
0.068608284,-0.0017395715,-0.013718232,-0.67950356,-1.0693035,-0.46697003
0.06647267,-0.0016854227,-0.0132912155,-0.65835226,-1.0360186,-0.45243433
0.064403534,-0.0016329596,-0.012877491,-0.6378593,-1.0037699,-0.43835115
0.062398814,-0.0015821295,-0.012476647,-0.6180043,-0.97252494,-0.42470634
0.060456496,-0.0015328819,-0.01208828,-0.5987674,-0.9422527,-0.4114863
0.05857464,-0.0014851672,-0.011712003,-0.58012927,-0.91292274,-0.3986778
