ax,ay,az,gx,gy,gz
-2.2318385,-1.3263757,-5.5855055,31.239374,-47.995888,-38.563076
-2.3062441,-1.4648485,-5.9883556,31.186308,-55.488384,-31.268806
-2.3914812,-1.467806,-6.2661633,27.755156,-62.902332,-24.595816
-2.4315119,-1.5126532,-6.563075,23.485672,-71.15643,-20.188345
-2.4436438,-1.6691868,-6.838305,20.09224,-79.9257,-20.46806
-2.3884292,-2.1896217,-7.070271,22.787203,-87.2639,-22.363405
-2.2039642,-2.752021,-7.181845,26.956951,-93.27715,-21.889492
-1.9871955,-3.2330666,-7.243818,30.564442,-98.5982,-17.911484
-1.7852578,-3.6308198,-7.352554,34.690063,-104.867004,-13.111883
-1.4840002,-3.9608986,-7.3313084,40.538647,-112.178154,-7.3678217
-0.91129,-4.0752635,-6.9662,45.09779,-118.05952,-0.6402652
-0.3018175,-4.089801,-6.4558973,48.295467,-121.72305,5.877417
0.20650306,-4.1624475,-5.9494944,52.242744,-123.22857,10.768977
0.62965184,-4.2389884,-5.4058537,56.884678,-123.61358,16.150888
1.0692581,-4.149065,-4.7892623,59.03779,-123.879845,24.398247
1.5931246,-3.860928,-4.0200434,59.849216,-123.41578,32.835163
2.1280286,-3.5107887,-3.1763124,59.98673,-121.07942,39.94472
2.6294136,-3.1500337,-2.3191743,59.583817,-116.744545,46.078278
3.072325,-2.7814417,-1.5218688,58.792458,-110.867744,51.90298
3.422533,-2.4028513,-0.8464716,58.62814,-103.807785,56.96821
3.6839783,-1.9783,-0.2900753,57.970364,-96.50125,61.71605
3.8918686,-1.5518159,0.18538547,56.048435,-89.06082,66.48245
4.0598183,-1.1620852,0.583546,53.62211,-81.38242,70.6824
4.2005877,-0.7982865,0.8841957,51.981323,-72.7959,72.93714
4.3056083,-0.46299043,1.084901,51.542732,-62.59372,72.1881
4.319148,-0.1794904,1.1439316,51.437153,-51.995483,70.03404
4.2530866,0.08497601,1.1152525,50.888218,-41.838287,67.54845
4.136258,0.34841615,1.0253456,49.497707,-32.55001,65.20463
3.9834993,0.6062648,0.88558835,47.539604,-24.267101,62.94336
3.803857,0.85736877,0.71514285,44.889236,-16.993708,60.119457
3.6219273,1.0691907,0.529184,42.0241,-10.493731,56.931942
3.4579937,1.2464654,0.3310613,39.21399,-4.6577463,53.535137
3.2998724,1.3911616,0.10810372,36.772568,0.42618892,49.81221
3.1485257,1.5098014,-0.12978397,34.222065,4.8419037,45.94459
2.9993005,1.6009552,-0.37822095,31.314434,8.37051,42.07682
2.8429878,1.6752766,-0.637412,28.195135,11.232143,38.22722
2.6715775,1.7248514,-0.90415746,25.14574,13.316641,34.299736
2.4964328,1.756249,-1.1679196,22.11664,14.677986,30.360565
2.3148642,1.7509553,-1.4345794,19.289745,15.290381,26.468931
2.1364284,1.71004,-1.6935899,16.549006,14.972319,22.945677
1.9745373,1.646389,-1.9229676,13.832821,14.154023,19.849852
1.815143,1.5744536,-2.1385896,11.574171,12.888779,16.828009
1.6583542,1.4912273,-2.34823,9.936311,11.030532,13.679392
1.5207165,1.3922151,-2.5442195,8.539626,8.673884,10.693277
1.3971381,1.2689693,-2.730697,7.4673853,5.637977,8.357901
1.2832232,1.1439055,-2.9124842,6.5609903,2.2330437,6.640043
1.155679,1.0416725,-3.0816648,5.673033,-1.7350854,5.4523125
1.0334867,0.9759005,-3.2095041,4.5804057,-6.2119107,4.7691917
0.9581216,0.9817681,-3.2638676,2.9426,-10.984002,4.3672805
0.9425214,1.0232751,-3.2448854,1.123195,-15.294589,2.886525
0.950767,1.043165,-3.1630332,-0.51622754,-19.107878,0.6503205
0.9707441,1.0560136,-3.038887,-2.4981773,-22.704832,-1.6166205
1.0044938,1.0514363,-2.8590267,-5.132727,-26.238447,-3.3447192
1.0546376,1.0226828,-2.6260872,-8.234682,-29.590513,-4.5916805
1.1363755,0.95362216,-2.3567896,-11.512442,-32.417576,-5.7093515
1.2981689,0.795657,-2.0426233,-14.204251,-34.29055,-7.222982
1.4993763,0.5650905,-1.7200834,-15.898753,-35.09976,-9.046691
1.716222,0.30428112,-1.4021183,-16.97794,-34.993584,-10.422441
1.9054366,0.04889432,-1.1041684,-17.73731,-34.097603,-11.146742
2.0434985,-0.17666891,-0.8362842,-18.29674,-32.448162,-11.348278
1.977121,-0.17093031,-0.8091198,-17.70242,-31.39417,-10.97966
1.9130671,-0.16539258,-0.7829063,-17.128904,-30.377077,-10.623946
1.8512403,-0.1600474,-0.7576042,-16.575329,-29.395344,-10.2806
1.7915491,-0.15488684,-0.7331761,-16.040876,-28.447525,-9.949113
1.7339073,-0.14990348,-0.7095867,-15.524773,-27.532246,-9.629007
1.6782331,-0.14509021,-0.6868025,-15.026286,-26.64821,-9.319829
1.6244491,-0.14044036,-0.6647918,-14.5447235,-25.794188,-9.021147
1.5724816,-0.13594756,-0.64352465,-14.079427,-24.969011,-8.7325535
1.5222611,-0.13160577,-0.6229723,-13.629769,-24.171574,-8.45366
1.4737209,-0.12740928,-0.60310763,-13.195159,-23.400818,-8.184099
1.426798,-0.1233526,-0.58390486,-12.775028,-22.65574,-7.9235196
1.381432,-0.11943053,-0.5653392,-12.368838,-21.935387,-7.6715865
1.3375658,-0.11563811,-0.5473873,-11.976075,-21.238846,-7.4279814
1.2951443,-0.111970596,-0.53002673,-11.59625,-20.565248,-7.1924
1.2541155,-0.10842348,-0.513236,-11.228891,-19.913761,-6.9645514
1.2144291,-0.104992434,-0.4969947,-10.873554,-19.283592,-6.744159
1.1760375,-0.10167332,-0.48128328,-10.52981,-18.673983,-6.5309567
1.1388949,-0.09846218,-0.46608296,-10.197248,-18.084204,-6.3246903
1.1029574,-0.095355235,-0.45137584,-9.875477,-17.513561,-6.1251163
1.068183,-0.092348844,-0.4371447,-9.564119,-16.961388,-5.9320016
1.0345314,-0.08943952,-0.42337307,-9.262815,-16.427044,-5.7451224
1.001964,-0.08662394,-0.41004515,-8.971219,-15.909915,-5.564264
0.9704436,-0.08389887,-0.39714572,-8.688997,-15.409411,-5.38922
0.9399347,-0.08126125,-0.38466018,-8.415832,-14.924969,-5.2197933
0.9104029,-0.078708105,-0.37257457,-8.151415,-14.456041,-5.055793
0.8818154,-0.07623659,-0.36087537,-7.8954525,-14.002108,-4.897036
0.8541404,-0.07384397,-0.34954962,-7.6476607,-13.562664,-4.7433467
0.82734746,-0.071527615,-0.33858484,-7.407767,-13.137227,-4.5945563
0.80140734,-0.06928498,-0.32796907,-7.175508,-12.72533,-4.4505014
0.7762916,-0.06711363,-0.3176907,-6.9506316,-12.326526,-4.311025
0.7519732,-0.0650112,-0.30773857,-6.7328935,-11.94038,-4.1759763
0.72842586,-0.06297543,-0.29810202,-6.522059,-11.566477,-4.045209
0.7056242,-0.061004136,-0.28877065,-6.317901,-11.204416,-3.9185836
0.683544,-0.059095208,-0.2797345,-6.120203,-10.85381,-3.795964
0.6621616,-0.05724661,-0.27098393,-5.928753,-10.514285,-3.67722
0.64145434,-0.05545639,-0.2625097,-5.743348,-10.185481,-3.5622256
0.6214004,-0.053722642,-0.2543028,-5.5637927,-9.86705,-3.4508588
0.60197866,-0.05204355,-0.24635461,-5.3898973,-9.558657,-3.3430028
0.5831687,-0.05041735,-0.23865677,-5.2214794,-9.259978,-3.2385442
0.5649507,-0.048842333,-0.23120123,-5.0583625,-8.9707,-3.1373734
0.5473058,-0.047316857,-0.2239802,-4.9003763,-8.690521,-3.0393848
0.53021556,-0.045839332,-0.21698616,-4.7473564,-8.419149,-2.9444766
0.5136622,-0.04440823,-0.21021186,-4.5991435,-8.156303,-2.85255
0.4976286,-0.043022055,-0.20365024,-4.4555845,-7.90171,-2.7635095
0.48209813,-0.041679382,-0.19729452,-4.3165307,-7.655106,-2.6772633
0.46705478,-0.04037882,-0.19113816,-4.181838,-7.416237,-2.5937223
0.45248306,-0.039119035,-0.18517481,-4.051368,-7.1848564,-2.5128002
0.438368,-0.037898727,-0.17939833,-3.9249866,-6.9607267,-2.4344141
0.42469504,-0.036716647,-0.17380281,-3.8025641,-6.743618,-2.3584833
0.41145024,-0.03557158,-0.16838248,-3.683975,-6.533307,-2.2849302
0.39862,-0.03446235,-0.16313182,-3.5690978,-6.3295794,-2.2136793
0.38619122,-0.033387832,-0.15804544,-3.457815,-6.132226,-2.1446579
0.3741512,-0.032346923,-0.15311818,-3.3500133,-5.941046,-2.0777955
0.3624877,-0.031338565,-0.14834498,-3.2455826,-5.7558446,-2.0130239
0.35118884,-0.030361729,-0.14372101,-3.1444163,-5.5764327,-1.9502771
0.34024307,-0.029415423,-0.13924156,-3.0464122,-5.402628,-1.8894914
0.32963935,-0.028498687,-0.13490207,-2.9514701,-5.234254,-1.8306051
0.31936684,-0.027610587,-0.13069814,-2.859494,-5.07114,-1.7735583
0.30941516,-0.026750224,-0.12662551,-2.7703903,-4.91312,-1.7182931
0.29977423,-0.025916725,-0.12268004,-2.684069,-4.760034,-1.6647536
0.2904343,-0.025109248,-0.11885774,-2.6004426,-4.6117277,-1.6128855
0.2813859,-0.024326976,-0.11515476,-2.5194263,-4.4680505,-1.5626365
0.27261987,-0.023569116,-0.11156734,-2.4409387,-4.328857,-1.5139556
0.26412737,-0.022834904,-0.10809185,-2.3648999,-4.194007,-1.4667937
0.25589982,-0.0221236,-0.1047248,-2.2912335,-4.063364,-1.4211032
0.24792892,-0.021434482,-0.10146278,-2.219865,-3.9367964,-1.376838
0.24020664,-0.02076686,-0.098302506,-2.1507225,-3.8141763,-1.3339534
0.23272519,-0.020120056,-0.09524079,-2.0837362,-3.6953804,-1.2924062
0.22547702,-0.019493423,-0.09227454,-2.018839,-3.580289,-1.2521546
0.21845485,-0.018886328,-0.089400776,-1.9559649,-3.4687855,-1.2131579
0.2116516,-0.018298158,-0.0866166,-1.8950511,-3.3607585,-1.175377
0.20506042,-0.017728323,-0.08391922,-1.8360361,-3.2560992,-1.1387739
0.1986747,-0.017176252,-0.08130591,-1.7788607,-3.154702,-1.1033117
0.192488,-0.016641386,-0.078774065,-1.7234672,-3.056465,-1.0689547
0.18649411,-0.016123189,-0.07632111,-1.6698,-2.9612896,-1.0356685
0.180687,-0.01562114,-0.073944606,-1.6178054,-2.86908,-1.0034195
0.17506084,-0.015134735,-0.071642146,-1.5674309,-2.779744,-0.9721755
0.16961,-0.014663486,-0.069411434,-1.5186259,-2.6931913,-0.9419049
0.16432896,-0.01420692,-0.067250215,-1.4713415,-2.6093352,-0.9125775
0.15921247,-0.013764577,-0.06515633,-1.4255302,-2.5280917,-0.88416374
0.15425536,-0.013336015,-0.06312768,-1.3811461,-2.4493792,-0.85663515
0.14945267,-0.012920802,-0.061162222,-1.3381447,-2.3731186,-0.82996416
0.14479959,-0.012518524,-0.05925799,-1.2964826,-2.2992337,-0.8041239
0.14029144,-0.012128777,-0.057413068,-1.2561183,-2.22765,-0.77908856
0.13592371,-0.011751168,-0.055625614,-1.2170112,-2.1582959,-0.754833
0.13169202,-0.011385321,-0.053893827,-1.1791222,-2.091102,-0.73133284
0.12759212,-0.011030867,-0.05221598,-1.1424131,-2.0260007,-0.70856464
0.1236199,-0.010687453,-0.050590385,-1.1068474,-1.962927,-0.6865055
0.11977139,-0.010354733,-0.049015414,-1.0723892,-1.9018176,-0.66513336
0.116042726,-0.010032374,-0.04748949,-1.0390042,-1.8426111,-0.64442676
0.11243018,-0.009720054,-0.046011083,-1.0066587,-1.7852484,-0.624365
0.10893012,-0.00941746,-0.044578716,-0.97532046,-1.729672,-0.6049279
0.10553905,-0.009124288,-0.043190952,-0.9449581,-1.6758261,-0.5860961
0.10225358,-0.008840245,-0.0418464,-0.9155412,-1.6236569,-0.56785065
0.0990704,-0.008565047,-0.040543713,-0.88704014,-1.5731121,-0.55017334
0.09598634,-0.008298417,-0.039281584,-0.8594266,-1.5241412,-0.5330465
0.0929983,-0.008040089,-0.038058758,-0.83267283,-1.476695,-0.51645285
0.090103306,-0.007789804,-0.036874004,-0.8067521,-1.430726,-0.50037587
0.08729844,-0.007547312,-0.035726137,-0.7816383,-1.3861884,-0.48479944
0.084580906,-0.0073123695,-0.034614008,-0.7573065,-1.3430374,-0.469708
0.081947975,-0.007084742,-0.033536505,-0.7337322,-1.3012298,-0.4550864
0.07939702,-0.0068642013,-0.03249255,-0.7108919,-1.2607238,-0.44092005
0.07692549,-0.006650527,-0.031481095,-0.68876266,-1.2214789,-0.4271947
0.07453089,-0.0064435047,-0.03050113,-0.6673224,-1.183456,-0.4138967
0.072210856,-0.0062429276,-0.029551672,-0.6465496,-1.1466167,-0.4010127
0.06996304,-0.0060485946,-0.028631775,-0.6264235,-1.1109242,-0.38852978
0.0677852,-0.005860312,-0.027740514,-0.60692394,-1.0763429,-0.3764355
0.06567517,-0.0056778905,-0.026877,-0.5880315,-1.0428383,-0.36471772
0.06363083,-0.0055011483,-0.026040368,-0.5697271,-1.0103767,-0.3533647
0.06165012,-0.0053299083,-0.025229782,-0.55199265,-0.9789256,-0.34236515
0.059731074,-0.005163999,-0.02444443,-0.5348102,-0.9484536,-0.331708
0.05787177,-0.0050032544,-0.023683526,-0.51816267,-0.91893023,-0.32138264
0.056070346,-0.004847514,-0.022946307,-0.5020334,-0.8903259,-0.3113787
0.054325003,-0.0046966216,-0.02223204,-0.4864062,-0.862612,-0.30168617
0.05263399,-0.0045504263,-0.021540008,-0.4712655,-0.8357609,-0.29229537
0.050995614,-0.0044087823,-0.020869518,-0.4565961,-0.8097456,-0.2831969
0.049408246,-0.0042715473,-0.0202199,-0.44238338,-0.7845402,-0.27438167
0.04787029,-0.0041385847,-0.019590504,-0.42861307,-0.7601194,-0.26584083
0.046380207,-0.004009761,-0.0189807,-0.41527143,-0.7364588,-0.25756586
0.044936508,-0.0038849474,-0.01838988,-0.4023451,-0.7135347,-0.24954851
