ax,ay,az,gx,gy,gz
-0.613642,2.640933,6.5555143,10.764643,-181.16528,72.90975
1.0604924,1.8500298,7.9260645,26.45773,-179.38507,48.46521
3.7161107,1.7285098,9.628159,32.10902,-157.25336,40.35723
5.743091,2.47921,10.819354,27.326452,-127.15392,39.113796
6.790975,3.1202219,11.271514,23.668867,-101.607895,33.33528
7.3523207,3.217493,11.376349,27.165857,-77.84357,17.243162
7.872373,3.0061865,11.429394,30.597326,-53.631233,4.598503
8.349102,2.8652918,11.383979,29.850956,-29.08945,-2.7289996
8.683781,2.6938105,11.128439,25.527424,-5.741148,-6.573606
8.850158,2.3950434,10.672319,23.498934,15.753759,-11.120537
8.863761,2.0141032,10.051823,27.438515,35.912342,-17.985268
8.754798,1.7800161,9.236139,31.484568,53.957005,-23.334753
8.536681,1.7508342,8.315017,32.698803,69.1006,-26.76317
8.204357,1.8525705,7.3272047,31.604855,81.0684,-29.134487
7.7823534,2.0291264,6.3339252,28.576643,90.40485,-31.083374
7.3280206,2.2922306,5.3464384,22.765444,97.38219,-33.8466
6.8612027,2.4844868,4.3462715,17.247103,102.65411,-37.892067
6.3410587,2.557557,3.3307426,12.601885,105.779564,-42.86905
5.816863,2.574659,2.3393514,8.590731,106.73992,-48.064793
5.280653,2.5802567,1.3653033,4.0187807,105.1436,-52.92195
4.7513294,2.5329025,0.43954247,-1.8481427,100.41861,-57.18861
4.24503,2.3838148,-0.3858668,-7.893786,94.44091,-61.027573
3.7837005,2.143841,-1.1056718,-13.786065,87.50718,-64.357864
3.3884346,1.7699652,-1.7046034,-19.090618,80.21666,-66.34378
3.0049903,1.2727765,-2.2065508,-23.877556,72.34085,-67.07264
2.6421583,0.6219771,-2.5814955,-26.52475,63.608185,-66.59685
2.406614,-0.23061058,-2.7673452,-27.081028,54.90407,-64.9503
2.379262,-1.2317579,-2.788143,-25.647709,47.20819,-61.14703
2.5506449,-2.29437,-2.6517966,-21.98841,41.398174,-54.67108
2.7848933,-3.2160099,-2.4061766,-15.545329,38.110584,-46.743015
2.9210286,-3.7399912,-2.1341147,-7.022457,36.635857,-39.031227
2.8812335,-3.5023265,-1.8268666,-0.49082196,35.070675,-32.67481
2.8319988,-2.9996538,-1.4351097,3.3149362,33.811237,-26.784693
2.7847137,-2.4257047,-1.0406686,5.0843086,33.022472,-21.703209
2.73921,-1.8593053,-0.70720387,5.9511366,32.74032,-17.961472
2.7046854,-1.3279461,-0.45079312,5.6951118,32.998894,-15.31866
2.646186,-0.82831484,-0.31358144,4.5540066,33.26286,-13.4188175
2.5596268,-0.4126945,-0.2576893,3.1247332,33.294853,-12.534129
2.4745734,-0.05281525,-0.25770077,1.6898,33.047863,-12.619043
2.405626,0.26562905,-0.2979706,-0.0279781,32.56922,-13.356097
2.3467693,0.5323333,-0.37016574,-2.0533593,32.006577,-14.684588
2.2569206,0.7458258,-0.5007304,-4.197574,31.088366,-16.395401
2.1562533,0.9127858,-0.6536121,-6.364148,29.815735,-18.542744
2.042074,1.0294679,-0.8304011,-8.475395,28.01928,-21.04466
1.9441388,1.1063136,-1.013372,-10.684606,25.81022,-23.672716
1.8676146,1.1272222,-1.2018077,-13.278421,23.26322,-25.99548
1.772778,1.0485181,-1.4120511,-15.927472,20.505249,-28.125546
1.6327133,0.86778504,-1.6449317,-18.261665,17.218752,-30.204662
1.4752412,0.54958946,-1.8843107,-20.05504,13.270938,-32.148533
1.3196112,0.021676064,-2.1043406,-21.111267,8.653279,-33.56664
1.2015114,-0.7343777,-2.2497947,-20.001934,4.2607965,-33.02327
1.1978024,-1.6309344,-2.229866,-17.786087,0.77883595,-29.077839
1.2899793,-2.4014728,-2.066643,-14.104847,-1.0272503,-22.15658
1.411023,-2.9183261,-1.826964,-8.952029,-1.7199043,-14.689486
1.5625812,-3.1201289,-1.514704,-3.453004,-1.313133,-7.963132
1.7393506,-3.0601282,-1.1187301,-0.51307464,0.23080844,-1.1379123
1.8692609,-2.8300066,-0.714044,1.2740042,2.5132453,5.1935697
1.9306359,-2.4770753,-0.3989643,3.2205482,5.075256,9.768052
1.9666823,-2.0272138,-0.14548267,4.491178,7.7648306,12.741009
1.902622,-1.9611816,-0.1407439,4.344888,7.5119085,12.325998
1.8408204,-1.897478,-0.1361722,4.203756,7.2679043,11.925622
1.7811824,-1.8360044,-0.13176057,4.067565,7.032442,11.539261
1.7236178,-1.7766681,-0.12750229,3.9361084,6.8051662,11.166333
1.6680417,-1.7193813,-0.12339113,3.809193,6.5857415,10.806287
1.6143737,-1.6640615,-0.11942111,3.686635,6.37385,10.458602
1.5625376,-1.61063,-0.11558661,3.5682604,6.1691914,10.1227865
1.5124613,-1.5590125,-0.111882284,3.4539049,5.971481,9.798371
1.4640765,-1.5091385,-0.108303085,3.3434117,5.7804484,9.484914
1.4173181,-1.460941,-0.10484419,3.2366326,5.5958376,9.181993
1.3721242,-1.4143561,-0.10150104,3.1334264,5.4174037,8.889207
1.3284361,-1.3693233,-0.09826927,3.033659,5.244915,8.606177
1.2861977,-1.3257848,-0.095144734,2.937202,5.07815,8.332539
1.2453555,-1.2836856,-0.092123486,2.8439333,4.916897,8.0679455
1.2058586,-1.242973,-0.089201756,2.753737,4.760956,7.812067
1.1676581,-1.2035968,-0.08637593,2.6665013,4.610133,7.5645885
1.1307077,-1.1655091,-0.08364258,2.5821202,4.4642463,7.3252077
1.0949628,-1.128664,-0.08099839,2.5004919,4.323118,7.093637
1.0603807,-1.0930176,-0.078440234,2.421519,4.186582,6.8695993
1.0269207,-1.0585277,-0.07596507,2.3451087,4.0544753,6.652831
0.99454355,-1.0251541,-0.07357002,2.2711713,3.9266446,6.4430785
0.9632119,-0.99285805,-0.0712523,2.1996212,3.802941,6.2400985
0.93288964,-0.9616025,-0.06900925,2.1303763,3.6832232,6.043658
0.9035423,-0.9313519,-0.06683832,2.0633578,3.5673544,5.8535333
0.8751366,-0.9020719,-0.064737044,1.9984897,3.4552033,5.669509
0.8476407,-0.87372977,-0.06270308,1.9356992,3.3466444,5.491379
0.82102394,-0.8462938,-0.060734138,1.8749164,3.2415566,5.318944
0.79525685,-0.8197336,-0.058828052,1.8160739,3.1398232,5.152014
0.77031106,-0.79402,-0.05698272,1.7591068,3.0413325,4.990404
0.7461592,-0.76912475,-0.055196118,1.7039528,2.9459763,4.833938
0.7227749,-0.7450208,-0.0534663,1.6505518,2.853651,4.682445
0.700133,-0.721682,-0.051791392,1.598846,2.7642565,4.535761
0.67820895,-0.69908315,-0.05016959,1.5487795,2.6776962,4.3937273
0.65697926,-0.6772,-0.048599154,1.5002987,2.5938773,4.256192
0.6364212,-0.65600926,-0.047078397,1.4533516,2.51271,4.1230083
0.6165129,-0.63548815,-0.045605708,1.4078884,2.4341085,3.994034
0.59723324,-0.6156151,-0.04417952,1.3638607,2.3579886,3.869132
0.5785618,-0.59636897,-0.042798325,1.3212221,2.2842703,3.7481704
0.5604789,-0.5777296,-0.04146067,1.2799275,2.2128758,3.631022
0.54296565,-0.5596773,-0.040165152,1.2399336,2.1437302,3.5175636
0.52600366,-0.54219323,-0.038910408,1.2011987,2.076761,3.4076765
0.5095752,-0.5252591,-0.037695136,1.163682,2.0118983,3.3012457
0.4936631,-0.50885725,-0.03651806,1.1273447,1.9490744,3.1981604
0.4782509,-0.4929707,-0.035377964,1.0921489,1.8882242,3.0983138
0.4633226,-0.47758296,-0.034273665,1.0580583,1.8292845,3.001602
0.44886282,-0.4626781,-0.03320402,1.0250374,1.7721945,2.9079251
0.43485653,-0.44824073,-0.032167926,0.99305224,1.7168952,2.8171866
0.42128938,-0.434256,-0.031164313,0.9620698,1.6633295,2.7292926
0.40814736,-0.4207095,-0.03019215,0.93205833,1.6114423,2.644153
0.39541703,-0.40758735,-0.029250441,0.9029869,1.5611806,2.5616806
0.3830853,-0.39487606,-0.028338218,0.8748258,1.5124927,2.4817903
0.37113956,-0.38256267,-0.027454548,0.8475461,1.4653286,2.4044008
0.3595676,-0.37063456,-0.02659853,0.82112,1.4196404,2.3294327
0.34835765,-0.35907954,-0.025769286,0.7955206,1.3753812,2.2568097
0.33749822,-0.34788588,-0.024965974,0.7707216,1.3325062,2.1864576
0.32697827,-0.33704212,-0.024187775,0.74669796,1.2909715,2.118305
0.3167871,-0.3265373,-0.023433898,0.7234251,1.2507348,2.052282
0.30691436,-0.3163607,-0.022703575,0.7008794,1.2117554,1.9883224
0.29735005,-0.306502,-0.021996068,0.679038,1.1739937,1.9263606
0.28808442,-0.2969512,-0.021310657,0.65787876,1.1374114,1.8663341
0.27910814,-0.28769866,-0.020646647,0.6373802,1.1019713,1.8081818
0.2704121,-0.27873492,-0.02000337,0.6175216,1.0676376,1.751845
0.26198745,-0.270051,-0.019380167,0.5982829,1.0343755,1.6972667
0.25382575,-0.2616381,-0.018776417,0.57964456,1.0021516,1.6443917
0.2459187,-0.2534877,-0.018191505,0.5615878,0.9709332,1.5931665
0.23825836,-0.24559158,-0.01762484,0.5440944,0.9406887,1.5435395
0.23083697,-0.23794177,-0.017075853,0.52714664,0.9113877,1.4954606
0.22364706,-0.23053056,-0.01654399,0.5107275,0.88300055,1.4488813
0.21668136,-0.22335048,-0.016028712,0.49482045,0.8554987,1.4037545
0.20993288,-0.21639429,-0.015529501,0.4794094,0.8288544,1.360035
0.20339482,-0.20965499,-0.015045856,0.46447885,0.80304086,1.3176786
0.19706057,-0.20312579,-0.01457729,0.4500138,0.77803206,1.2766426
0.19092378,-0.19680011,-0.014123329,0.43599963,0.7538029,1.2368859
0.18497829,-0.19067162,-0.013683518,0.4224223,0.730329,1.1983684
0.17921808,-0.18473414,-0.013257416,0.4092681,0.70758665,1.1610514
0.1736374,-0.17898169,-0.012844592,0.3965239,0.6855531,1.1248974
0.16823064,-0.17340851,-0.012444634,0.38417682,0.6642061,1.08987
0.16299234,-0.16800898,-0.012057139,0.3722145,0.64352435,1.0559341
0.15791726,-0.1627777,-0.011681716,0.36062488,0.62348694,1.0230556
0.15300031,-0.1577094,-0.011317991,0.34939635,0.6040739,0.99120134
0.14823653,-0.15279901,-0.010965597,0.33851767,0.58526564,0.9603396
0.14362116,-0.14804159,-0.0106241815,0.32797787,0.5670433,0.9304393
0.13914958,-0.14343238,-0.010293402,0.31776637,0.5493886,0.90147036
0.13481727,-0.13896672,-0.009972925,0.30787298,0.53228384,0.87340385
0.1306199,-0.13464017,-0.009662431,0.29828778,0.5157119,0.84621155
0.12655328,-0.13044839,-0.009361608,0.28900108,0.49965608,0.81986624
0.12261331,-0.12638716,-0.009070154,0.28000367,0.48410034,0.79434144
0.11879606,-0.12245241,-0.008787777,0.27128646,0.4690291,0.7696116
0.11509768,-0.11864021,-0.008514196,0.26284072,0.4544272,0.74565196
0.11151448,-0.11494672,-0.008249133,0.254658,0.44028008,0.72243845
0.108042866,-0.111368254,-0.007992325,0.24673012,0.4265735,0.6999479
0.10467936,-0.10790123,-0.0077435146,0.23904912,0.41329375,0.6781576
0.101420596,-0.10454216,-0.0075024515,0.2316073,0.40042752,0.65704596
0.09826331,-0.10128769,-0.0072688954,0.22439721,0.38796195,0.6365917
0.09520432,-0.09813456,-0.0070426115,0.21741162,0.37588453,0.6167743
0.092240594,-0.095079616,-0.0068233735,0.21064356,0.36418316,0.597574
0.08936915,-0.09211979,-0.006610962,0.20408623,0.35284615,0.5789715
0.0865871,-0.089252114,-0.006405164,0.19773306,0.3418621,0.56094825
0.08389168,-0.08647373,-0.006205774,0.1915777,0.3312201,0.5434862
0.08128018,-0.08378185,-0.0060125915,0.185614,0.3209094,0.52656776
0.07874999,-0.08117379,-0.005825424,0.17983598,0.31091973,0.51017606
0.07629857,-0.07864692,-0.005644084,0.17423785,0.30124107,0.49429476
0.073923476,-0.07619873,-0.0054683895,0.168814,0.29186374,0.47890788
0.07162233,-0.073826745,-0.0052981647,0.16355902,0.28277838,0.46400005
0.069392815,-0.07152861,-0.00513324,0.15846764,0.27397585,0.44955632
0.06723271,-0.06930203,-0.0049734493,0.15353477,0.26544738,0.43556228
0.06513987,-0.06714477,-0.0048186337,0.14875546,0.25718442,0.4220039
0.06311217,-0.06505466,-0.004668637,0.14412495,0.24917868,0.4088676
0.061147597,-0.063029625,-0.004523311,0.13963859,0.24142218,0.39614028
0.059244186,-0.061067626,-0.0043825083,0.1352919,0.23390715,0.38380915
0.057400025,-0.059166707,-0.0042460896,0.13108052,0.22662607,0.3718619
0.05561328,-0.05732497,-0.0041139172,0.12700026,0.21957165,0.3602866
0.05388215,-0.05554056,-0.0039858595,0.123047,0.21273685,0.34907162
0.052204918,-0.053811703,-0.0038617884,0.11921681,0.20611481,0.33820578
0.050579894,-0.052136663,-0.0037415794,0.11550586,0.19969891,0.32767817
0.04900546,-0.05051377,-0.0036251126,0.111910425,0.19348274,0.3174783
0.047480036,-0.048941396,-0.0035122714,0.10842691,0.18746008,0.30759597
0.046002094,-0.04741797,-0.0034029428,0.105051845,0.1816249,0.29802123
0.044570163,-0.045941964,-0.0032970177,0.10178184,0.17597136,0.28874457
0.043182805,-0.044511903,-0.0031943896,0.09861363,0.17049381,0.27975667
0.041838635,-0.043126363,-0.0030949565,0.09554404,0.16518678,0.27104858
