ax,ay,az,gx,gy,gz
1.6572877,0.1127283,4.371858,-17.36743,-193.37267,62.534206
4.3196483,-0.04580575,6.62752,-3.3633845,-154.2811,44.25493
5.8092337,-0.095959246,7.7749143,-8.884227,-117.00678,39.835335
6.0787096,-0.72488004,8.19576,-0.98667747,-86.98803,30.979826
5.8339076,-1.0944613,8.368846,17.332308,-64.27296,22.08542
5.768058,-0.29887497,8.726827,29.968569,-46.929623,15.107304
6.0654936,0.72046524,9.232391,33.374676,-32.91386,10.389981
6.635828,1.3834189,9.768558,31.312918,-16.935238,7.8647323
7.2088785,1.7878778,10.091605,27.991549,1.588199,3.384953
7.6673083,1.9898996,10.083801,26.134901,22.628729,-4.0169573
7.8305116,2.0198503,9.606997,24.95535,41.405907,-10.189266
7.756979,1.9830759,8.907519,22.526663,56.605747,-14.222762
7.6004157,1.9506825,8.148542,20.07488,69.30581,-16.933369
7.430344,2.0072362,7.367592,17.481869,80.25928,-19.588972
7.259591,2.0487175,6.540913,14.02383,89.79962,-22.920265
7.0646086,2.0346208,5.6333714,10.786814,98.09549,-26.298967
6.827156,1.977358,4.711732,8.1295595,104.983,-29.512638
6.5395393,1.9215862,3.7997282,5.4740267,109.95549,-32.080257
6.221682,1.9480957,2.935596,2.149861,112.917366,-34.23707
5.9074554,2.0887275,2.1303437,-2.8425016,113.60162,-36.75693
5.6404223,2.2547293,1.3902885,-8.865456,113.18101,-39.31767
5.3936424,2.3408363,0.69582206,-15.094893,112.47036,-41.71163
5.1428766,2.3590806,0.03536282,-20.833893,111.306046,-43.731033
4.8819294,2.365364,-0.600028,-26.092396,109.33184,-45.886356
4.609101,2.3294778,-1.2141584,-30.891712,105.678375,-48.14561
4.319781,2.1947896,-1.7901514,-35.246086,100.54498,-50.199543
4.054176,1.9776782,-2.2669368,-39.350666,94.67385,-51.6081
3.7865047,1.6868402,-2.6432436,-42.746082,88.94499,-52.817886
3.4754755,1.2543994,-2.9553602,-45.15542,83.146,-53.83411
3.1686308,0.6725552,-3.190127,-45.395416,76.95017,-54.186977
3.0100684,-0.13828899,-3.2573795,-44.084118,71.03583,-53.229465
2.950863,-1.098784,-3.2034917,-40.1695,66.18846,-50.174507
2.9216135,-1.9836094,-3.1047812,-33.00726,62.481888,-45.677406
2.882106,-2.564838,-2.966796,-24.294294,59.423374,-40.438316
2.8216357,-2.776496,-2.7681231,-16.028915,56.62501,-35.24604
2.772767,-2.6694028,-2.4879255,-8.980118,54.13308,-30.091547
2.755491,-2.3937762,-2.2043362,-3.1670442,51.914795,-25.576105
2.7658994,-2.0020938,-1.9282978,1.4379865,50.3054,-21.803297
2.771557,-1.4846299,-1.6828783,4.680069,49.298992,-18.834587
2.730071,-0.87900496,-1.5007854,5.9551506,48.64348,-17.183989
2.6173604,-0.29069915,-1.41752,5.918541,47.653526,-16.431454
2.4935923,0.22299929,-1.3977365,4.8830323,46.14337,-16.509815
2.3997998,0.6629466,-1.4227445,3.2313442,44.287666,-17.552689
2.347395,1.0164287,-1.4802443,1.0873485,42.299377,-19.211185
2.3151453,1.2858509,-1.5736532,-1.0335801,39.977158,-21.582981
2.2954023,1.4576596,-1.704881,-3.1652927,37.391724,-24.249865
2.2592847,1.5660859,-1.8546498,-5.4239726,34.552692,-27.046904
2.1922913,1.5913262,-2.023613,-8.095398,31.297255,-29.585873
2.1041815,1.5202625,-2.2068493,-10.77227,27.649796,-31.863007
2.009819,1.3201151,-2.4018395,-13.059969,23.14474,-33.8847
1.9286435,0.8417908,-2.552572,-14.628627,18.26967,-34.84776
1.8913684,0.2144946,-2.6018214,-15.145491,13.977499,-33.885113
1.9420013,-0.45961177,-2.5085213,-15.188002,11.259475,-30.047329
1.9835796,-1.1207873,-2.3375337,-13.470781,10.298234,-24.916414
2.0308998,-1.620558,-2.1099622,-10.264562,11.020607,-20.14615
2.1336365,-1.8221121,-1.7819626,-7.3576493,13.104229,-15.0781555
2.1893528,-1.8006028,-1.4514537,-5.174899,16.051159,-10.461892
2.1176014,-1.7415918,-1.4038854,-5.005303,15.525116,-10.119026
2.0484204,-1.6846949,-1.3580211,-4.841782,15.017918,-9.788443
1.9816976,-1.6298196,-1.3137866,-4.684072,14.528742,-9.469605
1.9173275,-1.5768794,-1.2711118,-4.5319223,14.056815,-9.162011
1.8552108,-1.5257924,-1.2299309,-4.3850994,13.601409,-8.865185
1.7952538,-1.4764816,-1.1901817,-4.243381,13.161836,-8.578678
1.7373679,-1.428874,-1.1518056,-4.106558,12.737448,-8.302068
1.6814692,-1.3829011,-1.1147472,-3.9744322,12.327629,-8.034955
1.6274788,-1.3384973,-1.0789536,-3.8468168,11.9318,-7.77696
1.5753213,-1.2956011,-1.0443753,-3.7235339,11.54941,-7.527724
1.5249256,-1.2541538,-1.010965,-3.6044152,11.179935,-7.286906
1.4762238,-1.2140998,-0.9786776,-3.4893005,10.82288,-7.054183
1.4291517,-1.175386,-0.9474706,-3.3780375,10.477772,-6.829247
1.3836478,-1.1379619,-0.9173034,-3.2704816,10.144162,-6.6118054
1.3396538,-1.1017797,-0.88813716,-3.1664946,9.821622,-6.401579
1.2971143,-1.0667936,-0.85993505,-3.0659451,9.509745,-6.198302
1.2559757,-1.0329597,-0.83266187,-2.9687073,9.208139,-6.0017204
1.2161876,-1.0002366,-0.80628395,-2.8746617,8.916434,-5.8115916
1.1777015,-0.96858424,-0.7807692,-2.7836933,8.6342745,-5.6276846
1.140471,-0.9379645,-0.7560868,-2.6956928,8.3613205,-5.449777
1.1044517,-0.9083409,-0.7322074,-2.610555,8.097246,-5.2776575
1.0696009,-0.8796784,-0.7091028,-2.5281796,7.8417397,-5.1111226
1.0358782,-0.8519436,-0.686746,-2.4484704,7.5945024,-4.9499774
1.0032443,-0.82510436,-0.665111,-2.3713348,7.3552485,-4.7940354
0.97166187,-0.7991298,-0.6441731,-2.2966843,7.1237025,-4.6431174
0.94109476,-0.7739903,-0.62390834,-2.224434,6.899601,-4.4970517
0.9115085,-0.7496575,-0.6042938,-2.154502,6.6826906,-4.355673
0.88286984,-0.726104,-0.58530754,-2.0868096,6.4727273,-4.218822
0.8551469,-0.70330364,-0.5669283,-2.0212817,6.2694774,-4.0863466
0.8283089,-0.68123114,-0.5491358,-1.9578457,6.0727158,-3.9581006
0.80232626,-0.6598621,-0.53191036,-1.8964314,5.882225,-3.8339417
0.7771706,-0.63917315,-0.51523316,-1.8369719,5.6977973,-3.7137346
0.7528145,-0.6191418,-0.49908602,-1.7794021,5.5192313,-3.5973482
0.72923154,-0.59974635,-0.48345146,-1.72366,5.3463335,-3.484656
0.7063963,-0.5809658,-0.4683126,-1.669685,5.178918,-3.3755372
0.6842842,-0.5627801,-0.4536532,-1.6174196,5.016804,-3.269874
0.6628717,-0.54516965,-0.43945757,-1.5668076,4.8598194,-3.167554
0.64213604,-0.52811587,-0.42571062,-1.5177952,4.707796,-3.0684676
0.62205505,-0.51160055,-0.4123977,-1.4703306,4.5605736,-2.97251
0.6026076,-0.49560627,-0.39950484,-1.4243633,4.4179955,-2.8795798
0.5837732,-0.48011616,-0.38701838,-1.379845,4.2799115,-2.7895792
0.5655321,-0.465114,-0.37492526,-1.336729,4.1461773,-2.7024133
0.5478651,-0.45058402,-0.36321273,-1.2949703,4.0166526,-2.617991
0.5307538,-0.4365111,-0.35186863,-1.254525,3.8912017,-2.5362241
0.5141804,-0.42288053,-0.34088114,-1.2153509,3.7696946,-2.4570277
0.49812767,-0.4096782,-0.33023882,-1.1774076,3.6520045,-2.380319
0.48257896,-0.39689037,-0.31993064,-1.1406556,3.5380096,-2.306019
0.46751818,-0.38450384,-0.30994594,-1.105057,3.427592,-2.2340508
0.4529298,-0.3725058,-0.3002744,-1.0705749,3.320638,-2.1643395
0.43879876,-0.36088395,-0.2909061,-1.0371739,3.2170367,-2.096814
0.42511055,-0.34962627,-0.28183135,-1.0048195,3.116682,-2.0314045
0.4118511,-0.33872122,-0.2730409,-0.9734786,3.0194712,-1.9680438
0.39900687,-0.32815766,-0.26452565,-0.94311905,2.925304,-1.9066671
0.38656464,-0.31792474,-0.25627697,-0.9137098,2.8340843,-1.8472116
0.37451175,-0.30801198,-0.24828638,-0.8852208,2.745719,-1.7896165
0.36283588,-0.2984093,-0.24054573,-0.8576229,2.6601176,-1.7338228
0.3515251,-0.28910694,-0.23304714,-0.83088803,2.5771933,-1.679774
0.34056792,-0.28009537,-0.22578298,-0.8049889,2.496861,-1.6274148
0.3299532,-0.27136543,-0.21874583,-0.7798993,2.4190397,-1.576692
0.31967014,-0.26290828,-0.21192858,-0.75559354,2.3436499,-1.527554
0.30970833,-0.2547153,-0.20532428,-0.73204714,2.270615,-1.4799511
0.30005762,-0.24677822,-0.19892626,-0.7092361,2.1998613,-1.433835
0.29070827,-0.23908897,-0.192728,-0.6871373,2.1313167,-1.3891587
0.28165078,-0.23163977,-0.18672325,-0.66572845,2.0649123,-1.3458773
0.27287602,-0.2244231,-0.18090594,-0.6449878,2.0005803,-1.3039469
0.2643751,-0.21743162,-0.17527016,-0.6248945,1.9382561,-1.2633249
0.25613943,-0.21065833,-0.16981025,-0.60542816,1.8778768,-1.2239705
0.24816072,-0.20409633,-0.16452067,-0.58656913,1.819381,-1.185844
0.24043088,-0.19773903,-0.1593961,-0.56829834,1.7627101,-1.1489067
0.23294215,-0.19158003,-0.15443136,-0.5505975,1.7078066,-1.1131215
0.22568695,-0.1856131,-0.14962146,-0.53344864,1.6546154,-1.0784523
0.21865799,-0.17983222,-0.14496154,-0.5168345,1.6030829,-1.0448642
0.21184818,-0.1742316,-0.14044692,-0.50073844,1.5531571,-1.0123234
0.20525068,-0.16880557,-0.13607302,-0.4851441,1.5047877,-0.980797
0.19885884,-0.1635487,-0.13183549,-0.47003594,1.4579262,-0.95025337
0.19266625,-0.15845567,-0.12773004,-0.4553987,1.4125254,-0.9206618
0.18666664,-0.15352139,-0.12375255,-0.44121766,1.3685396,-0.89199257
0.18085402,-0.14874087,-0.11989901,-0.42747855,1.3259245,-0.86421674
0.17522253,-0.14410934,-0.11616556,-0.4141676,1.2846375,-0.8373065
0.16976653,-0.13962212,-0.11254845,-0.40127143,1.244637,-0.81123483
0.16448052,-0.13527472,-0.10904404,-0.38877708,1.2058828,-0.78597546
0.15935922,-0.13106276,-0.10564881,-0.376672,1.1683362,-0.7615031
0.15439744,-0.12698203,-0.10235936,-0.36494404,1.1319591,-0.73779315
0.14959025,-0.12302843,-0.09917238,-0.35358146,1.0967155,-0.7148219
0.14493282,-0.11919799,-0.096084684,-0.3425728,1.0625696,-0.69256616
0.14042047,-0.11548685,-0.09309317,-0.3319071,1.0294874,-0.6710037
0.13604864,-0.11189132,-0.090194836,-0.32157362,0.9974356,-0.65011287
0.131813,-0.10840778,-0.08738678,-0.31156197,0.9663822,-0.62987274
0.1277093,-0.105032735,-0.08466618,-0.30186215,0.9362959,-0.610263
0.12373339,-0.1017628,-0.082030304,-0.29246444,0.9071467,-0.59126395
0.1198813,-0.09859471,-0.07947653,-0.28335938,0.8789053,-0.57285666
0.11614918,-0.09552528,-0.07700228,-0.2745379,0.85154337,-0.5550226
0.11253328,-0.09255143,-0.074605085,-0.26599112,0.82503355,-0.53774387
0.109029986,-0.089670196,-0.07228254,-0.2577105,0.79934925,-0.5210033
0.10563578,-0.08687868,-0.07003231,-0.24968773,0.7744648,-0.504784
0.10234726,-0.08417409,-0.06785216,-0.24191478,0.7503552,-0.4890697
0.09916115,-0.08155371,-0.06573989,-0.23438387,0.7269963,-0.47384474
0.096074246,-0.07901493,-0.0636934,-0.22708745,0.7043647,-0.45909387
0.093083456,-0.07655519,-0.061710622,-0.22001822,0.68243784,-0.44480228
0.090185784,-0.07417204,-0.059789583,-0.2131691,0.6611937,-0.43095568
0.08737834,-0.0718631,-0.057928357,-0.20653322,0.640611,-0.4175402
0.0846583,-0.06962604,-0.056125082,-0.20010397,0.6206692,-0.4045424
0.08202295,-0.06745864,-0.054377947,-0.19387488,0.60134816,-0.3919493
0.07946965,-0.065358706,-0.052685212,-0.18783973,0.5826287,-0.37974826
0.07699584,-0.06332416,-0.051045176,-0.18199247,0.5644921,-0.3679271
0.07459905,-0.061352953,-0.049456198,-0.17632726,0.5469202,-0.35647395
0.072276875,-0.059443112,-0.04791669,-0.17083842,0.52989525,-0.3453774
0.070027,-0.057592735,-0.04642511,-0.16552046,0.5134004,-0.3346263
0.06784717,-0.05579996,-0.04497997,-0.16036807,0.497419,-0.32420987
0.0657352,-0.054063,-0.043579817,-0.15537608,0.48193514,-0.31411776
0.06368898,-0.052380115,-0.042223256,-0.15053949,0.46693334,-0.30433983
0.061706454,-0.050749615,-0.04090892,-0.14585347,0.45239857,-0.2948663
0.059785653,-0.04916988,-0.039635506,-0.14131333,0.4383163,-0.28568766
0.057924643,-0.047639318,-0.038401734,-0.13691454,0.42467237,-0.27679476
0.056121573,-0.046156406,-0.037206367,-0.13265267,0.41145322,-0.26817873
0.054374628,-0.04471966,-0.03604821,-0.12852347,0.39864555,-0.2598309
0.05268207,-0.043327633,-0.034926113,-0.12452283,0.3862366,-0.25174296
0.051042195,-0.041978944,-0.033838943,-0.120646715,0.37421393,-0.24390677
0.04945337,-0.04067224,-0.032785617,-0.116891265,0.36256555,-0.23631452
0.047914006,-0.03940621,-0.031765077,-0.11325272,0.35127977,-0.22895862
0.04642256,-0.03817959,-0.030776309,-0.10972744,0.34034526,-0.2218317
0.044977542,-0.036991157,-0.02981832,-0.1063119,0.3297512,-0.21492663
0.043577507,-0.035839714,-0.028890152,-0.10300268,0.3194869,-0.20823652
