ax,ay,az,gx,gy,gz
1.6527423,7.603706,6.790971,164.2415,-182.27438,8.822807
2.6072283,7.293666,8.160828,187.4795,-159.92886,-26.265081
3.5692196,7.927179,8.778776,155.31561,-133.21666,-20.933142
4.393923,8.536706,9.416555,124.00211,-107.208626,-15.599483
4.866688,8.647257,9.741411,102.91955,-85.65814,-15.098817
5.2602744,8.560001,9.922886,90.50342,-66.391785,-19.842285
5.6718607,8.577128,10.008538,81.488846,-47.5511,-27.551086
6.00728,8.591312,9.972656,72.63673,-28.866364,-34.274693
6.164194,8.541585,9.757962,63.70198,-10.765068,-39.938824
6.108553,8.338294,9.327461,56.35457,4.7877207,-45.73772
6.0056186,8.035868,8.837723,50.101807,18.459944,-51.491337
5.8897753,7.6816173,8.308852,43.955486,30.872639,-56.94093
5.7682614,7.300216,7.749784,36.98217,42.631317,-62.08874
5.6251526,6.871083,7.0839024,29.98573,53.09467,-66.59629
5.4148946,6.3860383,6.334118,24.439865,61.504784,-70.535255
5.155736,5.8567333,5.5608277,20.232481,68.067696,-74.06863
4.845602,5.29418,4.7682304,17.149315,72.432655,-77.38456
4.498811,4.753533,4.002639,15.842354,74.888466,-80.6878
4.168043,4.3993163,3.2481713,14.096206,75.625916,-84.13011
3.8815782,4.119475,2.5317543,11.3315935,75.09795,-87.36347
3.615667,3.818158,1.8436385,7.8988705,73.6109,-89.81554
3.3359213,3.4896579,1.1686144,4.3342476,71.092674,-91.2645
3.0596712,3.2117126,0.52841127,0.829489,67.25442,-91.89837
2.8834925,3.0691626,-0.018129114,-3.4827962,61.786953,-92.26229
2.7971847,2.937572,-0.46077546,-8.705603,56.32009,-92.4022
2.7398577,2.7399306,-0.83612514,-14.388091,51.05906,-92.19682
2.6714227,2.4758496,-1.1673391,-19.640682,45.72046,-91.96994
2.5831363,2.157811,-1.4358234,-24.19612,39.707058,-91.91934
2.479519,1.7539228,-1.5798367,-28.2191,33.452583,-91.780014
2.3940756,1.2392457,-1.6133116,-31.644222,27.445253,-90.88689
2.3420968,0.5771352,-1.5514662,-34.246643,22.041756,-88.553535
2.34783,-0.20239191,-1.3960556,-35.152885,17.521534,-84.908134
2.3999836,-1.0535758,-1.1614922,-32.32687,14.634141,-79.829506
2.4605882,-1.8754475,-0.86814743,-26.832186,13.261409,-73.49478
2.5157502,-2.5110066,-0.5700041,-19.84542,13.026091,-65.862045
2.5708098,-2.872721,-0.2896961,-12.767335,13.371176,-57.86053
2.628307,-2.958437,-0.025178047,-6.430111,14.028937,-50.26794
2.6858478,-2.8069165,0.22828215,-1.2035893,15.297516,-43.49895
2.6748412,-2.4934797,0.4072747,2.8420694,17.195171,-38.418102
2.5264633,-2.058147,0.45275244,6.045665,19.124044,-34.453457
2.281479,-1.5548469,0.39407203,8.149298,20.564123,-30.994026
1.9960717,-0.9690064,0.2568627,8.791845,20.997799,-28.117598
1.7647876,-0.3451075,0.091513984,7.200829,20.066635,-26.069431
1.6721748,0.22486645,-0.054488454,4.2645364,19.066095,-24.850718
1.644973,0.6811083,-0.21271056,0.60321003,18.042,-24.77348
1.6518197,1.012966,-0.38991037,-3.131578,16.874195,-25.446049
1.6821654,1.2690066,-0.58209836,-6.916647,15.54812,-26.661802
1.7134393,1.4508193,-0.7902486,-10.832684,13.733691,-28.338972
1.7321763,1.5199689,-1.0045915,-14.577416,11.544501,-30.38392
1.7224398,1.4781656,-1.1942673,-17.824608,9.19341,-32.66475
1.6777363,1.3452071,-1.3607361,-20.461523,6.5633416,-34.88145
1.6195154,1.1691686,-1.4958982,-22.699974,3.6001942,-36.758846
1.5619042,0.9597,-1.5899428,-25.091896,0.16857004,-38.285526
1.5311061,0.581114,-1.5863856,-27.383764,-3.527932,-39.03006
1.5303075,0.072667055,-1.5017979,-28.824097,-6.923187,-38.96642
1.568876,-0.5061333,-1.3568625,-29.157936,-9.691898,-38.05715
1.6349756,-1.1322601,-1.1714052,-28.349667,-11.695351,-36.36816
1.707175,-1.7859719,-0.96302205,-26.178377,-12.574242,-33.055965
1.7567616,-2.3579507,-0.72894424,-23.237421,-12.651987,-28.648067
1.7963454,-2.7714965,-0.4837054,-19.782671,-11.979424,-23.647291
1.8402827,-3.0099003,-0.23935074,-15.868859,-10.573253,-18.12302
1.893373,-3.022312,-0.009608406,-11.838934,-8.625051,-12.465858
1.9486251,-2.8044772,0.1891035,-8.329826,-6.1350937,-7.449207
1.9570851,-2.3650422,0.3224931,-5.9574237,-3.2588072,-3.0092819
1.8899668,-1.8484826,0.38602147,-4.683727,-0.3457857,0.7047981
1.77582,-1.3327951,0.39022708,-4.425546,2.2267556,3.9530563
1.6715095,-0.8711181,0.3631392,-4.47735,4.2112083,6.4122586
1.6224834,-0.47724387,0.34173295,-5.005795,6.0817666,7.798475
1.6429397,-0.18858817,0.31216767,-6.4540873,8.351419,7.945115
1.6984247,-0.001457183,0.2660539,-8.128337,11.160162,7.503
1.759066,0.09974417,0.20288207,-9.513611,14.421377,6.89486
1.7031354,0.09657275,0.19643131,-9.21112,13.962841,6.675634
1.6490537,0.09350616,0.19019379,-8.918628,13.519462,6.463654
1.5967532,0.09054057,0.18416171,-8.63577,13.090687,6.258657
1.5461698,0.08767233,0.17832765,-8.362198,12.675986,6.0603886
1.4972414,0.08489795,0.17268449,-8.097577,12.274857,5.8686085
1.4499092,0.08221408,0.16722544,-7.841589,11.886813,5.683085
1.404117,0.07961752,0.16194397,-7.5939293,11.511394,5.503597
1.3598104,0.07710522,0.15683387,-7.354305,11.148154,5.329932
1.3169378,0.07467422,0.15188918,-7.1224356,10.796672,5.161888
1.2754496,0.07232171,0.14710411,-6.8980536,10.456537,4.9992704
1.2352979,0.070045,0.14247322,-6.6809006,10.127362,4.8418913
1.1964372,0.067841485,0.13799122,-6.470729,9.80877,4.6895723
1.1588235,0.065708674,0.13365303,-6.267301,9.500401,4.542141
1.1224145,0.06364418,0.1294538,-6.0703893,9.201908,4.3994317
1.0871695,0.061645687,0.12538882,-5.879773,8.912959,4.2612853
1.0530498,0.059710994,0.121453606,-5.6952415,8.633234,4.1275487
1.0200174,0.057837963,0.11764382,-5.5165915,8.362424,3.9980748
0.9880364,0.056024544,0.11395528,-5.343628,8.100234,3.8727214
0.95707184,0.054268766,0.11038399,-5.1761613,7.8463764,3.7513523
0.9270902,0.052568723,0.106926054,-5.014011,7.600578,3.633836
0.89805925,0.050922576,0.103577755,-4.857002,7.3625727,3.5200458
0.8699476,0.04932857,0.1003355,-4.7049646,7.132105,3.4098592
0.8427254,0.047784988,0.09719583,-4.557738,6.9089284,3.3031585
0.8163636,0.046290196,0.09415538,-4.4151645,6.692806,3.1998303
0.7908341,0.0448426,0.09121094,-4.277093,6.4835076,3.0997646
0.7661101,0.043440677,0.08835939,-4.1433773,6.2808123,3.002856
0.7421655,0.042082947,0.08559774,-4.0138764,6.0845065,2.9090023
0.71897507,0.040767983,0.08292307,-3.8884552,5.894384,2.8181047
0.6965146,0.03949441,0.080332585,-3.7669814,5.710246,2.7300684
0.6747606,0.038260892,0.07782359,-3.6493287,5.5319,2.6448011
0.6536904,0.037066154,0.07539345,-3.5353742,5.35916,2.5622141
0.6332822,0.035908945,0.073039666,-3.4249995,5.191847,2.4822218
0.61351466,0.034788072,0.07075978,-3.3180904,5.0297866,2.4047408
0.59436756,0.033702374,0.06855144,-3.2145364,4.8728123,2.3296914
0.5758209,0.032650728,0.066412374,-3.1142304,4.720762,2.256996
0.55785584,0.03163205,0.06434036,-3.0170689,4.5734777,2.1865797
0.5404537,0.0306453,0.062333282,-2.9229524,4.4308095,2.1183698
0.5235966,0.029689455,0.06038907,-2.8317838,4.29261,2.0522966
0.5072674,0.028763542,0.05850574,-2.74347,4.158738,1.9882925
0.4914493,0.02786661,0.056681357,-2.6579204,4.029056,1.9262916
0.47612613,0.026997741,0.05491406,-2.5750477,3.9034321,1.8662308
0.4612823,0.026156053,0.053202044,-2.4947674,3.7817378,1.8080487
0.44690263,0.025340684,0.051543564,-2.4169974,3.6638486,1.751686
0.43297252,0.024550805,0.04993693,-2.3416586,3.5496452,1.6970853
0.41947776,0.023785612,0.048380513,-2.2686746,3.4390109,1.6441909
0.40640464,0.02304433,0.046872724,-2.1979709,3.3318334,1.5929494
0.39373994,0.022326203,0.045412038,-2.1294758,3.228004,1.5433086
0.38147074,0.021630505,0.04399697,-2.0631201,3.1274173,1.4952182
0.36958468,0.02095653,0.042626087,-1.9988363,3.0299716,1.4486294
0.3580697,0.020303596,0.041298006,-1.9365593,2.935568,1.403495
0.3469141,0.019671042,0.040011376,-1.8762263,2.8441112,1.3597695
0.33610666,0.01905823,0.038764898,-1.8177761,2.7555084,1.3174084
0.32563648,0.018464537,0.03755732,-1.7611498,2.6696703,1.2763693
0.31549293,0.01788937,0.03638741,-1.7062901,2.5865104,1.2366105
0.3056658,0.017332142,0.035253998,-1.6531417,2.5059445,1.198092
0.29614517,0.016792296,0.034155935,-1.6016511,2.4278915,1.1607748
0.28692144,0.016269283,0.03309212,-1.5517662,2.3522725,1.1246214
0.27798536,0.01576258,0.032061473,-1.5034369,2.2790117,1.0895954
0.26932788,0.015271677,0.03106296,-1.4566144,2.208035,1.0556614
0.2609403,0.014796077,0.030095581,-1.4112517,2.139271,1.0227854
0.2528142,0.014335304,0.029158356,-1.367303,2.0726507,0.9909342
0.2449414,0.013888892,0.028250344,-1.3247242,2.0081067,0.9600758
0.23731397,0.013456394,0.027370632,-1.2834725,1.9455746,0.9301792
0.22992423,0.013037375,0.026518337,-1.2435064,1.8849913,0.9012143
0.22276479,0.0126314135,0.0256926,-1.2047857,1.826296,0.873152
0.21582843,0.012238102,0.024892595,-1.1672716,1.7694294,0.8459642
0.2091082,0.011857045,0.024117516,-1.1309264,1.714335,0.8196235
0.20259735,0.01148786,0.023366587,-1.0957135,1.6609569,0.79410344
0.19628933,0.011130177,0.022639051,-1.0615977,1.6092418,0.7693785
0.19017783,0.010783638,0.021934181,-1.0285447,1.5591378,0.74542373
0.18425672,0.010447893,0.021251269,-0.9965213,1.5105946,0.72221524
0.17852004,0.0101226065,0.020589627,-0.96549547,1.4635636,0.6997297
0.17296205,0.009807453,0.019948596,-0.935436,1.4179974,0.6779445
0.16757718,0.009502115,0.01932753,-0.9063128,1.3738505,0.6568379
0.16236001,0.009206287,0.01872581,-0.8780967,1.3310785,0.6363886
0.15730534,0.008919672,0.018142829,-0.8507594,1.2896388,0.61657625
0.1524081,0.008641983,0.017578004,-0.8242734,1.2494895,0.59738094
0.14766335,0.008372943,0.017030768,-0.7986123,1.2105907,0.5787834
0.14306638,0.008112281,0.016500575,-0.7737503,1.1729032,0.56076497
0.13861254,0.007859736,0.015986893,-0.7496625,1.1363893,0.54330766
0.1342974,0.0076150545,0.015489206,-0.7263248,1.1010125,0.526394
0.13011664,0.007377993,0.015007016,-0.70371383,1.0667372,0.510007
0.12606604,0.007148313,0.014539842,-0.6818069,1.0335292,0.49413028
0.122141585,0.006925784,0.014087213,-0.6605821,1.0013552,0.4787479
0.11833932,0.0067101847,0.013648679,-0.6400182,0.970183,0.46384448
0.11465544,0.006501298,0.013223798,-0.6200946,0.93998146,0.4494051
0.111086264,0.006298915,0.012812146,-0.6007913,0.91072017,0.4354153
0.10762821,0.0061028334,0.012413312,-0.582089,0.88237,0.42186105
0.10427783,0.0059128567,0.012026894,-0.563969,0.85490245,0.40872884
0.10103175,0.0057287947,0.011652508,-0.5464131,0.8282901,0.39600548
0.09788673,0.005550463,0.011289777,-0.52940387,0.80250627,0.38367823
0.09483963,0.005377684,0.01093834,-0.51292413,0.77752525,0.37173477
0.0918874,0.0052102837,0.010597844,-0.49695748,0.7533219,0.36016315
0.08902708,0.005048095,0.010267948,-0.4814879,0.72987205,0.3489518
0.0862558,0.0048909555,0.009948323,-0.46649992,0.70715225,0.33808947
0.0835708,0.004738708,0.009638648,-0.45197853,0.6851398,0.32756528
0.080969386,0.0045912005,0.009338613,-0.43790925,0.6638125,0.31736875
0.07844896,0.004448285,0.009047919,-0.42427793,0.64314926,0.30748966
0.07600699,0.004309818,0.008766275,-0.41107097,0.6231293,0.29791808
0.07364105,0.004175662,0.008493398,-0.39827517,0.6037325,0.2886445
0.07134876,0.0040456825,0.008229016,-0.3858777,0.5849396,0.2796596
0.06912782,0.003919749,0.007972865,-0.37386614,0.5667317,0.2709544
0.066976026,0.0037977363,0.0077246875,-0.3622285,0.54909056,0.2625202
0.06489122,0.0036795214,0.0074842353,-0.3509532,0.53199863,0.25434855
0.06287131,0.0035649864,0.0072512687,-0.34002882,0.5154388,0.24643126
0.060914274,0.003454017,0.0070255543,-0.32944456,0.49939442,0.23876046
0.05901816,0.0033465018,0.0068068663,-0.31918976,0.4838495,0.23132843
0.057181075,0.0032423337,0.0065949853,-0.30925417,0.46878847,0.22412775
0.055401172,0.003141408,0.0063897003,-0.2996279,0.45419627,0.21715122
