ax,ay,az,gx,gy,gz
0.29182085,0.14363767,-0.60909647,1.5536505,34.457584,-20.474731
0.49011648,-0.08918204,-0.58093894,10.991674,46.074047,-21.828026
0.3718001,-0.5567443,-0.6947131,20.852219,52.664356,-19.646002
0.094482,-0.5820221,-0.9956519,20.050665,52.741383,-18.302986
-0.08082248,-0.4332476,-1.1391634,14.878108,50.295284,-16.076567
-0.19338499,-0.16991219,-1.1985472,6.244482,47.093006,-13.557385
-0.29894823,-0.03362019,-1.2043209,0.26571107,45.16276,-11.596258
-0.3341411,0.010943397,-1.1347876,-2.5365973,44.925407,-10.79096
-0.28746876,0.060866576,-1.0448712,-4.2687783,45.480858,-10.682587
-0.20898068,0.071270965,-0.95544195,-5.419429,46.82913,-9.799513
-0.17521684,0.03468178,-0.9488715,-6.297389,47.898052,-7.809437
-0.19389339,0.0077432543,-1.0142728,-7.2534833,48.335793,-5.054307
-0.2941901,0.043918885,-1.1619977,-9.86222,48.507362,-2.6870487
-0.4564086,0.02658311,-1.3657459,-12.636301,47.944965,-0.82200634
-0.62336135,-0.03213498,-1.5702846,-14.228332,47.053787,0.09045474
-0.76348996,-0.08571182,-1.7575151,-14.672918,46.049583,-0.17282213
-0.89233875,-0.14110972,-1.9481635,-14.02331,44.072475,-0.54599386
-1.0077615,-0.19351663,-2.1295385,-13.602102,41.70249,-0.12777774
-1.1134851,-0.22816174,-2.3282647,-13.864919,38.92224,1.0955961
-1.2321154,-0.26452535,-2.5742674,-14.654299,35.797527,3.0059083
-1.3944961,-0.3189843,-2.8848944,-15.965844,32.1029,5.0450983
-1.5965472,-0.42235884,-3.2310877,-16.236378,27.497587,6.4525223
-1.77235,-0.5359773,-3.5605888,-15.157013,22.307907,7.2475495
-1.8879439,-0.61971354,-3.8316028,-13.499028,16.924932,7.8016467
-1.9692085,-0.6774397,-4.069058,-11.98021,11.544874,8.400822
-2.0591917,-0.74821377,-4.3174357,-10.325948,5.803845,9.556707
-2.157162,-0.81448406,-4.5867233,-8.569306,-0.6657365,11.228803
-2.2502627,-0.867705,-4.8536067,-6.7768774,-8.070336,12.544863
-2.299043,-0.91689664,-5.073637,-4.8133845,-15.936588,13.5343485
-2.250464,-0.9520993,-5.2367716,-3.1625504,-24.114939,14.390193
-2.10454,-1.0046093,-5.336384,-1.9421128,-31.92803,15.5965185
-1.9204,-1.0986577,-5.4002094,-0.5245003,-39.57188,17.646536
-1.676378,-1.2019647,-5.3753886,1.9537995,-47.157963,19.38297
-1.3331518,-1.2762039,-5.2371035,5.320824,-54.183983,20.632206
-0.8794346,-1.3121184,-4.973525,8.4255085,-60.352135,21.786457
-0.3645434,-1.3487374,-4.5996847,10.66776,-65.2511,23.3298
0.18223713,-1.407599,-4.155133,11.522403,-68.05574,25.866287
0.67527056,-1.4533566,-3.699046,12.100002,-69.59306,28.866236
1.0727698,-1.4541194,-3.2845733,13.299366,-70.751884,31.753372
1.4113039,-1.4170375,-2.8727853,15.12742,-71.33395,34.16092
1.7141532,-1.3338717,-2.4484267,17.657999,-71.1224,36.424465
1.990283,-1.1785547,-2.0260658,19.883942,-70.230736,38.44137
2.2416103,-0.95507646,-1.5900633,22.167673,-68.955284,39.791744
2.489293,-0.6930497,-1.140751,24.709623,-67.05494,40.07388
2.7449996,-0.3964501,-0.68511766,27.390987,-64.48576,39.544987
3.0191069,-0.07221786,-0.2354498,29.308836,-61.307407,38.4741
3.2837026,0.23187527,0.1851082,30.429195,-57.168896,36.97969
3.499652,0.48208228,0.5290089,31.30097,-52.51396,35.202663
3.6914446,0.7008972,0.8176858,31.81532,-47.31491,33.13676
3.8592908,0.8711692,1.0466198,32.18314,-41.634075,30.970303
3.995101,1.0081638,1.2148305,32.104313,-35.458168,28.616531
4.0938697,1.1076354,1.3137764,31.49593,-28.917576,25.847332
4.175956,1.1604643,1.349162,30.349932,-22.236156,23.016197
4.2310734,1.1872919,1.3393109,28.503988,-15.296324,20.326004
4.2532334,1.2037467,1.2675129,26.45978,-8.361801,17.865248
4.258308,1.2090352,1.147206,24.21688,-1.6120657,15.579662
4.2521815,1.1945983,0.99948734,21.596151,5.345157,13.546005
4.221041,1.1824199,0.80175275,18.506025,12.337045,11.721868
4.159131,1.1778651,0.5595164,15.0261,19.110382,10.148508
4.0675974,1.1812571,0.27680016,11.270225,25.541641,8.883527
3.9329715,1.20194,-0.05129691,7.9243474,31.325806,7.9189157
3.7410493,1.240657,-0.42836225,5.379769,35.54705,6.578762
3.5196357,1.2746345,-0.8062472,3.4858332,38.77137,4.799944
3.3117068,1.3202391,-1.1701437,1.8816731,41.14828,2.7657113
3.121566,1.3779843,-1.5138569,0.20102757,43.02725,0.7267074
2.9432783,1.4409828,-1.8321589,-1.5398318,44.90479,-1.0878642
2.7518785,1.5173217,-2.1542363,-3.4954388,46.39977,-2.770421
2.5069292,1.6221772,-2.5647664,-4.7230706,46.32514,-4.690974
2.245462,1.7328337,-3.0181856,-5.700856,43.925575,-7.6112757
2.0041912,1.790937,-3.4372053,-5.9822626,39.8411,-11.2201605
1.8329507,1.8157421,-3.7680776,-5.237936,35.14839,-15.066368
1.7319058,1.8500578,-3.9959226,-3.9710417,30.923857,-18.420094
1.6349632,1.9500817,-4.2024226,-3.6220617,26.726557,-21.705605
1.5309061,2.0380259,-4.415632,-4.016282,22.02676,-25.173252
1.4425563,2.094572,-4.6212087,-4.3221655,16.412012,-28.820988
1.3870652,2.1289837,-4.797812,-4.8807244,9.785415,-32.424675
1.391331,2.141092,-4.915102,-5.5445404,2.7672145,-35.77382
1.4619398,2.1156332,-4.946366,-6.0267625,-4.11328,-38.882904
1.5491273,2.0762014,-4.9227195,-6.580019,-10.809059,-42.049046
1.6540182,2.0265694,-4.8702655,-7.471356,-17.588312,-45.33786
1.7799374,1.9551959,-4.806084,-9.235734,-24.51594,-48.46472
1.9144549,1.8587024,-4.734338,-12.58031,-31.814095,-51.3064
2.127006,1.6721311,-4.5295634,-16.330004,-38.36301,-53.666943
2.4172742,1.4027965,-4.1687303,-18.838766,-43.218536,-55.449017
2.7616801,1.1059879,-3.685358,-19.222965,-45.8398,-56.932365
3.101229,0.8147757,-3.1797283,-19.196243,-46.65234,-57.873817
3.3924034,0.49620277,-2.7209954,-19.930843,-46.28388,-57.33901
3.5945907,0.12805845,-2.341879,-21.157034,-45.39108,-55.973076
3.7274792,-0.27129176,-2.017751,-21.861952,-44.11145,-54.36549
3.8272176,-0.6915449,-1.7198145,-21.553635,-42.503315,-52.543118
3.9243853,-1.0998046,-1.4271379,-20.195835,-40.33057,-50.41721
4.0231066,-1.4625849,-1.1485318,-18.066887,-37.269157,-47.854145
4.107182,-1.7722433,-0.91352654,-15.783742,-33.771652,-44.913696
4.1670375,-2.0685062,-0.73805696,-13.2233305,-30.34086,-41.262238
4.198193,-2.3402967,-0.6196228,-10.379161,-26.87151,-37.05219
4.210258,-2.5686367,-0.5523682,-7.176263,-23.530785,-32.66204
4.2192535,-2.7586658,-0.50830686,-3.5019526,-20.0703,-28.31883
4.238749,-2.9018545,-0.48016796,0.38845932,-16.444199,-24.0343
4.257755,-2.9997246,-0.46757016,4.3355923,-12.594754,-19.8237
4.2564507,-3.063712,-0.4889827,8.484533,-8.8569145,-15.636949
4.2360415,-3.102543,-0.5379873,12.739342,-5.4139543,-11.299766
4.20344,-3.097124,-0.6048741,17.121515,-2.4661136,-6.835901
4.177826,-3.009548,-0.6676928,20.9773,0.32243344,-2.523697
4.157948,-2.8912597,-0.7273529,24.321468,3.200599,1.6264253
4.1253986,-2.7654796,-0.80218095,27.370193,6.1560674,5.6501193
4.0734315,-2.62901,-0.9010917,30.35378,9.127395,9.597129
4.000381,-2.4765081,-1.029723,32.802048,11.617107,13.589869
3.904414,-2.294471,-1.1759725,34.89562,13.627073,17.58888
3.8057766,-2.0611198,-1.3170482,36.6171,15.341834,21.150408
3.70976,-1.8124027,-1.4525214,37.7555,16.776361,24.252064
3.6130378,-1.5847234,-1.5843468,38.34631,17.962364,27.20334
3.505748,-1.3655088,-1.7144481,38.89768,18.780098,30.357264
3.3846672,-1.0933552,-1.8443457,39.42229,19.248768,33.515285
3.2548409,-0.7630325,-1.9707735,39.688877,19.347002,36.16357
3.1155143,-0.37798372,-2.086828,39.256516,19.063568,37.54951
2.975306,0.0068123024,-2.1779366,38.13381,18.51126,37.883926
2.8531911,0.38092515,-2.232353,36.292915,18.11695,37.61631
2.7314632,0.74394333,-2.2896814,34.44677,17.708344,36.746517
2.6049054,1.065959,-2.365069,33.053867,16.81611,35.16214
2.5003402,1.3668895,-2.424237,32.09241,15.462985,32.809475
2.4330316,1.6683953,-2.448002,31.067814,14.0246725,29.691622
2.3910651,1.9518602,-2.449248,29.26131,12.663594,26.13295
2.3893185,2.1820543,-2.414536,27.195574,11.74238,22.525616
2.4026725,2.3689923,-2.3853927,24.519306,11.060962,18.768484
2.4104078,2.5070179,-2.3798046,21.60522,10.030056,14.778726
2.417466,2.6071908,-2.3742352,18.656574,8.751845,10.563627
2.4329314,2.6705694,-2.3604918,15.893055,7.34431,6.107383
2.4699662,2.6909833,-2.3188655,13.312646,6.2373123,1.5562687
2.5133207,2.676782,-2.266609,10.858328,5.4271655,-2.9935803
2.5505273,2.6346824,-2.216729,8.184014,4.7164006,-7.2989197
2.5718436,2.5740888,-2.1789927,5.134967,3.940346,-11.240048
2.5731251,2.4873567,-2.1619585,2.1505733,2.9395058,-15.1438675
2.5585475,2.3622222,-2.1517143,-0.16871126,1.8691216,-19.370754
2.5589042,2.204928,-2.11912,-1.2829353,0.9176085,-23.91824
2.57457,2.0286832,-2.0559661,-2.3206148,0.12500745,-27.89257
2.594979,1.8583666,-1.9752568,-4.36744,-0.46995214,-30.712967
2.599837,1.6756399,-1.907649,-8.036212,-1.2117131,-32.369797
2.5828102,1.4259019,-1.8616707,-11.754109,-1.9949712,-33.80397
2.552147,1.1186831,-1.829922,-14.100007,-2.83176,-35.550747
2.524089,0.78600794,-1.7757795,-14.624488,-3.4201388,-37.48254
2.5049381,0.47474954,-1.6923441,-14.136834,-3.7241383,-38.95889
2.4802816,0.21802111,-1.5979332,-14.194563,-3.8172266,-39.433388
2.4270334,-0.010909002,-1.5253927,-14.6229515,-3.966321,-39.22991
2.3535566,-0.22196719,-1.4712077,-15.136815,-4.363515,-38.66982
2.2829602,-0.4091726,-1.4121414,-15.452263,-4.7844205,-37.94856
2.2220035,-0.5731129,-1.3452326,-15.488057,-5.0155067,-36.991333
2.1721914,-0.71765757,-1.2722197,-14.829167,-4.69025,-35.744682
2.1197588,-0.81925243,-1.2063994,-14.116672,-4.1965175,-34.42855
2.06046,-0.8901317,-1.1456177,-13.380789,-3.7523437,-32.9862
2.002728,-0.928575,-1.0844873,-12.808412,-3.3828022,-31.393066
1.9462023,-0.940636,-1.0271907,-12.573078,-3.0475874,-29.716526
1.8887283,-0.94621974,-0.9782159,-12.318486,-2.7361042,-27.966795
1.831861,-0.94135654,-0.9367431,-11.878003,-2.4590068,-26.328548
1.7806557,-0.9279905,-0.8914874,-11.187126,-2.1525586,-24.817305
1.7356522,-0.90402055,-0.84138376,-10.506367,-1.7435526,-23.40442
1.6922055,-0.8720183,-0.79181284,-9.9646,-1.1762847,-22.064043
1.6474345,-0.8508183,-0.74705404,-9.4435,-0.27895954,-20.545002
1.5961505,-0.83460546,-0.7203743,-8.56812,0.7576239,-19.134052
1.5424476,-0.82590145,-0.7153819,-6.9105983,1.6764207,-17.848717
1.4944323,-0.80019176,-0.6931126,-6.6954765,1.624235,-17.293098
1.447912,-0.7752825,-0.6715366,-6.487052,1.573674,-16.75478
1.40284,-0.75114876,-0.6506324,-6.285117,1.5246872,-16.233221
1.3591713,-0.7277664,-0.63037896,-6.0894685,1.4772254,-15.7279005
1.316862,-0.705112,-0.6107561,-5.8999114,1.4312414,-15.238311
1.27587,-0.68316287,-0.5917441,-5.7162557,1.3866888,-14.763965
1.2361541,-0.661897,-0.573324,-5.538317,1.3435234,-14.304384
1.1976746,-0.6412933,-0.5554774,-5.3659186,1.3017017,-13.859113
1.1603931,-0.6213309,-0.5381864,-5.198887,1.261182,-13.427703
1.1242722,-0.60199004,-0.5214336,-5.037055,1.2219237,-13.009723
1.0892757,-0.58325124,-0.5052024,-4.8802614,1.1838876,-12.604755
1.0553688,-0.5650958,-0.48947644,-4.7283487,1.1470355,-12.212395
1.0225173,-0.54750556,-0.47424006,-4.581165,1.1113307,-11.832248
0.9906886,-0.53046286,-0.459478,-4.4385633,1.0767374,-11.463936
0.95985067,-0.51395077,-0.44517547,-4.3004007,1.0432209,-11.107089
0.9299727,-0.49795264,-0.43131816,-4.1665387,1.0107478,-10.761351
0.9010249,-0.48245254,-0.41789225,-4.0368443,0.97928566,-10.426375
0.87297815,-0.46743497,-0.40488428,-3.9111872,0.9488028,-10.101828
0.84580445,-0.45288485,-0.39228123,-3.7894416,0.91926897,-9.787382
0.81947666,-0.4387877,-0.3800705,-3.6714857,0.8906544,-9.482725
0.7939685,-0.42512935,-0.36823988,-3.5572016,0.8629306,-9.187552
