ax,ay,az,gx,gy,gz
2.8318439,0.8218256,3.153665,-18.754715,65.69696,-32.62666
2.910059,0.87956125,3.1604953,-16.681744,69.87369,-34.355446
2.9717646,0.8535266,3.1163845,-14.76222,72.7965,-35.876442
3.0349827,0.8014985,3.0727146,-12.119468,76.67095,-38.464443
3.0667527,0.7650955,2.9867446,-11.113106,80.59482,-40.762203
3.076392,0.6922641,2.8851762,-11.20328,84.751625,-42.147484
3.0546415,0.58660823,2.743851,-11.468571,88.84096,-43.083565
3.0093212,0.4828576,2.5812583,-11.400262,92.487526,-43.713455
2.9507115,0.4119333,2.4077573,-11.710526,95.74477,-44.068893
2.878209,0.351429,2.2107642,-12.103082,98.4576,-44.348537
2.7967603,0.2784477,1.9960666,-12.590997,100.762566,-44.64109
2.7083879,0.19303134,1.7709426,-12.952324,102.76127,-44.85983
2.6144016,0.124246046,1.5284438,-13.39658,104.465744,-44.992035
2.511146,0.063568585,1.2685828,-14.090812,105.617836,-44.90885
2.3897524,0.014112569,0.9863978,-15.010496,106.26315,-44.555954
2.268281,-0.016935965,0.71168506,-16.292912,106.49174,-43.808697
2.14199,-0.026477277,0.4382406,-17.779455,106.24041,-42.831657
2.0007045,-0.02923886,0.16608803,-19.559305,105.5197,-41.6144
1.8411697,-0.031141702,-0.10841386,-21.425934,104.24052,-40.64016
1.6620862,-0.06354563,-0.39546698,-22.90355,102.47379,-39.966476
1.497438,-0.10381747,-0.6614295,-24.247429,100.22742,-39.186543
1.356418,-0.14907889,-0.89851296,-25.500866,97.743774,-38.191906
1.2407008,-0.19448933,-1.1074739,-26.66356,95.10855,-37.05821
1.136607,-0.24286419,-1.3009481,-27.363098,92.243004,-36.040314
1.0324303,-0.30257326,-1.4832805,-27.590673,89.35586,-35.2147
0.91961944,-0.36521876,-1.6584074,-27.50605,86.31374,-34.364162
0.80108017,-0.4209525,-1.8185956,-26.998547,83.0786,-33.60009
0.67866343,-0.46579248,-1.9634676,-26.29128,79.63785,-32.852142
0.5597785,-0.50610924,-2.0934143,-25.314148,75.96127,-32.078754
0.43499002,-0.54349756,-2.2276063,-24.052574,72.10367,-31.469334
0.3042021,-0.571929,-2.3650372,-22.467478,67.851074,-30.982489
0.18375419,-0.56928706,-2.4849465,-20.892708,63.26989,-30.551327
0.07450761,-0.5372991,-2.5779567,-19.812283,58.605324,-29.98082
-0.032692023,-0.5014294,-2.6507773,-19.329805,53.76111,-29.27084
-0.14237452,-0.4841699,-2.7182426,-19.003403,48.750706,-28.553638
-0.2353747,-0.4845082,-2.776693,-18.418024,43.53949,-27.948444
-0.30431068,-0.48392162,-2.8130143,-17.384377,38.25686,-27.500801
-0.35445163,-0.4660236,-2.8182082,-16.219193,33.006504,-27.004515
-0.39087114,-0.4281084,-2.79577,-15.376239,27.733732,-26.448677
-0.404588,-0.38305545,-2.7517896,-14.858642,22.4859,-26.006023
-0.39721698,-0.3566957,-2.6953166,-14.612384,17.33612,-25.639006
-0.37457457,-0.35641965,-2.6279752,-14.47355,12.418663,-25.352037
-0.34984,-0.3851016,-2.5598788,-14.09343,7.7469196,-25.18629
-0.3285423,-0.41878128,-2.4884958,-13.415517,3.163918,-24.971767
-0.28788722,-0.42690915,-2.404406,-12.9352865,-1.3561343,-24.619
-0.2304843,-0.42819804,-2.305876,-12.729696,-5.650627,-24.145254
-0.1647147,-0.4335757,-2.1963956,-12.816998,-9.645793,-23.64473
-0.10490904,-0.46514428,-2.0872464,-12.768877,-13.33635,-23.250349
-0.053872854,-0.51225775,-1.9832842,-12.100461,-16.810488,-23.046555
0.010744856,-0.5427631,-1.8649478,-11.3011465,-20.083344,-22.75767
0.09041731,-0.55430585,-1.7282866,-10.685315,-23.010523,-22.261856
0.17957695,-0.55560446,-1.5721476,-10.216077,-25.54036,-21.635565
0.26995748,-0.5522436,-1.4026012,-9.80343,-27.621279,-20.971912
0.36459124,-0.5383317,-1.218572,-9.349445,-29.148893,-20.43675
0.47157398,-0.50797576,-1.0128635,-8.9730015,-30.247673,-19.903273
0.588974,-0.46609777,-0.7926167,-8.690971,-30.868902,-19.417648
0.71718687,-0.4167696,-0.5605718,-8.664106,-30.951674,-18.867455
0.8489276,-0.36797836,-0.32861954,-8.954242,-30.56339,-18.245117
0.9830057,-0.33687767,-0.100729436,-9.383544,-29.419325,-17.736809
1.1074662,-0.34414542,0.10782542,-9.342321,-27.763248,-17.594471
1.2219511,-0.36405233,0.3012631,-8.977405,-25.6719,-17.661337
1.3308733,-0.38293839,0.48297238,-8.575825,-23.204895,-17.64085
1.4377213,-0.38216475,0.6546475,-8.53931,-20.350233,-17.3232
1.5283678,-0.36951983,0.80417377,-8.789416,-17.00576,-16.931913
1.5889723,-0.35978648,0.911952,-8.930809,-13.4344225,-16.70528
1.625995,-0.35452744,0.9859329,-8.775343,-9.769413,-16.682346
1.6476597,-0.34778047,1.035321,-8.449115,-6.1857915,-16.650415
1.670416,-0.32561788,1.0811856,-8.206141,-2.5611472,-16.441885
1.6800158,-0.28800812,1.1227617,-8.1136465,1.1892047,-16.238419
1.6392637,-0.27120346,1.1208243,-7.767335,4.7206388,-16.203297
1.584491,-0.26027596,1.0798203,-7.1468945,7.6466618,-16.169346
1.5522028,-0.24150777,1.0445646,-6.385965,10.23881,-16.299538
1.5516883,-0.21834281,1.026288,-5.468015,12.89839,-16.801397
1.5612128,-0.20003216,1.0046808,-4.7622523,15.863323,-17.598392
1.5667816,-0.19825712,0.95755243,-4.6249156,18.92623,-18.286098
1.5617254,-0.22514713,0.88168216,-4.824281,21.933342,-18.866304
1.5460856,-0.28321534,0.78119487,-4.9766464,24.693768,-19.385126
1.5274806,-0.36526087,0.6714382,-4.9698358,27.177422,-19.657682
1.5106783,-0.4399427,0.566284,-4.7456126,29.493809,-19.67104
1.4995589,-0.48159343,0.46755984,-4.644104,31.81219,-19.555014
1.4797571,-0.510432,0.3599575,-4.7054696,34.048023,-19.346586
1.4390607,-0.54227656,0.23882242,-4.9243374,36.048504,-19.07571
1.3787212,-0.5870963,0.10305282,-5.145764,37.679394,-18.75978
1.3183688,-0.6384317,-0.03499368,-5.0645666,38.996986,-18.36958
1.2552993,-0.6744557,-0.16846162,-4.836416,40.10554,-17.917065
1.1810266,-0.6967047,-0.29555827,-4.552318,41.002335,-17.44454
1.0927423,-0.7108682,-0.42399585,-4.2102213,41.583153,-17.088629
0.99346983,-0.72759163,-0.5586913,-3.752677,41.657238,-16.776588
0.89375126,-0.7439395,-0.6839892,-2.9652462,41.08406,-16.48978
0.810114,-0.7356365,-0.7807345,-2.088078,40.230713,-16.219767
0.7373706,-0.70930237,-0.85357666,-1.4853872,39.394905,-15.874181
0.6652739,-0.68724775,-0.9184101,-1.0680832,38.589413,-15.465025
0.5980273,-0.6651404,-0.97699577,-0.86652315,37.75212,-14.988567
0.5342538,-0.6338442,-1.0238397,-0.89670336,36.79615,-14.55012
0.4742789,-0.5936521,-1.0543756,-1.2180377,35.767292,-14.142704
0.41754252,-0.5623596,-1.0760355,-1.8613671,34.74994,-13.7042465
0.3678483,-0.5440281,-1.090728,-2.8602777,33.827644,-13.21475
0.32343996,-0.53405696,-1.0944872,-4.1882553,33.207214,-12.75975
0.28118032,-0.51840043,-1.0897536,-5.6060157,32.94389,-12.574652
0.25849473,-0.4729031,-1.0678312,-7.3051987,32.87573,-12.326745
0.25042126,-0.45813307,-1.03448,-7.077038,31.848934,-11.941749
0.24260157,-0.44382733,-1.0021771,-6.856049,30.854414,-11.568853
0.23502754,-0.42997104,-0.9708891,-6.642003,29.891138,-11.207673
0.22769131,-0.41654977,-0.94058347,-6.434677,28.958105,-10.857833
0.2205853,-0.4035497,-0.91122884,-6.2338576,28.054354,-10.518971
0.21370219,-0.3909574,-0.8827949,-6.039337,27.17895,-10.190739
0.20703486,-0.37875983,-0.8552525,-5.850915,26.330988,-9.872796
0.20057645,-0.36694452,-0.8285731,-5.668397,25.5096,-9.564817
0.19432037,-0.35549933,-0.8027295,-5.4915967,24.713942,-9.266485
0.18826017,-0.34441248,-0.777695,-5.3203325,23.943197,-8.977494
0.18238966,-0.3336727,-0.7534442,-5.1544285,23.196577,-8.69755
0.17670284,-0.32326895,-0.72995216,-4.9937162,22.47332,-8.426364
0.1711939,-0.3131906,-0.707195,-4.8380303,21.772684,-8.163662
0.16585724,-0.30342746,-0.68514943,-4.6872134,21.09396,-7.909174
0.1606874,-0.2939695,-0.663793,-4.541111,20.436453,-7.662642
0.15567914,-0.28480715,-0.64310414,-4.399575,19.799496,-7.423815
0.15082738,-0.27593106,-0.62306166,-4.2624617,19.18244,-7.1924505
0.14612716,-0.2673323,-0.6036453,-4.129631,18.584661,-6.968313
0.14157376,-0.25900203,-0.58483535,-4.0009494,18.005552,-6.7511764
0.13716252,-0.25093192,-0.5666127,-3.8762856,17.444525,-6.540819
0.132889,-0.24311373,-0.548959,-3.7555137,16.901012,-6.33703
0.12874888,-0.23553959,-0.5318563,-3.6385117,16.374466,-6.139601
0.124737956,-0.2282018,-0.5152874,-3.5251608,15.864351,-5.9483337
0.120852195,-0.22109298,-0.49923542,-3.415347,15.370154,-5.763035
0.117087655,-0.21420597,-0.4836843,-3.3089592,14.891375,-5.5835166
0.11344055,-0.20753378,-0.46861824,-3.2058902,14.427531,-5.4095984
0.1099072,-0.20106968,-0.45402214,-3.1060357,13.978154,-5.241105
0.10648404,-0.19480719,-0.4398812,-3.0092955,13.542792,-5.077866
0.10316762,-0.18873997,-0.42618123,-2.9155717,13.121005,-4.9197173
0.09995461,-0.18286192,-0.41290838,-2.8247702,12.71237,-4.7664995
0.09684177,-0.17716712,-0.40004936,-2.7367997,12.316474,-4.618058
0.09382595,-0.17164986,-0.38759115,-2.6515713,11.932919,-4.474244
0.09090415,-0.16630456,-0.3755213,-2.5689995,11.561319,-4.3349133
0.08807341,-0.16112585,-0.36382762,-2.4890013,11.201302,-4.1999245
0.08533088,-0.15610856,-0.35249838,-2.4114962,10.852504,-4.069143
0.082673825,-0.15124759,-0.3415222,-2.3364062,10.514575,-3.942437
0.08009956,-0.14653811,-0.330888,-2.2636561,10.187177,-3.8196788
0.07760551,-0.14197537,-0.32058516,-2.193173,9.86998,-3.7007458
0.075189166,-0.13755478,-0.31060335,-2.1248856,9.562665,-3.5855184
0.0728481,-0.13327192,-0.3009325,-2.0587258,9.264924,-3.4738808
0.07057996,-0.12912248,-0.2915629,-1.994627,8.9764595,-3.365721
0.06838248,-0.1251023,-0.2824852,-1.932525,8.69698,-3.2609303
0.066253446,-0.12120734,-0.27369025,-1.8723575,8.426208,-3.159404
0.06419073,-0.117433704,-0.26516926,-1.8140641,8.163869,-3.0610402
0.062192265,-0.11377761,-0.2569137,-1.7575864,7.909701,-2.96574
0.060256038,-0.110235386,-0.24891523,-1.7028676,7.663449,-2.8734078
0.05838012,-0.106803484,-0.24116588,-1.6498531,7.4248667,-2.7839515
0.05656262,-0.10347846,-0.23365787,-1.5984896,7.1937146,-2.6972811
0.054801725,-0.10025699,-0.22638367,-1.5487258,6.9697614,-2.6133099
0.053095665,-0.09713584,-0.219336,-1.5005116,6.7527823,-2.5319538
0.05144273,-0.09411188,-0.21250781,-1.4537989,6.54256,-2.453131
0.04984127,-0.09118209,-0.20589225,-1.4085407,6.338884,-2.3767626
0.04828968,-0.08834353,-0.19948268,-1.364692,6.14155,-2.3027725
0.0467864,-0.08559336,-0.1932727,-1.3222085,5.9503613,-2.2310863
0.045329932,-0.08292882,-0.18725608,-1.2810479,5.7651253,-2.161632
0.04391881,-0.08034725,-0.1814268,-1.2411689,5.5856566,-2.0943403
0.042551626,-0.07784606,-0.17577901,-1.2025316,5.4117765,-2.029144
0.041227013,-0.07542274,-0.17030708,-1.1650972,5.24331,-1.9659775
0.03994364,-0.07307487,-0.16500552,-1.1288284,5.0800886,-1.9047778
0.038700223,-0.0708001,-0.15986903,-1.0936888,4.9219494,-1.8454834
0.03749552,-0.06859616,-0.15489244,-1.0596433,4.7687335,-1.7880353
0.036328323,-0.06646083,-0.1500708,-1.0266577,4.620288,-1.7323755
0.035197463,-0.064391986,-0.14539927,-0.994699,4.476464,-1.6784487
0.034101814,-0.06238755,-0.1408732,-0.96373534,4.337117,-1.6262008
0.03304027,-0.06044551,-0.136488,-0.9337356,4.202109,-1.5755795
0.03201178,-0.058563937,-0.13223934,-0.9046699,4.071304,-1.5265341
0.031015305,-0.056740936,-0.12812296,-0.87650895,3.9445708,-1.4790156
0.030049853,-0.05497469,-0.124134704,-0.8492248,3.821783,-1.4329765
0.029114455,-0.05326343,-0.12027062,-0.82278997,3.702818,-1.3883705
0.02820818,-0.05160544,-0.11652683,-0.7971781,3.5875564,-1.3451532
0.027330115,-0.049999066,-0.11289958,-0.77236354,3.475883,-1.3032813
0.026479386,-0.0484427,-0.10938525,-0.7483215,3.367686,-1.2627128
0.02565514,-0.046934783,-0.10598033,-0.72502786,3.2628572,-1.2234074
0.024856552,-0.045473807,-0.10268139,-0.70245934,3.1612916,-1.1853254
0.024082825,-0.04405831,-0.09948516,-0.6805934,3.062888,-1.1484289
0.023333183,-0.04268688,-0.09638842,-0.6594081,2.9675474,-1.112681
0.022606878,-0.04135814,-0.09338808,-0.63888234,2.8751748,-1.078046
0.02190318,-0.040070765,-0.09048114,-0.6189955,2.7856777,-1.044489
0.02122139,-0.038823463,-0.087664686,-0.59972775,2.6989665,-1.0119767
0.020560822,-0.037614986,-0.08493591,-0.58105975,2.6149547,-0.98047644
