ax,ay,az,gx,gy,gz
2.136383,0.20909281,2.2663844,4.383676,29.29754,-20.641096
2.274376,0.28480685,2.3676887,4.1560793,34.182976,-21.682608
2.3634481,0.38440436,2.4453492,2.8129761,39.645454,-21.855305
2.3985908,0.448445,2.4477117,1.4667847,45.823063,-22.152916
2.3700619,0.5158365,2.382065,-0.43640432,50.618816,-22.237774
2.3334785,0.56749636,2.3148654,-2.909584,54.33244,-22.102938
2.3152838,0.60938734,2.2679274,-5.203556,57.57143,-22.206282
2.2786794,0.6320842,2.2120152,-6.8813744,60.43806,-23.258444
2.2425144,0.6239801,2.1522033,-8.186927,63.304897,-24.472588
2.2529547,0.59454155,2.0796506,-9.398582,65.865425,-25.194077
2.3038874,0.580593,2.026703,-11.715766,68.35248,-24.79681
2.3560197,0.5973418,1.9918365,-16.069967,71.2452,-22.923426
2.3773422,0.5862514,1.9180965,-20.320553,74.50251,-21.858862
2.3856497,0.50560415,1.8093085,-22.194935,78.81129,-23.329102
2.3651729,0.38700587,1.6302869,-23.654932,83.10783,-24.648476
2.294048,0.2766226,1.398932,-25.22465,86.530975,-25.216682
2.1953664,0.15679525,1.1481068,-26.391647,89.18259,-25.270428
2.0720751,0.040454432,0.8961634,-26.856718,91.21103,-25.033329
1.922567,-0.05581427,0.6412309,-25.984571,92.43621,-25.21714
1.7613689,-0.12075987,0.38867348,-24.807392,93.03724,-25.311968
1.6060553,-0.16182622,0.1523113,-23.687536,93.10177,-25.106274
1.4452314,-0.19338706,-0.0760923,-22.458284,92.67614,-25.064016
1.2757698,-0.22285683,-0.2934137,-21.136883,91.813255,-25.12641
1.0923241,-0.25980863,-0.51091963,-19.583109,89.974,-24.954826
0.91495407,-0.29014286,-0.7182243,-17.99293,87.67734,-24.593727
0.7417546,-0.31164226,-0.91629046,-16.37103,84.7887,-24.32067
0.59006923,-0.31377465,-1.081662,-14.938581,81.545265,-24.242428
0.45713657,-0.32355297,-1.228203,-13.599095,78.0377,-24.325176
0.35028917,-0.34773105,-1.3521322,-12.366861,74.43791,-24.381582
0.26299864,-0.379691,-1.4572152,-11.267911,70.84811,-24.357206
0.1799618,-0.4119246,-1.5558152,-10.3083315,67.269356,-24.230633
0.10041618,-0.4383756,-1.6451759,-9.456777,63.730083,-24.0742
0.02267939,-0.4556895,-1.7281318,-8.824259,60.197617,-23.833746
-0.06533713,-0.4730002,-1.8116242,-8.442894,56.320015,-23.337105
-0.14866431,-0.4778546,-1.8847266,-8.07944,52.39537,-22.935661
-0.21905102,-0.47330138,-1.9500158,-7.9078746,48.456795,-22.473207
-0.2755557,-0.45449227,-2.0027773,-7.9089007,44.60872,-22.075687
-0.32964888,-0.43051875,-2.0459497,-8.1447935,40.849976,-21.768467
-0.3965108,-0.41460955,-2.088633,-8.531741,36.834606,-21.38358
-0.4673931,-0.40785915,-2.1364744,-9.007581,32.604256,-21.079294
-0.5320784,-0.4222017,-2.1837056,-9.558755,28.175354,-20.753649
-0.5835505,-0.45838836,-2.2306714,-9.855166,23.501812,-20.392334
-0.6141836,-0.49891284,-2.261798,-9.752143,18.822311,-20.129463
-0.6153058,-0.5137295,-2.2654028,-9.533038,14.294282,-19.87155
-0.5890794,-0.4845132,-2.238858,-9.665095,9.980687,-19.586203
-0.56047744,-0.4535332,-2.2012982,-10.264597,5.896716,-19.149492
-0.5417878,-0.43888003,-2.1740549,-11.127959,1.9011582,-18.713953
-0.5407662,-0.45617026,-2.163009,-12.014868,-2.2000802,-18.329578
-0.54060364,-0.5045785,-2.1576219,-12.20246,-6.5221195,-18.164543
-0.50945884,-0.5380904,-2.1238997,-11.977047,-10.86186,-18.037043
-0.44677806,-0.5393016,-2.0577638,-11.84072,-14.997573,-17.770428
-0.37026465,-0.52603453,-1.9711823,-11.998469,-18.771374,-17.389118
-0.30273992,-0.5190179,-1.8823131,-12.252148,-22.222288,-17.081434
-0.24413972,-0.51529187,-1.7889676,-12.524731,-25.48056,-16.819809
-0.1754946,-0.5081929,-1.6843516,-12.973188,-28.65407,-16.543663
-0.09026869,-0.51178366,-1.567185,-13.467576,-31.690624,-16.30184
0.013717185,-0.5273775,-1.4346263,-13.851602,-34.423767,-16.181229
0.12177857,-0.5568279,-1.2891271,-13.93571,-36.682117,-16.21901
0.22534817,-0.5750631,-1.1316558,-13.633984,-38.510597,-16.422932
0.35298967,-0.53792804,-0.93238664,-13.649131,-39.884434,-16.693157
0.50084937,-0.49310485,-0.71263146,-13.774768,-40.682476,-17.20764
0.6487814,-0.4634901,-0.48910037,-13.931612,-40.898907,-17.929533
0.7957716,-0.45671976,-0.26729736,-14.181605,-40.563416,-18.444862
0.9429078,-0.46098498,-0.048996676,-14.814598,-39.564487,-18.306702
1.0930039,-0.47617173,0.16087608,-15.325731,-38.128532,-18.043686
1.2424394,-0.49421152,0.36512598,-15.47646,-36.179142,-17.862152
1.3904872,-0.50381917,0.5641401,-15.455807,-33.605457,-17.700464
1.5237452,-0.5091354,0.739733,-15.429964,-30.478247,-17.497404
1.6327868,-0.5151991,0.8805524,-15.403042,-26.814825,-17.230972
1.7171344,-0.5246951,0.9879617,-15.22135,-22.9665,-16.961782
1.7831339,-0.53419304,1.064665,-14.932998,-18.997623,-16.64715
1.8466254,-0.53806597,1.1294115,-14.735705,-14.809199,-16.234278
1.9017944,-0.54181087,1.1711869,-14.52944,-10.451055,-15.877702
1.9446802,-0.54692304,1.1871655,-14.225433,-5.9848266,-15.65675
1.9640145,-0.5600723,1.1744254,-13.873403,-1.640056,-15.4159975
1.9765137,-0.5655129,1.1525452,-13.683553,2.5992212,-15.061417
1.9842111,-0.568658,1.1197455,-13.67933,6.7445803,-14.612279
1.9810777,-0.577891,1.0701684,-13.677173,10.735817,-14.081394
1.9687058,-0.5942398,1.0074008,-13.605759,14.589854,-13.685212
1.9543066,-0.61790997,0.9448674,-13.773339,18.340311,-13.0690155
1.9427981,-0.6287501,0.88901573,-14.4277525,21.992733,-12.070824
1.9342104,-0.6294505,0.82699895,-15.383882,25.500597,-10.935711
1.9212428,-0.6540684,0.7496424,-16.023186,28.941769,-10.119339
1.8995115,-0.70059466,0.65958333,-16.035599,32.310875,-9.482675
1.8646518,-0.74578786,0.55453146,-15.802168,35.51454,-8.785875
1.8214235,-0.78291047,0.4400582,-15.325119,38.42797,-8.046166
1.7776294,-0.80971533,0.32741886,-14.821181,41.158356,-7.1672807
1.7224643,-0.82678854,0.2146368,-14.05761,43.751938,-6.3489366
1.651497,-0.82337767,0.09732374,-13.0772,46.102222,-5.765232
1.5580584,-0.7956304,-0.02509838,-12.2044525,48.14254,-5.215374
1.4522986,-0.7632192,-0.15531911,-11.347943,49.770115,-4.799598
1.3383373,-0.7265748,-0.2892083,-10.59124,50.90074,-4.536541
1.2194394,-0.6915605,-0.42261347,-9.97695,51.504543,-4.404083
1.1008611,-0.6648198,-0.5513287,-9.282774,51.518204,-4.4801817
0.99832416,-0.63385653,-0.66656005,-8.621987,51.275574,-4.653164
0.90349686,-0.6010253,-0.7754634,-7.9801583,50.79059,-4.895111
0.8130056,-0.5714495,-0.88527656,-7.4234495,50.028934,-5.1065407
0.72477305,-0.544025,-0.99115926,-7.025468,49.0185,-5.26933
0.6390385,-0.52402616,-1.093863,-6.8688745,47.72711,-5.3564363
0.55912644,-0.5118419,-1.1880859,-6.7686934,46.281902,-5.398846
0.49459583,-0.4971987,-1.2682887,-6.7746058,44.809723,-5.4437323
0.44836253,-0.48017424,-1.3286399,-6.997604,43.543884,-5.439556
0.41941023,-0.4620612,-1.3685815,-7.590891,42.662735,-5.3173747
0.39960754,-0.4442047,-1.3994968,-8.719948,42.316013,-5.067555
0.37309217,-0.4369266,-1.4391478,-9.958351,42.031605,-4.800826
0.3426343,-0.44135985,-1.4823294,-11.207433,41.615204,-4.4662943
0.31044817,-0.46356243,-1.5325186,-12.367841,40.93,-4.0203557
0.30076382,-0.44910175,-1.4847121,-11.98203,39.653202,-3.8949416
0.29138282,-0.435094,-1.4384031,-11.608304,38.416393,-3.7734563
0.28229558,-0.42152488,-1.3935442,-11.24628,37.218315,-3.6557748
0.27349275,-0.40838048,-1.3500893,-10.895587,36.05774,-3.541777
0.2649654,-0.39564738,-1.3079942,-10.555868,34.933475,-3.4313462
0.25670475,-0.38331258,-1.2672158,-10.226775,33.84438,-3.3243694
0.24870244,-0.3713635,-1.2277126,-9.907974,32.78934,-3.2207382
0.24095029,-0.35978794,-1.1894443,-9.599138,31.767286,-3.1203465
0.23344041,-0.34857416,-1.1523721,-9.299955,30.777172,-3.0230925
0.2261652,-0.3377108,-1.1164582,-9.01012,29.817995,-2.928877
0.21911725,-0.32718676,-1.0816661,-8.72934,28.888783,-2.837605
0.21228942,-0.31699142,-1.0479608,-8.457328,27.98859,-2.7491834
0.2056748,-0.30711442,-1.0153078,-8.1938095,27.116507,-2.663523
0.19926667,-0.2975458,-0.9836743,-7.9385185,26.271648,-2.5805366
0.19305857,-0.2882758,-0.95302814,-7.691196,25.453161,-2.5001407
0.1870442,-0.27929515,-0.9233384,-7.451592,24.660217,-2.4222536
0.1812175,-0.27059472,-0.8945751,-7.2194643,23.892017,-2.346797
0.1755726,-0.2621657,-0.8667092,-6.9945784,23.147783,-2.2736945
0.17010377,-0.25399965,-0.8397125,-6.7767076,22.426764,-2.2028723
0.16480553,-0.24608827,-0.81355786,-6.565633,21.728233,-2.134259
0.15967251,-0.23842363,-0.78821886,-6.3611403,21.051489,-2.0677857
0.15469955,-0.230998,-0.76366997,-6.163024,20.395845,-2.003385
0.14988165,-0.22380388,-0.7398865,-5.971085,19.760645,-1.9409924
0.14521395,-0.21683404,-0.71684456,-5.78513,19.145247,-1.8805448
0.14069174,-0.21008147,-0.69452083,-5.604972,18.549032,-1.8219815
0.1363105,-0.20353939,-0.672893,-5.430429,17.971403,-1.7652438
0.13206582,-0.1972012,-0.65193915,-5.2613263,17.411776,-1.7102743
0.12795341,-0.19106054,-0.6316384,-5.0974936,16.86959,-1.6570181
0.12396916,-0.18511125,-0.6119703,-4.9387665,16.3443,-1.6054213
0.12010906,-0.17934734,-0.592915,-4.784985,15.835378,-1.5554324
0.11636923,-0.173763,-0.5744535,-4.6359954,15.342313,-1.507001
0.112745926,-0.16835268,-0.55656713,-4.4916477,14.864611,-1.4600786
0.1092355,-0.1631109,-0.539238,-4.351797,14.401791,-1.414618
0.10583444,-0.15803242,-0.5224487,-4.2163033,13.953388,-1.3705736
0.10253932,-0.15311213,-0.5061825,-4.08503,13.518954,-1.3279014
0.09934685,-0.14834511,-0.4904229,-3.9578462,13.098053,-1.2865583
0.09625381,-0.14372657,-0.47515425,-3.8346238,12.690263,-1.246503
0.093257114,-0.1392519,-0.46036112,-3.7152393,12.295173,-1.2076952
0.09035376,-0.13491659,-0.44602877,-3.5995731,11.912389,-1.1700962
0.08754082,-0.1307163,-0.43214276,-3.4875095,11.541527,-1.1336682
0.08481549,-0.12664682,-0.41868925,-3.3789358,11.182214,-1.0983747
0.082175024,-0.122704074,-0.4056547,-3.2737436,10.834091,-1.0641803
0.07961679,-0.11888412,-0.39302605,-3.171827,10.49681,-1.0310508
0.07713822,-0.11518311,-0.38079068,-3.073084,10.170032,-0.9989529
0.07473684,-0.11159735,-0.3689363,-2.9774163,9.853429,-0.96785456
0.07241023,-0.10812325,-0.35745108,-2.8847272,9.546685,-0.9377246
0.07015607,-0.104757324,-0.34632346,-2.7949245,9.249493,-0.90853286
0.0679721,-0.10149621,-0.33554235,-2.707918,8.961555,-0.88025004
0.06585613,-0.09833663,-0.3250969,-2.6236203,8.682581,-0.8528479
0.06380604,-0.09527543,-0.31497672,-2.5419476,8.412294,-0.8262989
0.061819784,-0.09230955,-0.3051716,-2.462818,8.150423,-0.8005765
0.059895366,-0.089436,-0.2956718,-2.3861518,7.8967047,-0.77565503
0.05803087,-0.08665193,-0.28646776,-2.3118725,7.650886,-0.7515094
0.05622442,-0.08395453,-0.27755028,-2.239906,7.4127207,-0.7281156
0.054474212,-0.08134111,-0.2689104,-2.17018,7.1819706,-0.7054502
0.052778494,-0.07880906,-0.26053956,-2.102625,6.958404,-0.68349034
0.05113557,-0.07635584,-0.2524293,-2.037173,6.7417984,-0.66221416
0.04954379,-0.07397899,-0.24457154,-1.9737587,6.5319357,-0.6416004
0.04800157,-0.071676135,-0.2369584,-1.9123186,6.3286066,-0.62162834
0.04650736,-0.06944498,-0.22958227,-1.8527912,6.1316075,-0.60227805
0.045059666,-0.06728327,-0.22243577,-1.795117,5.940741,-0.5835302
0.043657042,-0.06518887,-0.21551175,-1.7392384,5.755817,-0.56536597
0.042298082,-0.06315967,-0.2088033,-1.6850992,5.576649,-0.5477672
0.040981427,-0.06119363,-0.20230366,-1.6326455,5.4030595,-0.5307163
0.03970576,-0.0592888,-0.19600637,-1.5818247,5.2348733,-0.5141962
0.038469806,-0.05744327,-0.18990512,-1.5325859,5.0719233,-0.4981904
0.037272327,-0.05565519,-0.18399379,-1.4848799,4.9140453,-0.48268285
0.036112126,-0.05392277,-0.17826648,-1.438659,4.7610826,-0.46765804
0.03498804,-0.05224428,-0.17271747,-1.3938769,4.612881,-0.45310095
0.033898946,-0.05061804,-0.16734119,-1.3504888,4.469293,-0.438997
0.032843754,-0.049042426,-0.16213228,-1.3084514,4.330175,-0.4253321
0.03182141,-0.047515858,-0.1570855,-1.2677226,4.195388,-0.4120926
0.030830892,-0.04603681,-0.15219583,-1.2282617,4.064796,-0.3992652
