ax,ay,az,gx,gy,gz
0.5172774,0.5745507,0.9527359,4.0509458,-6.103692,-13.761034
0.58337414,0.45564803,1.0252848,7.180883,-5.69646,-14.82354
0.57743627,0.4877552,1.1654468,11.349761,-4.9009995,-15.417991
0.8015733,0.66823834,1.4857905,13.44219,-2.640446,-15.468668
1.1305697,0.93574077,1.8668333,12.403722,1.5054746,-15.439335
1.4526843,1.1308962,2.1976752,10.260177,6.8015695,-15.328732
1.7227693,1.2419529,2.4857452,8.656325,12.677998,-15.170629
1.9752606,1.420781,2.7686508,6.7784624,19.675188,-15.13574
2.2335846,1.7936078,3.066392,3.0383594,26.726704,-16.048437
2.4276903,2.0530102,3.2955608,-2.319967,33.93367,-17.503716
2.5342395,2.0945168,3.388504,-7.272887,41.04445,-19.469053
2.5636833,1.9680855,3.345987,-10.458583,47.294132,-22.182442
2.5698814,1.7435325,3.240008,-11.499096,52.52049,-24.91544
2.5659115,1.5246547,3.1117077,-11.598035,56.958244,-27.297173
2.5499406,1.3475175,2.97458,-11.498706,60.939983,-29.419071
2.5144215,1.1786305,2.818132,-11.186777,64.6049,-31.391241
2.457362,1.0063478,2.6297948,-10.743246,67.944275,-33.179012
2.3796902,0.822212,2.407535,-9.828663,70.5909,-34.524536
2.288461,0.6599759,2.1676242,-8.662216,72.6947,-35.546753
2.2008507,0.5321151,1.9294935,-7.586533,74.485565,-36.434105
2.1036525,0.4179223,1.6779878,-6.739374,75.97662,-37.237865
1.9950036,0.30085245,1.4158177,-5.841685,77.16503,-38.007206
1.8897564,0.18571626,1.1509262,-4.9625497,78.062614,-38.452698
1.7680161,0.10857485,0.85951406,-4.5957556,78.45835,-38.646015
1.6250607,0.039273586,0.5557643,-4.5891333,77.922005,-38.842182
1.4789464,-0.053962376,0.27748966,-4.3717136,76.68352,-39.066418
1.351387,-0.16162394,0.03337554,-3.8835425,74.986786,-39.099224
1.2485377,-0.2665409,-0.17718984,-3.2319393,73.20463,-38.477203
1.1506733,-0.3329652,-0.3645096,-2.4120052,71.3138,-37.750664
1.049819,-0.36799616,-0.5254128,-1.5709172,69.1773,-37.0178
0.96235824,-0.37992382,-0.65684664,-1.086242,67.00495,-36.205124
0.8766524,-0.3885937,-0.77440363,-0.9277888,64.78768,-35.26093
0.78489894,-0.3946931,-0.881883,-0.86380416,62.3536,-34.438427
0.68647105,-0.4085361,-0.97440886,-0.8417849,59.771534,-33.588852
0.5838114,-0.42595226,-1.0573449,-0.7142974,56.96202,-32.760857
0.48793086,-0.44353798,-1.131613,-0.5256136,54.008232,-31.978128
0.40105554,-0.46458468,-1.1999348,-0.16177714,50.928993,-31.230337
0.32814166,-0.47584903,-1.2614882,0.31642032,47.670795,-30.574156
0.26934335,-0.46709663,-1.3115791,0.6723783,44.35969,-29.890917
0.22398926,-0.44844455,-1.3514512,0.7169747,41.070503,-29.101465
0.18955807,-0.42909464,-1.3820287,0.58935064,37.92617,-28.288704
0.15650082,-0.41251883,-1.41363,0.5244115,34.84703,-27.608923
0.123554535,-0.39735186,-1.4445447,0.55352044,31.717436,-26.97226
0.10314866,-0.36679524,-1.4680157,0.48232633,28.596693,-26.229738
0.09988838,-0.3241363,-1.4910107,0.20909764,25.579134,-25.450521
0.11139447,-0.2696437,-1.5245092,-0.44719243,22.658365,-24.71245
0.1157989,-0.2253375,-1.5600775,-1.6831334,19.86439,-23.983768
0.08689272,-0.22762388,-1.5966707,-2.988196,17.070885,-23.140255
0.011002283,-0.27124342,-1.655938,-3.783202,13.956333,-22.40125
-0.06009558,-0.32483822,-1.7161206,-3.8577173,10.432896,-21.780382
-0.089232735,-0.36164016,-1.7495741,-3.472359,6.6700134,-21.080797
-0.07371938,-0.36346456,-1.7398218,-3.1591818,2.9760692,-20.30979
-0.04600081,-0.3506875,-1.6941602,-3.2452993,-0.4469317,-19.635374
-0.03206371,-0.3517623,-1.6343153,-3.5271575,-3.7493873,-18.994423
-0.021162605,-0.36515376,-1.5671883,-3.8045964,-7.013972,-18.2924
0.0026037623,-0.37726018,-1.4864277,-3.9409056,-10.22283,-17.64843
0.0396434,-0.38264447,-1.3851658,-3.835386,-13.316695,-17.146355
0.088355556,-0.37888727,-1.260263,-3.6036692,-16.06874,-16.720427
0.14643034,-0.36072668,-1.1095173,-3.473982,-18.454996,-16.245953
0.20540568,-0.3277719,-0.94790673,-3.5854793,-20.551706,-15.764496
0.26944757,-0.29084697,-0.7770854,-3.9527736,-22.34253,-15.365435
0.33963853,-0.26577622,-0.6006133,-4.4396834,-23.74241,-15.075269
0.41340032,-0.25751,-0.4217769,-4.8327475,-24.606392,-14.891822
0.488032,-0.2621689,-0.23999307,-5.088224,-25.042994,-14.775749
0.56039095,-0.27374622,-0.0642895,-5.097322,-25.071854,-14.728461
0.62751853,-0.28139633,0.10387509,-4.955197,-24.786152,-14.700416
0.6928157,-0.28311422,0.2675483,-4.794438,-24.11503,-14.636146
0.7525484,-0.27911174,0.42217416,-4.5082984,-22.997974,-14.659974
0.80829316,-0.2633312,0.56655645,-4.260999,-21.567575,-14.68495
0.86048263,-0.23800246,0.70030415,-4.154338,-19.821112,-14.677937
0.8999804,-0.21230769,0.81514055,-4.148373,-17.85688,-14.729455
0.92462265,-0.19458775,0.91033214,-4.1464853,-15.771538,-14.8996105
0.9431156,-0.18932964,0.98992944,-3.892722,-13.617505,-15.226946
0.96372694,-0.1889386,1.0568829,-3.3608317,-11.45507,-15.6305895
0.98790663,-0.18143262,1.122082,-2.6337087,-9.191507,-16.102207
1.0102509,-0.16053331,1.1795465,-1.9303788,-6.855244,-16.597
1.0301907,-0.13503647,1.2233447,-1.253851,-4.4639745,-17.268616
1.0443654,-0.12079143,1.2510636,-0.4258475,-1.986646,-18.325108
1.0499074,-0.13329369,1.2570254,0.8317616,0.50272727,-19.736359
1.0513607,-0.13785604,1.2492371,2.3450031,2.9307961,-21.355957
1.0542792,-0.1125632,1.2335409,3.453677,5.297761,-23.102076
1.0549945,-0.09321653,1.2078043,3.907917,7.682626,-24.8515
1.049804,-0.12038992,1.1625731,4.1651564,10.117531,-26.475563
1.0443399,-0.17542584,1.1003076,4.4563627,12.430166,-27.709806
1.044769,-0.21983886,1.0377742,4.559877,14.6744795,-28.57085
1.0471314,-0.2506483,0.9725929,4.6025863,16.80681,-29.325766
1.0438633,-0.2779321,0.9079858,4.3853583,18.871075,-29.769262
1.0333278,-0.30748314,0.8313222,4.0793185,20.779549,-29.984188
1.0165435,-0.33324048,0.7434598,3.719873,22.525852,-30.12913
0.9921757,-0.36015356,0.64579165,3.3947926,24.044506,-30.286669
0.96948993,-0.38546047,0.55091053,3.0456352,25.430807,-30.379938
0.9442354,-0.40636387,0.4594761,2.5393286,26.727282,-30.351757
0.9116733,-0.4328971,0.3632996,1.9153322,27.860426,-30.12194
0.87760675,-0.45946705,0.26090348,1.2958069,28.837406,-29.723692
0.8443041,-0.483727,0.15648834,0.676749,29.653688,-29.271214
0.8032343,-0.5109423,0.05236812,0.10969914,30.270477,-28.798653
0.75164264,-0.5474908,-0.058627777,-0.41085514,30.484272,-28.342909
0.6982393,-0.60814106,-0.16865641,-0.49340367,30.271667,-27.90725
0.65101767,-0.6785673,-0.26893863,-0.18810824,29.888372,-27.342297
0.61124915,-0.7268772,-0.3506633,0.3707088,29.463753,-26.558674
0.57885313,-0.74765074,-0.42072865,1.0530264,29.081097,-25.742514
0.5410428,-0.75478125,-0.4858749,1.913993,28.750504,-25.10258
0.4927753,-0.75407,-0.5456964,2.6145399,28.437912,-24.294119
0.41449678,-0.7320305,-0.6087276,3.0968468,27.860794,-23.326221
0.32450587,-0.6942355,-0.66753376,3.3411553,26.918913,-22.322035
0.24523218,-0.6442083,-0.71029764,3.1569226,25.70184,-21.19317
0.1787707,-0.5961863,-0.7394908,2.738513,24.26584,-20.170145
0.13036366,-0.56146073,-0.748054,2.4741216,22.844395,-19.483824
0.097352706,-0.53215843,-0.7429371,2.1742208,21.50553,-18.914198
0.07342155,-0.5088571,-0.7297783,1.7771144,20.242859,-18.347155
0.058752418,-0.49701202,-0.7094227,1.2782458,19.120588,-17.716038
0.042733867,-0.4938937,-0.6901406,0.7245835,18.035336,-17.0685
0.031705763,-0.50056875,-0.66488343,0.041711304,17.052525,-16.19767
0.04833027,-0.50884306,-0.6158204,-0.8557572,16.473372,-14.950688
0.07515768,-0.50582445,-0.5581296,-2.00483,16.427914,-13.375534
0.09815453,-0.48706695,-0.50330156,-3.466102,16.741495,-11.623206
0.11345182,-0.4606991,-0.457791,-5.0624423,17.248817,-9.851459
0.111848444,-0.44693452,-0.43352166,-6.2798357,17.713678,-8.477412
0.108363174,-0.43300778,-0.42001286,-6.084152,17.16171,-8.213251
0.104986735,-0.41951588,-0.40692586,-5.894579,16.626976,-7.957338
0.10171571,-0.4064452,-0.39424744,-5.710924,16.108936,-7.7094145
0.09854678,-0.3937825,-0.38196477,-5.5330014,15.607066,-7.4692297
0.09547675,-0.38151497,-0.3700654,-5.3606315,15.120858,-7.2365403
0.092502505,-0.36963022,-0.35853732,-5.19364,14.649822,-7.0111117
0.08962106,-0.35811627,-0.34736893,-5.031859,14.193481,-6.792716
0.0868295,-0.3469615,-0.3365489,-4.875124,13.751376,-6.5811334
0.08412501,-0.33615464,-0.32606634,-4.7232776,13.323059,-6.3761497
0.08150486,-0.3256848,-0.31591073,-4.576167,12.908101,-6.177559
0.07896641,-0.31554142,-0.30607176,-4.4336433,12.506082,-5.9851604
0.076507114,-0.3057143,-0.29653957,-4.2955637,12.116596,-5.798761
0.074124485,-0.29619357,-0.28730458,-4.161789,11.739254,-5.618172
0.071816124,-0.28696963,-0.27835745,-4.032184,11.373675,-5.4432135
0.06957972,-0.2780332,-0.2696892,-3.9066188,11.01949,-5.273708
0.06741302,-0.2693753,-0.26129112,-3.7849674,10.676346,-5.109485
0.06531384,-0.2609872,-0.25315475,-3.667107,10.343894,-4.950381
0.06328008,-0.2528605,-0.24527195,-3.5529196,10.021803,-4.796234
0.06130969,-0.24498704,-0.23763478,-3.4422903,9.709748,-4.646891
0.059400696,-0.2373589,-0.23023556,-3.335108,9.407416,-4.5022016
0.05755118,-0.22996841,-0.22306688,-3.231265,9.114505,-4.3620195
0.05575928,-0.22280818,-0.21612154,-3.1306574,8.830718,-4.226205
0.05402321,-0.21587102,-0.20939256,-3.0331838,8.555772,-4.094621
0.052341215,-0.20914996,-0.2028732,-2.9387467,8.2893915,-3.9671369
0.050711617,-0.20263825,-0.19655691,-2.8472514,8.031308,-3.8436234
0.049132776,-0.19632937,-0.19043736,-2.758606,7.781264,-3.723957
0.04760311,-0.19021699,-0.18450843,-2.6727214,7.5390077,-3.6080182
0.04612109,-0.184295,-0.17876415,-2.5895119,7.3042965,-3.49569
0.044685226,-0.17855743,-0.17319877,-2.508894,7.0768957,-3.3868606
0.04329408,-0.17299855,-0.16780673,-2.4307868,6.856577,-3.2814205
0.041946255,-0.16761279,-0.1625826,-2.355112,6.6431193,-3.1792638
0.040640406,-0.16239476,-0.15752116,-2.2817938,6.436309,-3.0802886
0.03937522,-0.15733922,-0.15261734,-2.210759,6.235939,-2.9843955
0.038149435,-0.1524411,-0.14786622,-2.1419358,6.041808,-2.8914886
0.036961816,-0.1476955,-0.14326304,-2.0752559,5.8537226,-2.8014746
0.03581118,-0.14309768,-0.1388032,-2.0106523,5.6714935,-2.7142634
0.03469637,-0.13864301,-0.13448223,-1.9480603,5.494939,-2.629768
0.03361627,-0.13432707,-0.1302958,-1.8874172,5.3238816,-2.547903
0.032569803,-0.13014549,-0.12623972,-1.8286623,5.15815,-2.4685874
0.031555917,-0.12609412,-0.12230992,-1.7717367,4.997579,-2.3917413
0.0305736,-0.122168876,-0.11850249,-1.7165836,4.842007,-2.3172877
0.029621867,-0.11836585,-0.11481359,-1.6631476,4.691279,-2.2451522
0.028699765,-0.11468122,-0.111239545,-1.6113753,4.5452437,-2.1752627
0.027806371,-0.11111131,-0.107776776,-1.5612149,4.403755,-2.107549
0.026940791,-0.10765255,-0.10442181,-1.512616,4.266671,-2.0419436
0.02610216,-0.10430147,-0.1011713,-1.4655303,4.1338553,-1.9783804
0.025289636,-0.10105471,-0.09802198,-1.4199104,4.0051746,-1.9167963
0.02450241,-0.09790903,-0.0949707,-1.3757108,3.8804996,-1.8571295
0.02373969,-0.094861284,-0.092014425,-1.3328872,3.759706,-1.79932
0.023000713,-0.09190842,-0.089150175,-1.2913967,3.6426728,-1.7433103
0.022284744,-0.08904748,-0.086375095,-1.2511979,3.529283,-1.6890442
0.021591064,-0.0862756,-0.083686404,-1.2122506,3.4194233,-1.6364676
0.020918977,-0.083590016,-0.08108141,-1.1745156,3.3129835,-1.5855277
0.020267813,-0.080988035,-0.07855751,-1.1379554,3.2098572,-1.5361735
0.01963692,-0.07846705,-0.07611219,-1.1025333,3.1099412,-1.4883556
0.019025665,-0.07602455,-0.073742986,-1.0682139,3.0131357,-1.4420265
0.01843344,-0.07365808,-0.07144754,-1.0349629,2.9193437,-1.3971395
0.01785965,-0.071365274,-0.069223545,-1.0027469,2.8284714,-1.3536499
0.017303722,-0.06914385,-0.06706878,-0.9715338,2.740428,-1.311514
0.0167651,-0.06699157,-0.064981095,-0.94129235,2.6551251,-1.2706897
0.016243245,-0.064906284,-0.0629584,-0.91199225,2.5724778,-1.2311364
0.015737634,-0.06288592,-0.060998663,-0.8836043,2.492403,-1.1928142
