ax,ay,az,gx,gy,gz
-2.1054738,-0.90909916,-6.8691535,70.46882,80.12346,49.938637
-2.105248,-1.0438921,-7.476576,77.635445,76.67028,54.847847
-2.3775966,-1.1412,-8.247464,90.00318,59.605415,53.178745
-2.6577554,-1.1019818,-8.915675,89.829575,36.974808,50.85852
-2.924564,-1.1262542,-9.44334,83.232864,12.650929,47.194412
-3.0590138,-1.2955083,-9.765989,81.28656,-9.12902,43.980034
-3.0280402,-1.4014821,-9.970947,81.28834,-27.931906,42.13699
-2.8754768,-1.4827273,-10.1269045,81.79586,-44.026424,41.1524
-2.7264597,-1.6328456,-10.324222,81.78114,-60.53389,40.14896
-2.6373782,-1.8632926,-10.550148,80.81805,-78.05044,39.174065
-2.57261,-2.16128,-10.771196,79.092354,-97.34551,38.71962
-2.41326,-2.4491796,-10.91428,76.11694,-120.20414,38.849056
-1.9804207,-2.711229,-10.740938,72.764786,-141.80937,40.5396
-1.2526314,-3.0037715,-10.144712,74.619705,-155.42549,47.581326
-0.42693967,-3.0576572,-9.399113,77.1803,-163.88051,58.776
0.37182695,-2.7759697,-8.554241,79.46474,-169.33961,69.47806
1.1486781,-2.267255,-7.573734,80.13242,-171.64294,76.74537
1.9205235,-1.7918172,-6.4820437,79.13685,-169.97232,79.506035
2.6875274,-1.4442635,-5.3665133,78.03939,-164.95667,80.957275
3.3712707,-1.1266575,-4.307661,75.88206,-156.94606,83.22698
3.9244566,-0.7894358,-3.3685546,72.04071,-146.7612,86.73437
4.3254733,-0.44550872,-2.5997617,67.5832,-135.02116,89.90473
4.5757313,-0.14089516,-2.0258641,64.38117,-122.7771,90.47198
4.742922,0.09943609,-1.5726385,62.674145,-110.004364,88.35004
4.8528543,0.2915537,-1.217425,61.89663,-96.82447,85.07184
4.9168715,0.4702216,-0.95278025,60.876637,-83.6099,82.09221
4.9406967,0.668376,-0.77025014,57.893696,-70.44622,80.149185
4.9129887,0.8724841,-0.6889677,53.549538,-57.55455,78.497086
4.837412,1.0496281,-0.6908209,49.156525,-45.109104,76.46244
4.709811,1.1977806,-0.76928604,45.600754,-33.42963,73.5703
4.552815,1.3251406,-0.88962597,42.948803,-22.773298,70.06335
4.375947,1.4536717,-1.0448294,40.98271,-13.740633,66.34334
4.193735,1.5998403,-1.2000763,38.673252,-6.615048,62.5011
4.0305724,1.7430811,-1.331723,36.463924,-0.25519577,58.85261
3.8844523,1.8922439,-1.4534044,34.41735,5.88671,55.47909
3.7367535,2.0525582,-1.6092687,32.006927,11.4389,51.847923
3.5711765,2.2152867,-1.8142557,28.714079,15.445501,47.1929
3.376726,2.349776,-2.0728195,24.837679,18.139183,41.750008
3.179441,2.4178526,-2.3470585,20.782482,19.307095,35.84062
3.0094674,2.4165783,-2.5931437,17.103367,19.592047,30.053078
2.8669088,2.3716986,-2.810083,14.020188,19.435167,24.991743
2.7338665,2.3166473,-3.0112088,11.496474,18.974468,20.808973
2.592236,2.265418,-3.2238498,9.162518,18.024113,16.98703
2.4466314,2.2141907,-3.4345253,7.0030675,16.421808,13.272876
2.3028953,2.1561174,-3.6357272,5.2112975,14.001291,9.443674
2.1751585,2.0894978,-3.8067062,3.647333,10.818989,5.8577037
2.076955,2.0247977,-3.9386017,2.3564591,7.2117953,2.796735
1.9953963,2.0011392,-4.0447674,1.0866002,2.7525687,0.3206457
1.9063283,2.0081236,-4.124488,-0.47579527,-2.3106027,-2.3788671
1.816877,2.023919,-4.163597,-1.8771778,-7.7678204,-5.4829664
1.7452781,2.0489473,-4.1616545,-3.0778296,-13.354178,-9.034316
1.7098275,2.0792553,-4.124916,-4.65836,-19.196775,-13.206974
1.7377617,2.0969193,-4.012838,-7.0433526,-24.935532,-17.728735
1.7869319,2.07427,-3.8400435,-10.11219,-30.245405,-22.131262
1.8583573,1.9973056,-3.62564,-13.182157,-34.75327,-25.935368
1.9558977,1.8803716,-3.394642,-15.800713,-38.450638,-29.0294
2.0904596,1.7515225,-3.1385586,-18.157206,-41.16221,-31.334244
2.2499828,1.5978335,-2.8454854,-20.30854,-42.999676,-33.463783
2.394546,1.4038473,-2.5472622,-22.217304,-43.891956,-35.196026
2.5088913,1.1812172,-2.2669647,-23.897238,-44.007004,-36.341873
2.5853257,0.94434935,-2.0158129,-25.170958,-43.58272,-36.75141
2.6181338,0.7129872,-1.7964227,-25.640789,-42.922146,-36.442684
2.6182587,0.5290971,-1.5976521,-25.252007,-42.185932,-35.558823
2.6138976,0.38041738,-1.4071343,-24.46532,-41.126785,-34.59922
2.6019962,0.25440946,-1.2326809,-23.411087,-39.59343,-33.703995
2.574222,0.15344532,-1.0846362,-22.43988,-37.657753,-32.76291
2.522233,0.07170863,-0.9658459,-21.562283,-35.490482,-31.423433
2.4472072,0.023027983,-0.88136315,-20.905695,-33.43154,-29.875355
2.360651,-0.006738332,-0.8195851,-20.501188,-31.443754,-28.410513
2.2665958,-0.03627393,-0.77817726,-20.199724,-29.48747,-27.002468
2.1674595,-0.0660354,-0.7547694,-19.884996,-27.528355,-25.52668
2.064459,-0.09223386,-0.75054795,-19.512796,-25.634247,-23.998943
1.9595603,-0.11013581,-0.76167625,-19.08895,-23.839554,-22.512022
1.8974121,-0.106642805,-0.7375194,-18.483534,-23.083473,-21.798044
1.8373039,-0.103264466,-0.7141555,-17.897995,-22.352211,-21.107504
1.7791626,-0.09999667,-0.69155616,-17.331615,-21.644878,-20.439558
1.7229182,-0.096835494,-0.66969407,-16.783712,-20.96062,-19.793406
1.6685034,-0.09377715,-0.6485432,-16.253633,-20.298624,-19.168272
1.6158543,-0.09081803,-0.6280786,-15.740755,-19.658108,-18.563423
1.5649091,-0.08795469,-0.6082763,-15.244475,-19.038319,-17.97815
1.5156088,-0.08518381,-0.5891134,-14.76422,-18.438545,-17.411774
1.4678969,-0.08250219,-0.5705679,-14.299437,-17.858093,-16.863644
1.421719,-0.07990679,-0.5526187,-13.849597,-17.296303,-16.333138
1.3770227,-0.07739467,-0.53524536,-13.414191,-16.752539,-15.819654
1.3337581,-0.07496301,-0.5184285,-12.992732,-16.226192,-15.322618
1.2918769,-0.0726091,-0.50214934,-12.584747,-15.716674,-14.841473
1.2513325,-0.07033033,-0.48638985,-12.189786,-15.22342,-14.375687
1.2120804,-0.06812418,-0.47113264,-11.807414,-14.745888,-13.9247465
1.1740775,-0.06598826,-0.45636103,-11.437211,-14.283554,-13.488158
1.1372825,-0.06392022,-0.44205892,-11.078775,-13.835915,-13.065446
1.1016556,-0.061917834,-0.42821082,-10.731717,-13.402486,-12.656153
1.0671582,-0.059978932,-0.41480178,-10.395663,-12.982799,-12.259836
1.0337534,-0.058101434,-0.40181738,-10.070251,-12.576403,-11.876072
1.0014054,-0.056283336,-0.3892438,-9.755136,-12.182865,-11.504448
0.9700798,-0.0545227,-0.37706763,-9.449979,-11.8017645,-11.14457
0.9397433,-0.052817658,-0.3652759,-9.154457,-11.432698,-10.796056
0.9103639,-0.051166408,-0.3538562,-8.868259,-11.075275,-10.458536
0.8819106,-0.04956721,-0.3427965,-8.591084,-10.729119,-10.131657
0.8543536,-0.04801839,-0.33208513,-8.3226385,-10.3938675,-9.815073
0.82766396,-0.046518315,-0.32171094,-8.062643,-10.069167,-9.508454
0.80181384,-0.04506542,-0.31166306,-7.810825,-9.754681,-9.21148
0.77677625,-0.043658204,-0.30193102,-7.566923,-9.450079,-8.9238405
0.75252527,-0.04229519,-0.29250473,-7.330683,-9.155047,-8.645238
0.7290357,-0.040974975,-0.28337437,-7.101861,-8.869279,-8.375382
0.7062833,-0.03969619,-0.27453056,-6.8802195,-8.592478,-8.113996
0.68424445,-0.038457513,-0.26596415,-6.6655297,-8.324359,-7.8608074
0.66289663,-0.03725767,-0.2576663,-6.4575706,-8.064646,-7.615557
0.64221776,-0.03609543,-0.24962845,-6.256129,-7.8130717,-7.3779917
0.6221866,-0.034969594,-0.2418424,-6.0609965,-7.5693774,-7.147868
0.6027827,-0.03387901,-0.23430015,-5.8719745,-7.333314,-6.92495
0.58398616,-0.03282256,-0.22699398,-5.688869,-7.1046395,-6.7090096
0.5657777,-0.031799167,-0.21991642,-5.5114927,-6.8831205,-6.499826
0.5481389,-0.03080779,-0.21306024,-5.339665,-6.6685305,-6.297186
0.53105164,-0.029847411,-0.20641847,-5.17321,-6.460651,-6.100882
0.51449853,-0.028917056,-0.19998433,-5.0119596,-6.2592697,-5.910715
0.49846283,-0.028015777,-0.19375128,-4.855748,-6.0641828,-5.726492
0.48292813,-0.02714266,-0.18771297,-4.7044177,-5.875191,-5.5480247
0.4678787,-0.026296819,-0.18186331,-4.5578146,-5.6921034,-5.3751326
0.4532993,-0.025477393,-0.17619634,-4.4157906,-5.5147343,-5.2076397
0.43917516,-0.024683554,-0.1707063,-4.2782006,-5.342903,-5.0453773
0.42549196,-0.0239145,-0.16538768,-4.1449065,-5.1764364,-4.8881807
0.41223586,-0.023169449,-0.16023506,-4.015773,-5.015166,-4.7358904
0.39939347,-0.02244765,-0.15524326,-3.8906696,-4.858928,-4.588353
0.3869518,-0.021748373,-0.15040721,-3.7694695,-4.7075653,-4.4454193
0.37489828,-0.021070912,-0.14572203,-3.652051,-4.560925,-4.306945
0.36322075,-0.020414585,-0.14118302,-3.538295,-4.4188595,-4.17279
0.35190746,-0.01977873,-0.13678557,-3.4280872,-4.2812243,-4.0428195
0.34094697,-0.019162703,-0.13252525,-3.3213162,-4.1478815,-3.9169023
0.3303283,-0.018565886,-0.1283978,-3.2178748,-4.0186973,-3.7949114
0.32004067,-0.017987676,-0.124399014,-3.1176584,-3.8935401,-3.676724
0.31007376,-0.017427495,-0.120524906,-3.0205665,-3.7722852,-3.5622213
0.30041757,-0.016884774,-0.11677157,-2.9265013,-3.6548102,-3.451288
0.29106236,-0.01635897,-0.11313522,-2.835368,-3.5409968,-3.3438125
0.28199872,-0.015849553,-0.109612204,-2.7470748,-3.4307308,-3.2396867
0.27321753,-0.015356014,-0.10619899,-2.6615336,-3.3239012,-3.1388059
0.26471,-0.014877854,-0.10289213,-2.578658,-3.2204006,-3.0410688
0.25646758,-0.014414594,-0.09968832,-2.498365,-3.120125,-2.9463773
0.24848197,-0.013965768,-0.096584335,-2.4205735,-3.022974,-2.8546362
0.24074517,-0.013530925,-0.09357706,-2.3452058,-2.9288497,-2.7657533
0.2332494,-0.01310963,-0.09066346,-2.272186,-2.837658,-2.6796398
0.22598714,-0.01270146,-0.08784065,-2.2014413,-2.749307,-2.5962088
0.2189511,-0.012306005,-0.085105754,-2.1329002,-2.6637082,-2.5153766
0.21213426,-0.011922867,-0.08245606,-2.0664942,-2.580776,-2.4370625
0.20552973,-0.011551664,-0.0798889,-2.0021565,-2.5004268,-2.3611877
0.19913092,-0.011192024,-0.0774017,-1.9398228,-2.4225805,-2.2876763
0.1929314,-0.010843583,-0.07499196,-1.8794307,-2.3471584,-2.2164543
0.18692496,-0.010505996,-0.07265727,-1.8209193,-2.2740855,-2.1474507
0.18110558,-0.010178922,-0.0703953,-1.7642301,-2.2032886,-2.0805957
0.17546745,-0.009862034,-0.06820376,-1.7093065,-2.134696,-2.0158231
0.17000487,-0.009555014,-0.06608048,-1.6560931,-2.06824,-1.9530675
0.16471243,-0.009257554,-0.064023316,-1.604537,-2.003853,-1.8922662
0.15958478,-0.008969358,-0.062030207,-1.5545863,-1.9414712,-1.8333582
0.15461679,-0.008690136,-0.060099166,-1.5061909,-1.8810319,-1.7762845
0.1498035,-0.008419608,-0.058228254,-1.4593025,-1.8224746,-1.720988
0.14514008,-0.008157504,-0.056415595,-1.4138741,-1.7657405,-1.6674132
0.14062187,-0.007903561,-0.054659378,-1.3698603,-1.7107731,-1.6155068
0.13624434,-0.0076575247,-0.052957844,-1.3272169,-1.6575171,-1.5652163
0.13200311,-0.007419149,-0.051309288,-1.2859011,-1.6059192,-1.5164918
0.12789394,-0.0071881954,-0.04971206,-1.2458717,-1.5559279,-1.4692843
0.12391269,-0.006964432,-0.048164558,-1.2070886,-1.507493,-1.4235466
0.1200554,-0.0067476355,-0.046665236,-1.1695131,-1.460566,-1.3792328
0.116318196,-0.0065375883,-0.045212597,-1.1331073,-1.4151001,-1.3362987
0.11269735,-0.0063340813,-0.043805182,-1.0978351,-1.3710498,-1.2947013
0.10918923,-0.0061369096,-0.042441584,-1.0636609,-1.3283708,-1.254399
0.105790325,-0.0059458762,-0.04112044,-1.0305506,-1.2870204,-1.2153512
0.102497235,-0.0057607903,-0.039840423,-0.99847114,-1.2469575,-1.1775192
0.099306665,-0.005581466,-0.038600255,-0.96739036,-1.2081418,-1.140865
0.09621542,-0.005407725,-0.037398696,-0.9372772,-1.1705344,-1.1053519
0.09322041,-0.005239392,-0.036234543,-0.9081015,-1.1340978,-1.0709443
0.090318635,-0.0050763004,-0.035106633,-0.87983406,-1.0987955,-1.0376079
0.0875072,-0.004918285,-0.034013834,-0.85244656,-1.0645922,-1.0053092
0.084783286,-0.0047651893,-0.032955054,-0.8259117,-1.0314537,-0.974016
0.08214416,-0.004616859,-0.031929232,-0.80020285,-0.9993468,-0.94369704
0.0795872,-0.0044731465,-0.030935347,-0.7752943,-0.9682393,-0.91432184
0.07710983,-0.0043339077,-0.0299724,-0.75116116,-0.9381003,-0.8858611
0.07470958,-0.0041990033,-0.029039431,-0.72777927,-0.9088994,-0.8582863
0.07238405,-0.0040682987,-0.028135503,-0.7051253,-0.88060755,-0.8315699
0.070130914,-0.0039416626,-0.027259715,-0.68317646,-0.8531964,-0.8056852
0.06794792,-0.0038189683,-0.026411187,-0.6619109,-0.8266385,-0.7806062
0.06583287,-0.0037000936,-0.025589075,-0.6413073,-0.8009074,-0.75630796
