ax,ay,az,gx,gy,gz
-0.5563687,2.1054738,-3.1709378,31.904837,20.142002,22.139294
-0.8978198,1.8203207,-3.712234,31.127321,18.629694,14.4404
-1.2510984,1.570733,-4.125488,29.036657,14.97608,7.9986043
-1.491965,1.3455753,-4.4543896,26.141891,10.816778,3.799271
-1.5742493,1.1150062,-4.68102,25.764856,6.840082,1.8575112
-1.5988661,0.9281671,-4.8930087,27.06646,0.17297706,1.1966254
-1.673246,0.7785651,-5.1357865,28.944113,-8.092641,-0.16765109
-1.7750044,0.6632587,-5.3743267,30.445805,-17.790682,-2.777394
-1.8422341,0.4891953,-5.5970044,32.11444,-27.881222,-6.060729
-1.8427197,0.24142618,-5.8184705,33.972515,-38.265987,-9.223634
-1.7806245,-0.065395966,-6.016637,36.918102,-49.641003,-11.289529
-1.6870083,-0.32812902,-6.138489,40.010735,-61.086792,-12.409733
-1.604356,-0.4683297,-6.196891,42.684544,-73.33463,-13.156825
-1.5432199,-0.5057664,-6.2026043,43.695587,-86.88609,-14.515134
-1.4503819,-0.5633993,-6.156893,43.898792,-101.075424,-16.751066
-1.2105913,-0.72901386,-5.9863753,45.759727,-113.284004,-17.308596
-0.71251893,-0.9875358,-5.6124277,48.442383,-123.14863,-13.650708
-0.17900969,-1.1479591,-5.1503253,50.617035,-131.93617,-5.9394426
0.3914168,-1.1432569,-4.5896387,51.56604,-139.55226,3.409969
1.0649571,-1.0559927,-3.928926,51.6857,-144.90678,11.531171
1.855507,-0.97227424,-3.1549327,52.391415,-144.65048,16.897018
2.6829896,-0.8669143,-2.303089,53.672977,-139.71269,20.384792
3.426852,-0.722135,-1.4880867,54.548763,-130.65489,23.055511
4.025726,-0.5437405,-0.78769034,54.799446,-118.74166,25.760403
4.435602,-0.33498305,-0.24952832,54.068256,-105.73483,28.79399
4.6829395,-0.11900105,0.14028037,52.051853,-92.016106,31.87059
4.772231,0.07425544,0.3590996,49.760338,-78.41345,34.689804
4.7616606,0.24109922,0.45783538,47.629887,-65.372604,37.06028
4.687476,0.3922923,0.4751972,45.586636,-52.76394,38.741955
4.5819454,0.53526783,0.436361,43.732243,-40.478043,39.651924
4.4597735,0.6839363,0.3584446,41.691055,-28.531328,40.08757
4.3071175,0.860733,0.22101945,39.500477,-17.689869,40.21474
4.110611,1.0566849,0.044407465,37.067158,-8.400798,39.46268
3.8779442,1.2501723,-0.15156606,34.615696,-0.6333563,37.828323
3.6478093,1.4370793,-0.3389626,32.11705,5.907238,35.411133
3.4512525,1.6205003,-0.5122362,29.441656,11.540469,32.146576
3.2890606,1.784706,-0.68832815,26.596746,16.782858,28.435238
3.1357603,1.9181333,-0.8821993,23.479187,21.709846,24.756302
2.9707348,2.0334604,-1.1141493,19.947826,25.919231,21.114594
2.7716439,2.1139612,-1.3890451,16.698711,29.040035,17.220247
2.538058,2.1431084,-1.6867987,14.061103,30.724394,12.970455
2.2980068,2.1294017,-1.986078,11.879638,31.456974,8.759142
2.07181,2.0991259,-2.2782354,9.948783,31.15443,4.8361316
1.8696114,2.04939,-2.5573575,8.170631,29.87692,1.4752077
1.6851001,1.9863747,-2.8329773,6.68405,27.536621,-1.16989
1.5154823,1.9223524,-3.1083362,5.630953,23.502205,-3.1144638
1.3711889,1.8629383,-3.3687131,4.735058,18.191124,-4.673361
1.2716501,1.8208569,-3.5882976,3.6536794,11.936017,-5.829803
1.213463,1.7928704,-3.7586572,2.5718756,5.329889,-6.8379807
1.1734399,1.7944005,-3.8835053,1.4789675,-1.1065085,-8.195416
1.1177076,1.7951964,-3.9984982,0.90826917,-7.6668534,-10.648658
1.0112929,1.7795836,-4.101818,0.79790896,-14.880224,-13.636373
0.9097254,1.8111005,-4.160454,0.2125516,-23.209993,-17.018234
0.8668922,1.879319,-4.135392,-1.713044,-32.530067,-20.616085
0.9359669,1.9212148,-3.986669,-4.2262053,-41.649113,-24.116549
1.1474739,1.9396225,-3.6869283,-6.995312,-48.251038,-27.061113
1.4658346,1.9395691,-3.2841759,-10.223424,-52.635338,-29.747808
1.794945,1.8926197,-2.8806052,-13.370883,-54.51085,-32.257397
2.1064835,1.8064173,-2.5262191,-16.587038,-54.931377,-34.57339
2.3902745,1.6606078,-2.2257278,-20.116365,-54.09043,-36.248466
2.6298873,1.4521818,-1.966593,-23.396349,-51.891335,-37.442177
2.7855935,1.1543128,-1.7782469,-25.723097,-49.05738,-38.427994
2.8830137,0.81421846,-1.6341645,-26.6217,-45.96885,-39.32825
2.946824,0.48061618,-1.5098912,-25.906992,-43.014572,-39.589287
3.0093443,0.24083358,-1.3732505,-24.604128,-40.57214,-38.49423
3.063437,0.11063656,-1.2291368,-23.990486,-38.391415,-35.93731
3.075986,0.06751159,-1.1115483,-24.015789,-36.024593,-33.298977
3.0545845,0.03412884,-1.0225644,-24.106617,-32.9508,-31.144176
2.9923203,-0.00777681,-0.9769082,-23.93516,-29.155813,-29.551083
2.8969045,-0.0075288317,-0.9457577,-23.171942,-28.226126,-28.60879
2.8046677,-0.0072891153,-0.91564494,-22.434153,-27.327412,-27.697893
2.7154915,-0.0070573534,-0.8865315,-21.720844,-26.45852,-26.81722
2.6292634,-0.0068332525,-0.8583804,-21.031116,-25.618351,-25.965662
2.545875,-0.0066165333,-0.8311565,-20.364105,-24.805855,-25.14215
2.4652243,-0.006406928,-0.80482626,-19.71899,-24.020031,-24.345673
2.3872128,-0.006204182,-0.7793576,-19.094986,-23.259918,-23.575256
2.311746,-0.0060080495,-0.7547199,-18.491339,-22.524607,-22.829973
2.2387345,-0.005818298,-0.73088366,-17.907328,-21.813213,-22.108938
2.1680918,-0.005634703,-0.70782083,-17.342268,-21.124905,-21.411297
2.0997353,-0.00545705,-0.68550444,-16.795494,-20.45887,-20.736233
2.0335863,-0.0052851336,-0.66390854,-16.266376,-19.814342,-20.082968
1.9695681,-0.005118756,-0.6430085,-15.754305,-19.19058,-19.450748
1.9076084,-0.004957727,-0.6227804,-15.2586975,-18.586872,-18.838856
1.8476367,-0.0048018657,-0.6032013,-14.778993,-18.002537,-18.246597
1.789586,-0.004650996,-0.5842494,-14.3146515,-17.436914,-17.67331
1.7333912,-0.0045049503,-0.56590337,-13.865158,-16.88938,-17.11835
1.6789902,-0.004363566,-0.54814297,-13.430013,-16.359322,-16.581106
1.6263232,-0.0042266888,-0.5309487,-13.008737,-15.846157,-16.060986
1.5753325,-0.0040941676,-0.51430166,-12.600868,-15.349326,-15.557419
1.5259624,-0.003965859,-0.4981837,-12.205963,-14.868287,-15.069858
1.4781595,-0.0038416225,-0.4825774,-11.823595,-14.402517,-14.597774
1.4318722,-0.0037213257,-0.4674659,-11.453349,-13.951515,-14.140656
1.3870509,-0.0036048384,-0.45283303,-11.09483,-13.514796,-13.698017
1.3436476,-0.0034920366,-0.43866307,-10.747652,-13.091894,-13.2693815
1.3016161,-0.0033828,-0.42494094,-10.4114485,-12.682358,-12.854294
1.2609117,-0.0032770124,-0.41165215,-10.08586,-12.285753,-12.452312
1.2214916,-0.0031745625,-0.39878258,-9.770543,-11.901661,-12.063013
1.1833141,-0.0030753422,-0.38631868,-9.465167,-11.529676,-11.685986
1.1463392,-0.0029792471,-0.3742474,-9.169409,-11.16941,-11.320834
1.110528,-0.0028861766,-0.36255607,-8.88296,-10.820481,-10.967176
1.0758432,-0.0027960336,-0.3512325,-8.605522,-10.48253,-10.624642
1.0422488,-0.0027087242,-0.34026486,-8.336805,-10.1552,-10.292875
1.0097097,-0.0026241578,-0.32964176,-8.0765295,-9.838155,-9.971531
0.9781923,-0.0025422464,-0.3193522,-7.824426,-9.531063,-9.660276
0.94766396,-0.0024629056,-0.30938557,-7.580234,-9.233608,-9.358789
0.91809314,-0.0023860533,-0.29973155,-7.343701,-8.945484,-9.066759
0.8894494,-0.0023116104,-0.29038015,-7.1145835,-8.666392,-8.783883
0.8617033,-0.0022395004,-0.28132182,-6.8926463,-8.396047,-8.509872
0.8348263,-0.0021696491,-0.27254725,-6.677661,-8.13417,-8.244445
0.80879086,-0.002101985,-0.2640474,-6.469407,-7.880492,-7.9873285
0.78357035,-0.002036439,-0.25581363,-6.2676716,-7.634755,-7.73826
0.759139,-0.0019729438,-0.2478375,-6.072249,-7.396707,-7.496985
0.7354719,-0.0019114348,-0.24011084,-5.882939,-7.1661053,-7.2632565
0.71254486,-0.0018518491,-0.23262581,-5.6995482,-6.9427147,-7.0368376
0.69033456,-0.0017941264,-0.22537477,-5.521891,-6.7263074,-6.817497
0.6688184,-0.0017382075,-0.21835037,-5.3497868,-6.516664,-6.605011
0.64797455,-0.001684036,-0.21154542,-5.1830597,-6.313571,-6.399164
0.6277818,-0.0016315567,-0.20495307,-5.0215406,-6.116822,-6.1997485
0.60821974,-0.0015807163,-0.1985666,-4.8650665,-5.926218,-6.0065603
0.5892685,-0.0015314635,-0.19237956,-4.713478,-5.7415657,-5.8194046
0.5709089,-0.0014837483,-0.18638568,-4.566622,-5.562678,-5.6380916
0.5531224,-0.0014375225,-0.18057887,-4.42435,-5.3893743,-5.4624386
0.53589094,-0.0013927392,-0.17495328,-4.286518,-5.221479,-5.292267
0.51919717,-0.0013493535,-0.16950324,-4.152987,-5.058822,-5.127405
0.5030242,-0.0013073212,-0.16422322,-4.0236216,-4.9012403,-4.9676867
0.48735577,-0.0012666001,-0.15910792,-3.8982918,-4.7485743,-4.812951
0.47217605,-0.0012271492,-0.15415217,-3.7768712,-4.6006694,-4.663041
0.45746967,-0.0011889285,-0.14935096,-3.6592371,-4.4573774,-4.5178065
0.4432219,-0.0011518996,-0.14469945,-3.5452712,-4.3185534,-4.3771005
0.42941839,-0.0011160253,-0.140193,-3.4348586,-4.184058,-4.240782
0.41604516,-0.0010812694,-0.13582702,-3.3278883,-4.0537558,-4.1087127
0.40308884,-0.0010475968,-0.13159715,-3.2242522,-3.9275153,-3.9807608
0.39053637,-0.001014974,-0.12749912,-3.1238468,-3.8052096,-3.8567972
0.37837514,-0.0009833678,-0.123528816,-3.0265708,-3.686716,-3.7366972
0.36659288,-0.00095274666,-0.119682245,-2.932326,-3.5719151,-3.6203399
0.35517782,-0.0009230798,-0.11595555,-2.8410184,-3.460692,-3.5076087
0.34411845,-0.0008943373,-0.11234497,-2.752556,-3.3529341,-3.3983903
0.33340365,-0.0008664904,-0.108846895,-2.66685,-3.2485342,-3.292575
0.3230227,-0.0008395111,-0.105457805,-2.5838141,-3.1473868,-3.1900563
0.31296515,-0.0008133723,-0.102174304,-2.5033653,-3.0493908,-3.0907316
0.30322093,-0.00078804785,-0.098993085,-2.4254227,-2.9544475,-2.9945014
0.29378027,-0.0007635123,-0.095910974,-2.3499079,-2.8624618,-2.9012685
0.28463367,-0.00073974096,-0.09292487,-2.2767456,-2.7733414,-2.81094
0.27577198,-0.00071671006,-0.09003177,-2.205862,-2.6869972,-2.723425
0.26718628,-0.00069439656,-0.08722879,-2.1371863,-2.603342,-2.6386359
0.258868,-0.000672778,-0.084513105,-2.0706496,-2.5222926,-2.5564876
0.2508088,-0.0006518327,-0.081882,-2.006185,-2.4437673,-2.4768977
0.24300058,-0.0006315398,-0.07933284,-1.9437282,-2.3676877,-2.3997867
0.23543553,-0.0006118788,-0.076863065,-1.8832165,-2.2939773,-2.3250768
0.22810607,-0.0005928301,-0.0744702,-1.8245891,-2.2225623,-2.252694
0.22100486,-0.0005743746,-0.072151855,-1.7677875,-2.1533713,-2.1825647
0.21412477,-0.00055649376,-0.0699057,-1.7127546,-2.0863347,-2.1146195
0.20745891,-0.00053916976,-0.06772949,-1.6594354,-2.0213857,-2.04879
0.20100063,-0.0005223852,-0.06562104,-1.6077764,-1.9584591,-1.9850101
0.19474344,-0.0005061232,-0.06357825,-1.557726,-1.8974919,-1.9232165
0.18868108,-0.0004903676,-0.061599053,-1.5092341,-1.838423,-1.8633467
0.18280748,-0.00047510254,-0.05968149,-1.4622519,-1.7811933,-1.8053411
0.17711675,-0.0004603128,-0.05782363,-1.4167325,-1.7257454,-1.7491416
0.17160322,-0.00044598352,-0.056023613,-1.3726305,-1.672024,-1.6946918
0.16626133,-0.00043210038,-0.054279637,-1.3299016,-1.6199751,-1.6419373
0.16108575,-0.0004186495,-0.05258996,-1.2885029,-1.5695467,-1.5908252
0.15607134,-0.00040561735,-0.05095289,-1.248393,-1.5206884,-1.5413045
0.151213,-0.00039299097,-0.049366787,-1.2095321,-1.4733511,-1.4933255
0.14650595,-0.00038075767,-0.047830064,-1.171881,-1.4274876,-1.4468402
0.14194542,-0.00036890522,-0.04634118,-1.135402,-1.383052,-1.4018022
0.13752688,-0.00035742178,-0.04489865,-1.1000587,-1.3399997,-1.3581662
0.1332459,-0.00034629583,-0.04350103,-1.0658156,-1.2982877,-1.3158888
0.12909819,-0.00033551623,-0.042146917,-1.0326387,-1.2578743,-1.2749274
0.1250796,-0.00032507224,-0.040834963,-1.0004945,-1.218719,-1.2352413
0.12118611,-0.00031495336,-0.03956385,-0.96935105,-1.1807826,-1.1967906
0.11741383,-0.0003051495,-0.038332306,-0.9391771,-1.1440272,-1.1595368
0.11375898,-0.00029565083,-0.0371391,-0.90994245,-1.108416,-1.1234429
0.11021791,-0.00028644784,-0.03598304,-0.8816179,-1.0739135,-1.0884726
0.10678707,-0.00027753136,-0.03486297,-0.8541751,-1.0404849,-1.0545908
0.10346303,-0.00026889244,-0.033777762,-0.8275866,-1.0080969,-1.0217638
0.10024247,-0.00026052247,-0.03272634,-0.80182576,-0.9767173,-0.9899587
0.09712216,-0.000252413,-0.03170765,-0.77686685,-0.9463144,-0.9591437
0.09409899,-0.00024455602,-0.030720668,-0.7526849,-0.91685796,-0.9292879
0.09116992,-0.00023694361,-0.02976441,-0.72925574,-0.8883185,-0.9003615
0.08833204,-0.00022956816,-0.028837921,-0.70655584,-0.8606674,-0.87233555
