ax,ay,az,gx,gy,gz
-1.9663815,-3.0582097,-3.9154904,-25.579323,-13.094665,-64.08786
-1.3348811,-3.5069416,-3.9171624,-16.91033,-7.029876,-71.648506
-0.9080173,-3.8010414,-3.8760679,-7.875473,1.9679923,-75.00377
-0.82404405,-3.8475447,-3.7906134,-0.25474057,9.255918,-74.33354
-0.9739893,-3.8361907,-3.7129505,4.937759,12.776695,-64.96565
-1.1866456,-3.788167,-3.670262,8.070026,12.339025,-53.689228
-1.3211453,-3.7870014,-3.6088521,10.080479,9.471631,-44.789295
-1.3319342,-3.9016082,-3.5299525,14.205771,5.642895,-38.838737
-1.2204158,-3.9918175,-3.3714383,19.950953,1.8657557,-34.465424
-1.020096,-3.9833808,-3.1440187,25.385956,-1.3833808,-29.884975
-0.7597557,-3.9738312,-2.8945055,29.901043,-3.8731425,-24.763325
-0.48486197,-4.0136485,-2.6772697,34.081966,-5.7427397,-19.306614
-0.20741709,-4.0728393,-2.4833257,38.493446,-6.652409,-14.123405
0.040955734,-4.1331353,-2.3159635,43.883503,-6.8357067,-9.186649
0.26067898,-4.1389933,-2.1624165,49.544655,-6.5897794,-3.924561
0.44808376,-4.045871,-2.0014303,54.392426,-6.516406,1.2132978
0.59876686,-3.876243,-1.8285245,58.26859,-6.6104813,5.9171734
0.71950203,-3.6628737,-1.6461979,61.705826,-6.2946362,9.808808
0.8094423,-3.4351404,-1.4624722,64.77235,-5.4575176,13.11736
0.8659849,-3.183425,-1.2914609,67.570404,-4.2677903,16.260395
0.88371825,-2.867602,-1.1186785,69.692154,-2.9233549,19.279682
0.8730945,-2.4950726,-0.95709586,70.79174,-1.6504177,21.972345
0.8335531,-2.103872,-0.8022601,71.154015,-0.38698187,23.827436
0.7665575,-1.7272652,-0.6624127,71.22902,0.821815,25.191742
0.67560303,-1.3481883,-0.5296732,70.58982,1.933904,26.375336
0.54967755,-0.9684099,-0.42372748,69.37424,2.7685804,27.56364
0.40299368,-0.60268104,-0.34260088,67.43225,3.363948,28.903124
0.23512688,-0.24095587,-0.29069623,65.08549,3.7530587,30.11559
0.05089406,0.13890886,-0.25755012,62.290535,3.8621802,30.500856
-0.13906263,0.49051604,-0.2513229,59.396275,3.6013083,29.36042
-0.3235635,0.7783697,-0.27698675,56.52182,3.0704806,27.285019
-0.49732366,1.0284299,-0.31787983,53.802288,2.3023324,24.486057
-0.65399164,1.2553699,-0.3666298,51.01888,1.2233618,21.16846
-0.7864297,1.4659318,-0.41649082,47.974354,-0.21254423,17.638292
-0.8939476,1.6593335,-0.46369532,44.437813,-2.017582,13.988047
-0.9790342,1.8256589,-0.5104441,40.58898,-4.004922,10.337684
-1.0520301,1.9633074,-0.56390816,36.523685,-6.180391,6.682468
-1.1105154,2.0655444,-0.6220616,32.28472,-8.588521,2.9975824
-1.1447892,2.1402442,-0.67671365,27.852856,-11.142362,-0.62946624
-1.1519272,2.1897087,-0.72334546,22.986765,-13.669736,-4.0702124
-1.1382803,2.1951501,-0.7707985,18.022146,-16.049797,-7.211045
-1.1187205,2.152279,-0.8312126,13.147946,-18.337803,-10.028462
-1.0973234,2.0668895,-0.90289384,8.5544615,-20.61791,-12.690888
-1.0636992,1.9440466,-0.97654223,4.4057956,-22.90238,-15.474541
-1.0036832,1.7882558,-1.0450201,1.0257977,-25.170637,-18.536823
-0.8939888,1.585099,-1.0936692,-1.6525788,-27.275904,-21.50256
-0.7432234,1.3657122,-1.1162195,-3.931855,-29.157406,-24.097382
-0.5654158,1.1291355,-1.1178241,-5.957353,-30.738487,-26.132534
-0.37713242,0.8707296,-1.1077722,-7.647911,-32.006577,-27.507711
-0.1886527,0.59411174,-1.0887256,-8.895125,-32.891434,-28.112612
-0.007987308,0.3013214,-1.0546029,-9.717022,-33.533924,-28.169018
0.17056093,0.01529714,-1.0001118,-10.136543,-33.86491,-27.65173
0.3462973,-0.24866283,-0.9253094,-10.2301655,-33.80201,-26.5934
0.5138316,-0.48440674,-0.83721954,-10.117267,-33.363873,-25.079468
0.6680133,-0.69233555,-0.74289787,-9.860949,-32.491127,-23.031435
0.79661924,-0.8782543,-0.65188336,-9.372365,-31.408812,-20.718386
0.9057386,-1.0454247,-0.5657658,-8.562404,-30.191345,-18.228745
1.003869,-1.188071,-0.48118675,-7.363658,-28.82782,-15.681057
1.0987784,-1.2971522,-0.3926136,-6.0024614,-27.29582,-13.065109
1.1929861,-1.3775696,-0.30298582,-4.550481,-25.456408,-10.255831
1.2789022,-1.4274763,-0.21278296,-3.1120195,-23.41222,-7.4782114
1.3633658,-1.4530225,-0.12217407,-1.627013,-21.233963,-4.738507
1.4496758,-1.443811,-0.02805787,-0.18377912,-18.890766,-1.9618729
1.5310054,-1.3988048,0.06803077,1.0895569,-16.398256,0.7641178
1.6019816,-1.3274807,0.16390915,2.1483305,-13.643744,3.4024055
1.6577878,-1.2192576,0.2608173,2.9690924,-10.699092,5.944758
1.7037194,-1.0887818,0.35273686,3.4940038,-7.498422,8.389035
1.7358471,-0.9474216,0.43269023,3.6106741,-4.1578674,10.803474
1.7413771,-0.8072679,0.48916498,3.454416,-0.8165437,13.193284
1.723094,-0.65901726,0.5303257,2.7350984,2.3565373,15.444744
1.6938303,-0.5056445,0.55594635,1.6258295,5.495795,17.648415
1.6504663,-0.35354564,0.5636744,0.15163134,8.649259,19.765385
1.5864986,-0.20980874,0.54485446,-1.589758,11.779898,21.69606
1.5015806,-0.08447553,0.49858633,-3.4054089,14.776436,23.464447
1.3951842,0.02204436,0.43156666,-5.09186,17.568262,24.989143
1.2577446,0.12083829,0.3425,-6.636198,20.147058,26.17617
1.1066431,0.20686206,0.23228168,-7.964217,22.506674,26.96557
0.94943476,0.27527493,0.09602425,-9.25096,24.527357,27.488342
0.78539956,0.32247213,-0.06493721,-10.486329,26.139666,27.861277
0.6084184,0.3489726,-0.24710992,-11.360348,27.110939,27.948887
0.42417228,0.35606176,-0.43905777,-11.710057,27.587431,27.639462
0.24828613,0.36367807,-0.6242234,-11.593138,27.706572,26.959566
0.07729981,0.37721536,-0.80148536,-11.174671,27.453217,26.007769
-0.093921684,0.39182732,-0.9748514,-10.506747,26.766665,24.929165
-0.26657134,0.4074794,-1.142539,-9.639687,25.325457,23.741304
-0.4317539,0.4322397,-1.295539,-8.865505,23.363039,22.51091
-0.58865076,0.45049772,-1.4388534,-8.17733,21.007347,21.153143
-0.7339595,0.4431106,-1.5839047,-7.068828,18.498909,19.31982
-0.8603777,0.41031143,-1.7342473,-5.0254064,16.04162,16.618635
-0.9581764,0.3670219,-1.8815978,-2.031221,13.473049,13.429448
-1.0115197,0.32375944,-2.0133379,0.9864575,10.645684,10.634024
-1.0399367,0.2568174,-2.1476336,3.6561909,7.3708954,8.445197
-1.0548699,0.12100112,-2.3014972,6.680799,3.4718776,6.635212
-1.0380391,-0.054076515,-2.4453928,10.919905,-1.0638958,4.7602324
-0.94150263,-0.19609283,-2.5330942,16.378714,-5.8630056,2.8910522
-0.75523007,-0.27855456,-2.5352802,21.501005,-10.415134,1.7260383
-0.53997564,-0.36094704,-2.4953485,26.469322,-14.537434,1.5136975
-0.3340696,-0.41592592,-2.414075,31.565256,-18.232178,1.8574475
-0.1406175,-0.38796222,-2.278242,36.294693,-21.486326,2.2266164
0.03568673,-0.29764977,-2.095108,40.055386,-24.264357,2.4621437
0.17821111,-0.1356257,-1.8361236,43.03822,-26.760553,2.8884962
0.3131015,0.088847406,-1.5238894,44.867626,-28.789486,3.5072892
0.43582433,0.3391433,-1.1830636,45.574368,-30.162062,4.1752334
0.5411157,0.59397256,-0.8362081,45.272045,-30.79234,4.7212267
0.62503296,0.832597,-0.50039333,43.90297,-30.578047,4.9415236
0.6860044,1.050288,-0.1864386,41.88929,-29.98957,5.012059
0.7444715,1.2305478,0.09140366,39.356033,-29.271006,5.1622815
0.8182635,1.3569629,0.3299371,36.595642,-28.342682,5.736193
0.9214024,1.4516586,0.5384479,33.92362,-26.841866,7.5542846
0.892667,1.4063863,0.52165556,32.865658,-26.004757,7.3186917
0.864831,1.362531,0.50538874,31.840809,-25.193851,7.090473
0.83786595,1.320048,0.489631,30.848026,-24.40832,6.8693957
0.81174445,1.2788937,0.47436613,29.886301,-23.64736,6.6552334
0.7864397,1.2390265,0.4595786,28.954647,-22.910194,6.447768
0.7619261,1.2004056,0.44525334,28.05212,-22.196075,6.246789
0.7381786,1.1629916,0.43137583,27.1778,-21.504274,6.0520906
0.7151731,1.1267468,0.4179319,26.3308,-20.83409,5.8634763
0.6928863,1.0916342,0.40490797,25.510256,-20.18484,5.6807537
0.6712955,1.0576181,0.39229077,24.715342,-19.555868,5.503738
0.65037894,1.0246643,0.3800676,23.945246,-18.946535,5.3322496
0.63011533,0.99273926,0.36822596,23.199194,-18.356226,5.166115
0.61048424,0.9618107,0.35675398,22.476429,-17.784342,5.0051656
0.59146583,0.9318474,0.34564,21.77622,-17.230305,4.8492393
0.5730408,0.90281904,0.3348728,21.097858,-16.693558,4.698179
0.5551906,0.87469625,0.32444155,20.440662,-16.173553,4.551831
0.5378973,0.8474508,0.3143357,19.803967,-15.669772,4.410048
0.5211433,0.8210551,0.30454502,19.18713,-15.181704,4.272688
0.50491184,0.79548264,0.2950597,18.589529,-14.708856,4.139611
0.4891865,0.77070755,0.28587013,18.010563,-14.250752,4.010684
0.47395143,0.7467049,0.2769671,17.44965,-13.8069315,3.8857768
0.45919135,0.72345054,0.26834163,16.906221,-13.376948,3.7647636
0.4448914,0.7009211,0.25998503,16.379734,-12.960368,3.6475227
0.43103716,0.67909396,0.25188893,15.8696575,-12.556773,3.5339363
0.41761473,0.65794706,0.24404514,15.375479,-12.165757,3.4238899
0.4046106,0.6374592,0.23644581,14.896702,-11.786927,3.3172734
0.39201173,0.61760986,0.22908328,14.432843,-11.419903,3.213979
0.37980542,0.59837896,0.22195019,13.983439,-11.064314,3.1139035
0.36797947,0.5797473,0.21503934,13.5480385,-10.719806,3.0169463
0.35652193,0.5616961,0.20834382,13.126203,-10.386031,2.9230096
0.34542137,0.54420733,0.20185688,12.717509,-10.0626545,2.8319998
0.33466664,0.52726334,0.19557203,12.3215475,-9.7493515,2.743825
0.3242469,0.51084715,0.18948297,11.937921,-9.445809,2.658397
0.31415176,0.49494237,0.18358359,11.566243,-9.151722,2.57563
0.30437106,0.479533,0.17786795,11.206143,-8.866796,2.4954412
0.294895,0.46460354,0.17233033,10.85726,-8.590743,2.41775
0.28571406,0.4501391,0.1669652,10.519242,-8.323288,2.3424783
0.27681905,0.43612516,0.16176715,10.1917515,-8.064163,2.2695513
0.26820108,0.42254764,0.156731,9.87446,-7.813109,2.1988952
0.25985152,0.40939298,0.15185167,9.567051,-7.569873,2.1304395
0.25176194,0.39664796,0.1471243,9.269215,-7.3342113,2.0641158
0.24392429,0.38429984,0.14254415,8.980653,-7.1058884,1.9998574
0.2363307,0.3723362,0.13810661,8.7010765,-6.8846755,1.9376
0.22897357,0.36074513,0.13380726,8.430206,-6.670351,1.8772812
0.22184552,0.349515,0.12964179,8.16777,-6.4627,1.8188406
0.21493942,0.33863452,0.12560602,7.9135056,-6.2615147,1.7622198
0.20824836,0.3280928,0.1216959,7.667158,-6.0665936,1.7073618
0.20176563,0.31787938,0.11790753,7.428481,-5.877742,1.654212
0.19548474,0.3079839,0.114237115,7.1972356,-5.6947703,1.602717
0.18939942,0.29839656,0.110680975,6.97319,-5.517495,1.5528255
0.18350355,0.28910768,0.10723556,6.7561193,-5.34574,1.504487
0.17779125,0.280108,0.103897415,6.5458074,-5.179332,1.4576538
0.1722568,0.27138853,0.10066319,6.3420434,-5.0181046,1.4122785
0.16689464,0.26294053,0.097529665,6.144623,-4.8618965,1.3683159
0.16169943,0.25475553,0.094493695,5.9533486,-4.710552,1.325722
0.15666595,0.24682537,0.09155224,5.7680297,-4.5639195,1.2844542
0.15178919,0.23914208,0.08870236,5.5884795,-4.4218516,1.2444711
0.14706424,0.23169796,0.0859412,5.4145193,-4.284207,1.2057328
0.14248638,0.22448562,0.083266005,5.245975,-4.150847,1.1682004
0.13805105,0.2174978,0.08067408,5.0826774,-4.0216384,1.1318365
0.13375378,0.2107275,0.07816286,4.9244633,-3.8964527,1.0966046
0.12959029,0.20416798,0.0757298,4.771175,-3.775164,1.0624695
0.12555642,0.19781266,0.07337249,4.622658,-3.657651,1.029397
0.12164812,0.19165517,0.07108857,4.4787645,-3.543796,0.9973541
0.11786149,0.18568937,0.06887574,4.3393507,-3.4334857,0.9663087
0.114192724,0.17990929,0.06673179,4.2042766,-3.3266091,0.9362297
0.11063817,0.17430913,0.06465459,4.073407,-3.2230597,0.9070871
0.107194275,0.16888331,0.062642045,3.946612,-3.1227336,0.87885165
0.10385758,0.16362639,0.060692154,3.8237636,-3.0255306,0.85149515
0.100624755,0.15853311,0.05880296,3.7047396,-2.9313533,0.8249903
0.09749256,0.15359838,0.056972574,3.5894203,-2.8401077,0.79931045
