ax,ay,az,gx,gy,gz
-3.819126,-4.1764016,-8.574623,-41.837654,20.918373,-27.243885
-4.4799256,-4.910922,-9.259009,-24.404367,9.817468,-32.264473
-4.8832607,-5.19501,-9.317822,-4.840754,-4.755851,-44.284153
-4.7326403,-5.3768997,-9.231938,8.880408,-18.264618,-51.313522
-4.2425985,-5.711356,-9.1192875,20.977272,-30.448847,-52.472996
-3.6291938,-6.193204,-8.93174,32.31345,-40.88417,-49.2941
-2.963629,-6.652614,-8.630195,42.345257,-49.387833,-42.57206
-2.3530662,-7.073391,-8.180036,52.40225,-55.185062,-34.78317
-1.8227488,-7.3772326,-7.690757,61.04435,-58.731625,-25.890875
-1.3353237,-7.5255327,-7.18367,69.12021,-60.58907,-16.507183
-0.87600607,-7.447598,-6.611364,76.15986,-60.64204,-6.9858117
-0.49667314,-7.2528405,-6.0331583,81.91352,-59.82927,2.28184
-0.17378905,-6.950706,-5.450176,86.52233,-58.492313,10.480552
0.10614235,-6.612074,-4.9217234,89.61261,-57.07949,18.143137
0.34826273,-6.2572503,-4.4550147,91.52317,-55.624554,25.865639
0.545864,-5.867147,-4.0449243,92.7664,-54.12866,33.257103
0.70132965,-5.428107,-3.6657286,93.91943,-52.243233,39.132927
0.8259738,-4.9383,-3.3217204,95.46057,-49.74041,42.931274
0.9155963,-4.4269266,-3.021219,97.67614,-47.07116,45.76242
0.9808887,-3.873252,-2.740825,99.5852,-44.387325,47.932148
1.0166284,-3.2794142,-2.4868295,100.55075,-41.841457,49.708725
1.0100571,-2.6389115,-2.2482796,100.42907,-39.448425,50.85711
0.96293175,-1.9445378,-2.0144117,99.3975,-37.196823,51.046448
0.9003531,-1.2613246,-1.7912116,97.51879,-35.044724,50.179733
0.83660614,-0.5930186,-1.576888,94.64194,-32.788452,48.420982
0.75272334,0.03679359,-1.3881851,90.96152,-30.503443,46.039867
0.6477325,0.63089085,-1.2272048,85.90391,-28.511602,43.059887
0.52700317,1.1665742,-1.1108989,79.82237,-27.138851,39.956615
0.41736236,1.6446879,-1.0187465,72.62104,-26.26453,36.70884
0.3234005,2.0518873,-0.9595869,64.81123,-25.715052,33.240505
0.24042983,2.3789043,-0.9337197,56.790974,-25.48677,29.41445
0.18177937,2.6382196,-0.9266919,48.889927,-25.232025,25.18777
0.13392347,2.822386,-0.9307863,41.000095,-24.730286,20.361847
0.077184334,2.9406624,-0.9348534,33.523407,-24.051615,15.160686
0.016943827,3.0124817,-0.93163574,26.776907,-23.295353,9.662997
-0.02090343,3.0682797,-0.90402883,20.450388,-22.498777,3.9009228
-0.024802785,3.104276,-0.8624231,13.725597,-21.39388,-1.611569
-0.03927293,3.0707061,-0.86577076,6.832774,-20.322931,-6.478252
-0.069306076,2.983211,-0.92449844,0.041682485,-19.66213,-10.767847
-0.080081776,2.8414013,-1.0277053,-6.570416,-19.650644,-14.7707405
-0.041483592,2.6269407,-1.1529875,-12.893464,-20.242981,-18.593704
0.052193053,2.33567,-1.2777833,-18.556875,-20.898346,-21.98586
0.18766946,1.9408954,-1.4084737,-22.990953,-20.975605,-25.104258
0.31133926,1.5014648,-1.549186,-25.910748,-20.539324,-27.990427
0.41115004,1.0412563,-1.6852281,-27.625067,-19.978527,-30.388222
0.4769959,0.58053327,-1.8009374,-28.429733,-19.780573,-31.790442
0.5173452,0.12942573,-1.891544,-28.68088,-20.290216,-32.113083
0.5767372,-0.32157117,-1.942046,-27.975618,-21.289923,-31.407331
0.6647438,-0.74606085,-1.9554435,-26.176947,-22.031137,-30.448893
0.7736199,-1.1253827,-1.9227445,-23.557384,-22.238153,-29.213755
0.879705,-1.4526594,-1.8456188,-20.494326,-22.041855,-27.44416
0.9791249,-1.7157952,-1.7340387,-17.444624,-21.576593,-24.730684
1.0717589,-1.9027485,-1.6014444,-14.743299,-21.02706,-21.54943
1.1632725,-2.0511417,-1.4623915,-12.312019,-20.295145,-18.093922
1.2582073,-2.161684,-1.3134366,-10.045988,-19.18808,-14.431265
1.3567426,-2.2277303,-1.1511874,-7.857336,-17.549723,-10.673817
1.4516852,-2.266969,-0.98761964,-5.31094,-15.3429,-6.7583413
1.534742,-2.2631028,-0.8239972,-2.4124775,-12.973786,-3.1583629
1.6196585,-2.2071364,-0.6477779,0.97833973,-10.322662,-0.22371368
1.7121763,-2.0950165,-0.46084985,4.4514694,-7.338288,2.0718455
1.8006524,-1.9267251,-0.271483,7.492835,-3.955573,4.004936
1.867111,-1.721366,-0.09619667,9.7238,-0.2681314,5.949471
1.8956766,-1.4994898,0.04177605,10.742993,3.4903493,8.203165
1.8655713,-1.2689302,0.12435985,11.23497,7.0520945,10.471484
1.8077035,-1.0341246,0.17270623,11.221072,10.515106,12.597128
1.7276973,-0.8036415,0.18360065,10.94506,13.904987,14.354294
1.6304733,-0.57483023,0.15960948,10.330217,17.263876,15.543233
1.505918,-0.35544288,0.08348393,9.441315,20.458544,16.268297
1.3591056,-0.1588556,-0.035784837,8.278186,23.296333,16.682447
1.1869768,0.005357249,-0.19608708,6.8990397,25.521484,16.93093
0.9954613,0.13970971,-0.38288826,5.2743506,27.040895,17.118658
0.79675585,0.24998613,-0.5894997,3.4920363,27.59198,17.210907
0.60690516,0.3312456,-0.8151293,1.8132218,27.518215,17.143116
0.43012652,0.39387572,-1.0457596,0.578788,27.106161,16.628466
0.25899252,0.43686807,-1.2818391,0.0016664909,26.502703,15.513888
0.07985105,0.46832728,-1.5212694,0.1445537,25.52302,13.927819
-0.10767189,0.49860206,-1.7598433,0.72656107,23.813171,12.123362
-0.29256842,0.51775384,-1.9956461,1.5267271,20.726667,10.475924
-0.4584968,0.5224002,-2.2265117,2.0101228,16.638666,9.028321
-0.60366917,0.5005069,-2.4631789,2.2719617,11.701561,7.733411
-0.7198648,0.43093103,-2.7121143,2.9003017,6.2239847,6.386084
-0.8059678,0.31870574,-2.962222,4.5920777,-0.06279904,4.701725
-0.83720714,0.1956176,-3.1896605,6.6672397,-7.005743,3.2193747
-0.84502876,0.073932625,-3.3694975,9.025029,-14.430118,2.6000946
-0.8525998,-0.03241844,-3.4838781,11.332217,-21.85831,2.671821
-0.8428153,-0.12877488,-3.5406551,13.732406,-29.19275,2.975066
-0.79593325,-0.21182427,-3.5318155,16.372015,-35.998085,3.2590585
-0.7365866,-0.24555068,-3.4316938,18.826017,-42.463963,3.323393
-0.6440129,-0.2386043,-3.2585385,20.335056,-48.450394,3.2536507
-0.5107571,-0.21928024,-3.0274558,21.558924,-53.9807,3.2339492
-0.32521847,-0.19696708,-2.749733,22.62158,-58.933914,3.2014654
-0.07557548,-0.16471457,-2.4330304,23.335178,-63.007633,3.2177966
0.20672941,-0.11733136,-2.0887635,23.315453,-65.645515,3.7188952
0.48191795,-0.055112902,-1.7303547,23.03087,-67.31757,4.2633443
0.7603898,0.02146812,-1.3581544,22.598719,-67.99358,4.423996
1.0450166,0.11777167,-0.9743466,22.205042,-67.57365,4.1291313
1.3286047,0.22763772,-0.5990522,21.684477,-65.77212,3.666119
1.6048784,0.3252266,-0.25893554,20.814047,-63.067818,3.4084506
1.8513895,0.38174528,0.026066,19.982502,-59.537075,3.467868
1.7935529,0.36981973,0.025251709,19.358257,-57.67716,3.3595335
1.7375355,0.35826927,0.024463031,18.753647,-55.875748,3.2546062
1.6832789,0.3470819,0.023699146,18.168043,-54.130966,3.1529775
1.6307269,0.33624598,0.022959257,17.600836,-52.440994,3.0545413
1.5798249,0.3257503,0.022242598,17.051437,-50.804085,2.9591959
1.5305202,0.31558397,0.021548431,16.51928,-49.21854,2.8668425
1.482762,0.3057365,0.020876035,16.003815,-47.68273,2.777386
1.436501,0.2961978,0.02022472,15.504508,-46.19507,2.6907337
1.3916898,0.28695798,0.019593816,15.020849,-44.75403,2.606797
1.3482822,0.27800763,0.018982675,14.5523405,-43.358124,2.5254896
1.3062339,0.2693375,0.018390669,14.098502,-42.00593,2.446728
1.2655016,0.26093876,0.017817194,13.658869,-40.69606,2.370432
1.2260439,0.25280282,0.017261662,13.232992,-39.427177,2.2965229
1.1878204,0.24492136,0.016723508,12.8204365,-38.197987,2.224926
1.1507922,0.23728636,0.016202182,12.420782,-37.00723,2.1555676
1.1149216,0.22989006,0.015697153,12.033622,-35.8537,2.088378
1.0801721,0.22272491,0.015207909,11.658562,-34.73622,2.023288
1.0465082,0.21578364,0.014733952,11.29522,-33.65366,1.9602318
1.0138961,0.20905921,0.014274799,10.943229,-32.60492,1.8991454
0.9823024,0.2025448,0.013829988,10.602231,-31.588928,1.8399669
0.9516953,0.1962338,0.0133990655,10.271881,-30.604664,1.7826362
0.92204374,0.19011982,0.012981596,9.951844,-29.651127,1.7270952
0.8933177,0.18419668,0.012577158,9.641797,-28.727352,1.673288
0.8654881,0.1784584,0.012185342,9.341426,-27.832409,1.62116
0.8385269,0.17289916,0.01180575,9.0504265,-26.96539,1.5706586
0.8124069,0.16751337,0.011438002,8.768507,-26.12542,1.5217327
0.7871016,0.16229558,0.011081725,8.495381,-25.311651,1.474333
0.76258564,0.15724054,0.010736561,8.230774,-24.523266,1.4284117
0.73883426,0.15234314,0.010402162,7.974419,-23.759466,1.3839226
0.7158234,0.14759845,0.010078189,7.726058,-23.019484,1.3408207
0.6935301,0.14300169,0.009764317,7.4854403,-22.302574,1.2990626
0.6719318,0.13854825,0.009460231,7.2523246,-21.608013,1.2586064
0.65100676,0.13423364,0.009165624,7.0264754,-20.935106,1.2194114
0.6307339,0.1300535,0.008880201,6.807666,-20.28317,1.1814381
0.611093,0.12600365,0.0086036725,6.595676,-19.651556,1.1446483
0.5920641,0.12208003,0.008335763,6.390293,-19.039625,1.109005
0.57362825,0.11827866,0.008076201,6.1913104,-18.446764,1.0744724
0.5557668,0.11459575,0.007824727,5.998528,-17.872377,1.041016
0.538462,0.11102759,0.0075810896,5.8117523,-17.315886,1.008602
0.52169627,0.1075706,0.0073450427,5.630796,-16.776733,0.9771978
0.5054529,0.104221314,0.0071163494,5.4554768,-16.254377,0.9467721
0.48971555,0.10097637,0.006894781,5.2856197,-15.748296,0.9172942
0.4744684,0.09783251,0.006680114,5.1210537,-15.2579775,0.8887346
0.45969623,0.09478658,0.0064721345,4.961614,-14.782933,0.8610646
0.4453842,0.09183552,0.006270633,4.807141,-14.322686,0.8342565
0.43151793,0.088976376,0.006075408,4.657479,-13.876774,0.8082833
0.41808355,0.08620629,0.0058862627,4.5124784,-13.444751,0.78311914
0.40506756,0.08352247,0.0057030087,4.3719935,-13.026181,0.7587387
0.39245695,0.08092224,0.005525462,4.2358837,-12.620648,0.73511755
0.38023904,0.07840298,0.0053534443,4.104013,-12.227745,0.712232
0.36840162,0.07596218,0.0051867836,3.976249,-11.847077,0.6900591
0.35693285,0.07359739,0.005025313,3.8524637,-11.478263,0.6685768
0.3458212,0.07130623,0.00486887,3.732533,-11.1209345,0.6477634
0.33505553,0.06908642,0.004717299,3.6163366,-10.774732,0.62759805
0.3246251,0.066935726,0.0045704474,3.5037584,-10.43931,0.60806066
0.31451946,0.06485201,0.0044281683,3.3946857,-10.114332,0.5891316
0.30472848,0.06283316,0.0042903195,3.2890093,-9.799473,0.5707919
0.29524234,0.06087718,0.0041567627,3.186623,-9.494417,0.5530233
0.28605157,0.058982097,0.0040273643,3.0874248,-9.19886,0.5358079
0.27714694,0.05714602,0.0039019948,2.991315,-8.912505,0.5191285
0.26851958,0.055367105,0.0037805287,2.8981977,-8.635065,0.50296843
0.2601608,0.053643577,0.0036628442,2.8079793,-8.366263,0.48731145
0.25206226,0.051973708,0.0035488235,2.7205698,-8.10583,0.47214195
0.24421586,0.050355826,0.0034383528,2.6358817,-7.853505,0.45744473
0.23661374,0.048788317,0.0033313213,2.5538301,-7.609036,0.4432051
0.22924829,0.047269605,0.003227622,2.474333,-7.372177,0.42940873
0.22211213,0.045798175,0.0031271512,2.3973107,-7.1426926,0.4160419
0.21519816,0.044372555,0.0030298082,2.3226864,-6.9203525,0.4030912
0.20849942,0.042991314,0.0029354955,2.2503853,-6.704934,0.39054367
0.2020092,0.04165307,0.002844119,2.1803348,-6.4962215,0.37838677
0.19572105,0.04035649,0.002755587,2.1124654,-6.294007,0.36660832
0.18962865,0.039100274,0.002669811,2.0467083,-6.098087,0.35519654
0.18372591,0.037883166,0.0025867054,1.9829987,-5.908266,0.34414
0.17800692,0.036703944,0.0025061867,1.9212723,-5.7243547,0.33342767
0.17246595,0.03556143,0.0024281747,1.8614672,-5.5461683,0.3230488
0.16709748,0.034454487,0.0023525914,1.803524,-5.373529,0.31299305
0.16189612,0.033382,0.0022793605,1.7473847,-5.2062635,0.3032503
0.15685669,0.0323429,0.0022084096,1.6929927,-5.044205,0.29381084
0.15197413,0.031336144,0.0021396673,1.6402941,-4.8871913,0.28466523
0.14724356,0.030360727,0.002073065,1.5892358,-4.7350655,0.2758043
0.14266025,0.029415676,0.0020085357,1.5397669,-4.5876746,0.26721925
