ax,ay,az,gx,gy,gz
-0.6609151,-6.8255167,-6.4600587,-29.07481,-49.938637,9.100083
-0.23642348,-7.389884,-6.7292347,-3.9379327,-40.04545,8.951862
-0.18942757,-7.595132,-7.2019506,12.009637,-32.133877,13.455547
-0.44881898,-7.706242,-7.6986775,27.896273,-29.033665,20.232422
-0.9202232,-7.6718626,-8.137751,37.891045,-28.555655,23.514162
-1.4853343,-7.7579403,-8.524542,43.216007,-28.12279,25.036808
-2.087453,-7.9537706,-8.900551,44.574486,-30.546614,26.472385
-2.581639,-8.258538,-9.2072315,42.478195,-36.517918,30.462976
-2.8627427,-8.645896,-9.404062,38.320126,-44.708893,40.363934
-2.9547582,-9.024254,-9.5541115,35.06932,-57.165943,62.70833
-2.7961195,-9.221134,-9.521268,31.479404,-72.12954,93.12406
-2.3750787,-9.175375,-9.22126,25.607084,-87.264366,125.490685
-1.7995576,-8.949596,-8.70184,22.76157,-100.36898,148.75163
-1.0433054,-8.53605,-7.997217,25.227076,-110.278015,158.77661
0.00031609953,-7.9014874,-7.0814185,32.20283,-113.976776,161.36818
1.3313787,-6.8594403,-5.9501333,35.88742,-114.24873,164.26782
2.6216161,-5.7989984,-4.7886796,37.125458,-111.11755,166.2456
3.7572665,-4.84603,-3.710642,38.9832,-104.78403,165.88728
4.7007976,-3.9839716,-2.7775133,40.58306,-96.42198,162.68646
5.4507995,-3.2417367,-2.0006049,42.718224,-84.70642,156.17468
5.933403,-2.6103659,-1.4637071,44.263306,-71.6996,148.8617
6.233384,-2.0770795,-1.1019143,44.696556,-57.81464,141.41217
6.358455,-1.6025352,-0.9136296,43.63778,-44.09865,133.63037
6.340302,-1.2235566,-0.86071616,41.960064,-31.48971,125.75774
6.2103634,-0.93160325,-0.9267342,41.64056,-21.677261,117.70514
6.04236,-0.6691194,-1.023108,41.380753,-13.389833,109.59711
5.88709,-0.42353606,-1.1375622,40.88335,-6.007012,101.42486
5.740692,-0.20064308,-1.2776393,40.02169,0.80227506,93.110756
5.5994124,-0.0061388207,-1.4464222,38.405945,6.997048,84.7379
5.456787,0.15829466,-1.6434559,35.826805,12.1807785,76.59447
5.3039336,0.29325366,-1.8590016,32.745502,16.74703,69.01643
5.1231546,0.4037956,-2.098986,29.828686,20.511015,61.89444
4.896111,0.49429053,-2.3620021,27.174208,23.06105,55.279488
4.6402154,0.5711568,-2.6286902,24.566622,24.422703,49.16176
4.3834677,0.6261025,-2.8917718,21.891708,24.379684,43.500336
4.1440563,0.6431844,-3.1412113,19.470085,23.623436,38.300858
3.9161744,0.6546754,-3.3736973,16.914576,21.945053,33.668835
3.7059906,0.6657869,-3.584185,14.503308,19.72212,29.44074
3.5184517,0.67444193,-3.7730474,12.124634,16.873182,25.571825
3.3612754,0.6814464,-3.9209907,10.145819,13.56467,21.88944
3.232301,0.71531874,-4.0276527,8.216137,9.933399,18.385479
3.1324968,0.7725575,-4.0973988,5.6378646,5.960201,15.1818905
3.0592258,0.8298247,-4.122525,2.3792653,1.8632292,12.452102
3.0085342,0.8660536,-4.0954194,-1.3621607,-1.8492385,9.959184
2.9591644,0.86689174,-4.0215874,-5.345646,-4.9675684,7.5896845
2.9123852,0.83509934,-3.8869808,-9.278791,-8.082425,5.465851
2.8861742,0.78000844,-3.697972,-13.48581,-11.466977,3.5139096
2.9099367,0.6826709,-3.4534638,-17.681026,-14.647073,1.2916528
2.9927883,0.53311,-3.1689985,-21.416985,-17.368996,-1.3307048
3.1202426,0.3427324,-2.8501604,-24.392956,-18.89087,-4.0978665
3.241113,0.119601704,-2.510656,-26.688942,-19.200657,-6.6110597
3.2975936,-0.10457761,-2.1954553,-28.288229,-18.6177,-9.027573
3.2678413,-0.32711685,-1.9165237,-28.905085,-17.651142,-11.384864
3.1760085,-0.54511666,-1.6683002,-28.727293,-16.548346,-13.373379
3.050653,-0.74311674,-1.4543518,-28.016232,-15.609894,-14.8572855
2.921695,-0.9200994,-1.2735586,-26.880152,-14.6495905,-16.071035
2.8020098,-1.0718855,-1.125927,-25.410196,-13.565737,-17.049839
2.693728,-1.193116,-1.013584,-23.843319,-12.4450445,-17.663254
2.5997794,-1.2839009,-0.9315318,-22.204966,-11.12722,-17.79608
2.5105696,-1.3371606,-0.8821667,-20.70235,-9.711078,-17.27009
2.405536,-1.3482968,-0.86751175,-19.33204,-8.323074,-16.491034
2.2938118,-1.3374664,-0.8632835,-17.958288,-6.9065547,-15.642345
2.1825788,-1.2995098,-0.8681544,-16.728926,-5.3104706,-14.9671755
2.0605168,-1.2449689,-0.8910748,-15.502694,-3.7773876,-14.592818
1.9273952,-1.1736717,-0.9261424,-14.560094,-2.658257,-14.227388
1.7979187,-1.0946617,-0.9533984,-14.049459,-1.7027464,-13.523641
1.6903042,-1.0210904,-0.9634808,-13.761558,-0.69362676,-12.556219
1.6135805,-0.95291513,-0.9574511,-13.457979,0.55476946,-11.576591
1.5620474,-0.9224817,-0.92687285,-13.02817,0.5370517,-11.206867
1.5122385,-0.89306664,-0.89731777,-12.612742,0.5199268,-10.849515
1.4640892,-0.86463165,-0.86874735,-12.211156,0.50337243,-10.504069
1.4175376,-0.83714014,-0.841125,-11.822894,0.48736742,-10.170086
1.3725247,-0.8105574,-0.81441575,-11.447468,0.47189143,-9.847143
1.3289946,-0.78485024,-0.78858626,-11.084407,0.4569252,-9.534837
1.2868934,-0.759987,-0.7636046,-10.733264,0.44245028,-9.232782
1.2461698,-0.7359373,-0.73944044,-10.393611,0.42844898,-8.940612
1.2067748,-0.7126722,-0.7160646,-10.065039,0.41490448,-8.657973
1.1686614,-0.69016397,-0.6934492,-9.747156,0.4018006,-8.38453
1.1317846,-0.668386,-0.6715676,-9.439587,0.3891219,-8.119958
1.0961013,-0.6473129,-0.6503942,-9.141973,0.37685353,-7.8639493
1.0615702,-0.6269202,-0.62990445,-8.853968,0.3649813,-7.616207
1.0281515,-0.6071846,-0.6100748,-8.575241,0.35349154,-7.3764462
0.99580735,-0.5880834,-0.5908828,-8.305477,0.34237123,-7.1443934
0.9645011,-0.56959516,-0.5723065,-8.044368,0.3316077,-6.9197874
0.9341974,-0.5516991,-0.5543252,-7.791622,0.32118893,-6.702375
0.9048627,-0.5343752,-0.5369189,-7.546958,0.31110328,-6.491914
0.8764644,-0.5176043,-0.52006817,-7.3101034,0.3013396,-6.288171
0.84897125,-0.5013679,-0.5037545,-7.080798,0.2918871,-6.090922
0.8223531,-0.48564836,-0.4879601,-6.858791,0.28273544,-5.8999505
0.79658103,-0.4704284,-0.4726677,-6.6438403,0.27387467,-5.7150493
0.771627,-0.45569158,-0.4578607,-6.4357123,0.26529515,-5.5360174
0.7474642,-0.441422,-0.44352323,-6.234184,0.25698766,-5.362662
0.7240666,-0.42760435,-0.4296398,-6.0390377,0.24894328,-5.1947966
0.7014093,-0.41422382,-0.41619557,-5.850065,0.2411534,-5.0322423
0.67946804,-0.40126622,-0.4031763,-5.6670656,0.23360972,-4.8748255
0.6582196,-0.38871777,-0.3905681,-5.4898443,0.22630425,-4.722379
0.63764155,-0.37656522,-0.3783577,-5.3182144,0.21922925,-4.5747423
0.61771214,-0.3647957,-0.3665322,-5.151994,0.21237728,-4.4317594
0.59841055,-0.35339695,-0.35507917,-4.99101,0.20574114,-4.2932806
0.57971644,-0.34235698,-0.34398666,-4.835093,0.19931386,-4.15916
0.56161034,-0.33166426,-0.33324304,-4.68408,0.19308877,-4.0292587
0.5440734,-0.3213077,-0.32283714,-4.5378146,0.18705934,-3.9034405
0.52708745,-0.31127644,-0.31275815,-4.396144,0.18121934,-3.7815747
0.5106348,-0.30156016,-0.30299562,-4.258921,0.17556271,-3.6635356
0.49469838,-0.29214877,-0.29353943,-4.1260047,0.17008358,-3.5492005
0.47926188,-0.2830326,-0.28437987,-3.9972572,0.16477631,-3.4384515
0.4643093,-0.27420223,-0.27550745,-3.8725462,0.15963542,-3.3311746
0.4498253,-0.26564854,-0.26691306,-3.751743,0.15465564,-3.2272596
0.43579498,-0.2573628,-0.2585879,-3.6347241,0.14983185,-3.1265996
0.42220402,-0.24933654,-0.25052342,-3.5213695,0.1451591,-3.0290916
0.40903845,-0.24156149,-0.24271135,-3.4115627,0.1406326,-2.9346354
0.39628482,-0.23402973,-0.23514374,-3.3051918,0.13624775,-2.8431349
0.38393015,-0.22673355,-0.22781283,-3.2021482,0.13200006,-2.7544966
0.3719618,-0.21966553,-0.22071116,-3.1023269,0.12788518,-2.66863
0.3603676,-0.21281847,-0.21383151,-3.0056262,0.12389895,-2.5854478
0.34913576,-0.2061854,-0.20716688,-2.9119477,0.12003731,-2.5048654
0.33825487,-0.1997596,-0.20071048,-2.8211963,0.11629632,-2.4268007
0.3277139,-0.19353452,-0.19445577,-2.7332797,0.112672195,-2.3511746
0.31750214,-0.18750387,-0.18839641,-2.648109,0.10916126,-2.2779107
0.30760923,-0.18166152,-0.18252625,-2.5655978,0.105759956,-2.2069342
0.29802516,-0.17600156,-0.17683935,-2.4856625,0.10246483,-2.1381736
0.28874028,-0.17051828,-0.17132996,-2.4082224,0.09927257,-2.0715594
0.27974513,-0.16520612,-0.16599251,-2.3331988,0.096179925,-2.007024
0.27103066,-0.1600597,-0.16082162,-2.2605164,0.093183786,-1.9445024
0.26258808,-0.15507387,-0.15581203,-2.1901014,0.090281114,-1.8839313
0.25440887,-0.15024355,-0.15095872,-2.1218832,0.087469,-1.8252497
0.24648476,-0.14556389,-0.14625679,-2.0557926,0.08474459,-1.7683983
0.23880775,-0.14103016,-0.14170149,-1.991763,0.08210514,-1.7133199
0.23137015,-0.13663782,-0.13728823,-1.92973,0.079547994,-1.6599591
0.22416444,-0.13238242,-0.13301258,-1.8696313,0.07707058,-1.608262
0.21718338,-0.12825969,-0.12887022,-1.8114061,0.074670404,-1.5581764
0.21041994,-0.12426548,-0.12485699,-1.754996,0.07234505,-1.5096523
0.20386732,-0.12039576,-0.120968856,-1.7003442,0.07009217,-1.4626406
0.19751891,-0.116646655,-0.11720191,-1.6473957,0.06790951,-1.4170942
0.19136837,-0.113014385,-0.11355235,-1.5960974,0.06579487,-1.3729672
0.18540949,-0.10949531,-0.110016525,-1.5463976,0.06374613,-1.3302155
0.17963628,-0.1060859,-0.106590874,-1.4982466,0.061761234,-1.2887957
0.17404296,-0.102782704,-0.10327196,-1.4515958,0.05983818,-1.2486666
0.16862391,-0.09958243,-0.100056455,-1.4063984,0.05797504,-1.2097877
0.16337368,-0.09648187,-0.09694113,-1.3626093,0.056169946,-1.1721202
0.15828702,-0.09347789,-0.09392285,-1.3201842,0.054421086,-1.1356261
0.15335882,-0.090567484,-0.0909986,-1.2790807,0.052726705,-1.1002687
0.14858411,-0.087747745,-0.08816543,-1.2392576,0.051085103,-1.0660127
0.14395814,-0.08501583,-0.08542052,-1.200675,0.049494635,-1.0328238
0.13947625,-0.082369015,-0.082761094,-1.163294,0.047953706,-1.0006686
0.13513395,-0.07980463,-0.080184504,-1.1270773,0.04646077,-0.96951497
0.13092689,-0.077320114,-0.077688165,-1.0919886,0.04501433,-0.9393316
0.12685086,-0.07491297,-0.075269565,-1.0579927,0.04361294,-0.9100882
0.12290177,-0.07258079,-0.07292628,-1.0250554,0.042255186,-0.8817555
0.11907565,-0.07032125,-0.07065598,-0.9931439,0.04093972,-0.8543051
0.11536868,-0.06813206,-0.068456374,-0.96222615,0.03966522,-0.82770956
0.11177715,-0.06601104,-0.06632526,-0.9322712,0.0384304,-0.80194217
0.10829745,-0.063956074,-0.06426051,-0.9032489,0.037234038,-0.7769772
0.1049261,-0.061965097,-0.062260058,-0.8751304,0.036074925,-0.75278956
0.10165973,-0.06003611,-0.06032189,-0.8478874,0.034951907,-0.72935504
0.098495066,-0.058167186,-0.058444068,-0.8214927,0.033863854,-0.70665026
0.095428936,-0.056356452,-0.056624718,-0.7959198,0.03280968,-0.6846524
0.09245827,-0.0546021,-0.05486201,-0.77114314,0.031788327,-0.6633394
0.0895801,-0.052902367,-0.05315419,-0.74713784,0.030798774,-0.64269
0.08679153,-0.051255558,-0.051499538,-0.72388,0.02984003,-0.6226836
0.08408979,-0.049660016,-0.049896404,-0.7013463,0.028911138,-0.6033
0.081472166,-0.04811415,-0.04834318,-0.6795141,0.028011164,-0.58451986
0.07893603,-0.046616413,-0.046838313,-0.6583616,0.02713921,-0.5663245
0.076478854,-0.045165308,-0.045380298,-0.6378677,0.0262944,-0.5486955
0.07409818,-0.043759376,-0.043967675,-0.6180118,0.025475893,-0.5316154
0.07179161,-0.042397212,-0.04259903,-0.598774,0.024682868,-0.51506704
0.06955686,-0.041077457,-0.04127299,-0.58013517,0.02391453,-0.49903384
0.06739168,-0.03979879,-0.039988235,-0.56207657,0.023170114,-0.4834998
0.06529389,-0.038559925,-0.038743474,-0.54458016,0.02244887,-0.46844932
0.06326142,-0.03735963,-0.037537463,-0.5276284,0.02175008,-0.4538674
0.061292224,-0.036196698,-0.036369,-0.5112044,0.021073043,-0.43973944
0.059384324,-0.03506997,-0.035236906,-0.49529168,0.020417083,-0.42605126
0.057535816,-0.033978317,-0.034140058,-0.4798743,0.019781545,-0.4127892
0.055744857,-0.032920647,-0.033077355,-0.4649369,0.019165788,-0.39993998
0.054009646,-0.031895902,-0.03204773,-0.4504645,0.018569201,-0.38749078
0.052328452,-0.030903058,-0.03105016,-0.43644258,0.017991185,-0.3754291
0.05069959,-0.029941121,-0.030083645,-0.42285717,0.017431164,-0.3637429
0.04912144,-0.029009128,-0.029147215,-0.40969467,0.016888574,-0.35242048
0.047592413,-0.028106146,-0.028239936,-0.3969419,0.016362876,-0.3414505
0.046110984,-0.027231274,-0.027360898,-0.38458613,0.015853541,-0.33082202
