ax,ay,az,gx,gy,gz
-1.540014,-2.5054774,-6.5864234,115.63469,-54.821407,68.69335
-2.3476188,-2.7277598,-7.23517,99.39112,-98.03057,56.98877
-2.4889655,-3.3741693,-7.595445,68.59273,-138.42354,50.919464
-1.5224735,-4.2069635,-7.238896,43.52302,-162.92914,52.663605
-0.059736952,-5.1471424,-6.597074,32.406693,-172.3413,62.87772
1.4104319,-5.9282312,-5.8902545,31.467754,-174.70857,78.62281
2.6365402,-6.2172213,-5.0858073,43.319004,-165.88023,94.94655
3.3136845,-5.8543963,-4.4033413,57.594875,-155.38927,106.98387
3.6932678,-5.300545,-3.7711358,70.49085,-145.48141,116.72216
3.954131,-4.597277,-3.1349401,78.75461,-137.14001,127.11579
4.247656,-3.7614114,-2.446201,81.28623,-130.04698,140.50781
4.616335,-2.7958574,-1.6904482,77.801056,-122.18207,155.91443
5.0537763,-1.6230344,-0.84561867,72.459404,-111.951706,164.75842
5.4398937,-0.54595935,-0.049648266,68.06438,-97.9341,163.35904
5.721409,0.35186455,0.60270053,65.561035,-81.18997,155.73259
5.8508306,1.1433523,1.0944262,61.918198,-63.72125,147.89484
5.783699,1.834907,1.3820423,55.237667,-47.76759,142.11217
5.5248647,2.4031508,1.4511964,48.03968,-34.502495,136.63463
5.2472973,2.838062,1.4335861,41.9277,-23.380642,129.99963
5.013592,3.141815,1.3685625,36.347248,-13.390343,122.33205
4.823876,3.3149586,1.2405357,31.281702,-4.4551272,114.41717
4.6621795,3.3805554,1.0505223,25.898655,2.1836834,107.174614
4.52653,3.4076052,0.8434185,20.381525,7.58093,100.95949
4.3693666,3.456803,0.614808,14.738445,11.997986,94.78037
4.200429,3.4997888,0.37685943,9.571918,15.987308,88.201355
4.0121164,3.5275347,0.11833268,4.8993554,19.3761,81.4211
3.8295262,3.5337245,-0.14491092,0.5646224,22.109333,74.94349
3.6294265,3.495719,-0.44280738,-3.5478182,23.652946,69.06491
3.4170601,3.4255369,-0.74499506,-7.193099,24.045822,63.633133
3.2126625,3.3306391,-1.0364575,-10.395382,23.494642,58.74512
3.0292912,3.217467,-1.3088245,-13.190292,22.410374,54.520008
2.8376744,3.0939567,-1.5822624,-15.397827,20.43063,50.74947
2.6189747,2.9628508,-1.8500701,-17.185196,17.754103,47.306595
2.3894455,2.842516,-2.1020577,-18.852936,14.048205,44.27126
2.1632135,2.7278545,-2.3279598,-20.417606,9.627201,41.516167
1.9577152,2.6160357,-2.5218053,-21.709406,4.474426,39.06058
1.8094623,2.536267,-2.653548,-22.972883,-1.1405458,36.80756
1.7448671,2.4965687,-2.6933281,-24.167244,-6.4559493,34.245907
1.7028558,2.4471037,-2.6744328,-24.999615,-11.337293,31.056488
1.6871378,2.3816106,-2.596934,-25.462513,-15.948734,27.186937
1.7447361,2.2910383,-2.4382834,-25.751596,-19.775463,23.575136
1.8826338,2.2258592,-2.20834,-26.367016,-21.787525,21.315111
2.021935,2.217152,-1.9414506,-27.832048,-22.19129,19.415533
2.0733263,2.1924574,-1.7014899,-29.444433,-21.514088,16.590918
2.045314,2.1272695,-1.4778168,-30.787264,-20.184294,12.199073
1.9968619,2.0139408,-1.2558408,-32.26256,-18.172125,7.007226
1.9475778,1.8623488,-1.0494754,-35.179073,-15.322346,2.556213
1.8696333,1.6240011,-0.94193536,-37.449585,-12.937913,-1.0755584
1.7812392,1.3467456,-0.8819315,-38.120544,-12.18051,-4.3392925
1.7456652,1.0682625,-0.80107147,-37.90415,-12.127602,-7.265175
1.7584591,0.78706914,-0.7035298,-37.36889,-12.117935,-9.366885
1.7866356,0.5078664,-0.6050753,-36.223297,-11.662067,-10.015303
1.7803338,0.28724992,-0.5301739,-34.894917,-11.139944,-9.880528
1.7414719,0.11790125,-0.4749853,-33.46825,-10.7694,-9.210799
1.6771224,-0.003773343,-0.43341058,-31.961199,-10.667387,-8.297046
1.5954069,-0.07899099,-0.39891058,-30.437122,-10.837034,-7.3303347
1.5026625,-0.10786284,-0.36580002,-28.69565,-11.028611,-6.846446
1.4077961,-0.095217004,-0.33155894,-26.799063,-11.101249,-6.6660824
1.3266191,-0.06600337,-0.29165122,-25.143892,-11.215126,-6.4961653
1.2829514,-0.0398473,-0.244432,-24.048538,-11.561566,-6.077795
1.2412782,-0.038552966,-0.23649229,-23.267387,-11.186021,-5.8803744
1.2010639,-0.037303947,-0.22883053,-22.51358,-10.823621,-5.6898646
1.1622477,-0.03609835,-0.22143513,-21.785982,-10.473821,-5.5059786
1.1247722,-0.034934398,-0.21429521,-21.083517,-10.136105,-5.3284445
1.0885835,-0.03381041,-0.20740041,-20.40517,-9.809982,-5.1570053
1.0536301,-0.032724787,-0.20074098,-19.749979,-9.494993,-4.991419
1.0198634,-0.031676024,-0.19430763,-19.117031,-9.190698,-4.831454
0.9872371,-0.030662682,-0.18809158,-18.505463,-8.89668,-4.676892
0.95570755,-0.029683404,-0.18208447,-17.914452,-8.612545,-4.527525
0.925233,-0.028736893,-0.17627835,-17.343216,-8.337918,-4.3831563
0.8957738,-0.027821917,-0.1706657,-16.791012,-8.07244,-4.2435975
0.8672921,-0.026937302,-0.16523927,-16.257132,-7.8157725,-4.1086698
0.83975196,-0.026081929,-0.15999223,-15.740898,-7.567589,-3.9782023
0.8131189,-0.02525473,-0.15491802,-15.24167,-7.3275795,-3.852032
0.7873601,-0.024454685,-0.15001036,-14.758828,-7.095449,-3.7300036
0.76244414,-0.02368082,-0.1452633,-14.291787,-6.8709145,-3.611968
0.7383411,-0.0229322,-0.14067112,-13.839982,-6.653705,-3.4977832
0.71502215,-0.022207936,-0.13622831,-13.402876,-6.443562,-3.3873131
0.6924598,-0.02150717,-0.13192967,-12.979952,-6.2402368,-3.2804275
0.6706277,-0.020829085,-0.12777014,-12.570716,-6.043493,-3.177001
0.64950055,-0.020172894,-0.12374493,-12.174693,-5.853101,-3.076914
0.62905407,-0.019537844,-0.11984939,-11.7914295,-5.6688433,-2.9800518
0.6092649,-0.018923212,-0.1160791,-11.420487,-5.4905095,-2.8863037
0.5901108,-0.018328302,-0.11242979,-11.061449,-5.3178983,-2.7955637
0.5715701,-0.017752444,-0.108897366,-10.71391,-5.1508155,-2.7077298
0.55362225,-0.017195001,-0.105477884,-10.377482,-4.9890747,-2.6227045
0.5362473,-0.016655352,-0.102167554,-10.051795,-4.832497,-2.5403934
0.51942617,-0.016132902,-0.09896273,-9.736487,-4.68091,-2.4607055
0.5031404,-0.01562708,-0.095859915,-9.431215,-4.5341477,-2.383554
0.48737222,-0.015137336,-0.092855714,-9.135646,-4.39205,-2.3088548
0.4721046,-0.014663138,-0.08994688,-8.849459,-4.2544627,-2.2365267
0.45732108,-0.014203975,-0.08713028,-8.572346,-4.121238,-2.1664917
0.44300574,-0.013759353,-0.084402874,-8.304009,-3.9922326,-2.098675
0.42914328,-0.013328798,-0.081761755,-8.044162,-3.8673084,-2.0330036
0.41571897,-0.0129118515,-0.07920411,-7.792527,-3.7463326,-1.9694079
0.40271854,-0.01250807,-0.07672723,-7.548838,-3.6291769,-1.9078203
0.39012828,-0.012117028,-0.07432849,-7.3128376,-3.515717,-1.8481758
0.37793487,-0.011738312,-0.07200536,-7.0842757,-3.405834,-1.7904114
0.36612555,-0.011371526,-0.06975541,-6.862914,-3.299412,-1.7344664
0.35468796,-0.011016284,-0.06757629,-6.6485195,-3.1963398,-1.6802825
0.3436101,-0.010672216,-0.065465696,-6.4408684,-3.0965095,-1.6278027
0.3328805,-0.010338964,-0.06342146,-6.2397447,-2.9998176,-1.5769727
0.32248795,-0.0100161815,-0.061441436,-6.0449395,-2.906163,-1.5277395
0.3124217,-0.009703533,-0.059523582,-5.8562512,-2.8154492,-1.4800522
0.30267134,-0.009400696,-0.057665914,-5.673484,-2.727582,-1.4338614
0.2932268,-0.009107358,-0.055866513,-5.496449,-2.6424708,-1.3891193
0.2840784,-0.008823215,-0.054123525,-5.324964,-2.5600278,-1.3457799
0.27521664,-0.008547978,-0.052435156,-5.1588535,-2.4801686,-1.3037987
0.2666325,-0.008281361,-0.050799675,-4.997946,-2.4028106,-1.2631325
0.2583171,-0.008023093,-0.049215402,-4.842077,-2.3278751,-1.2237396
0.25026202,-0.00777291,-0.04768072,-4.6910863,-2.255285,-1.1855798
0.24245897,-0.007530554,-0.04619406,-4.544821,-2.1849663,-1.148614
0.23490001,-0.00729578,-0.0447539,-4.40313,-2.1168473,-1.1128045
0.22757742,-0.0070683467,-0.043358777,-4.26587,-2.0508583,-1.0781147
0.22048374,-0.0068480237,-0.042007267,-4.1329017,-1.9869322,-1.0445095
0.21361177,-0.0066345865,-0.040698,-4.0040884,-1.9250041,-1.0119545
0.20695451,-0.006427818,-0.039429635,-3.8793,-1.865011,-0.9804168
0.20050523,-0.006227509,-0.038200896,-3.7584102,-1.8068919,-0.9498642
0.19425735,-0.006033456,-0.037010532,-3.641296,-1.750588,-0.92026585
0.18820457,-0.0058454624,-0.03585734,-3.5278382,-1.6960423,-0.8915917
0.18234077,-0.0056633377,-0.034740146,-3.417923,-1.6431993,-0.86381274
0.17665999,-0.0054868977,-0.033657826,-3.3114383,-1.5920058,-0.8369009
0.17115648,-0.005315964,-0.03260928,-3.208277,-1.54241,-0.81082886
0.16582471,-0.0051503642,-0.031593457,-3.1083345,-1.4943618,-0.7855704
0.16065928,-0.004989931,-0.030609323,-3.0115101,-1.4478126,-0.76109993
0.155655,-0.004834502,-0.029655889,-2.9177063,-1.4027153,-0.73739284
0.15080678,-0.004683921,-0.028732192,-2.826828,-1.3590248,-0.71442515
0.14610977,-0.004538036,-0.0278373,-2.7387838,-1.3166966,-0.6921737
0.14155921,-0.0043967003,-0.026970316,-2.653485,-1.2756885,-0.67061615
0.13715056,-0.0042597707,-0.026130363,-2.5708458,-1.2359589,-0.64973074
0.13287933,-0.004127111,-0.025316596,-2.4907832,-1.197468,-0.62949646
0.12874125,-0.0039985855,-0.024528196,-2.413216,-1.1601769,-0.6098929
0.12473216,-0.003874067,-0.02376437,-2.3380668,-1.1240482,-0.5909004
0.120848015,-0.003753429,-0.02302435,-2.2652597,-1.0890455,-0.5724999
0.11708493,-0.0036365509,-0.022307394,-2.1947217,-1.0551337,-0.5546727
0.1134391,-0.0035233148,-0.02161278,-2.1263819,-1.0222785,-0.5374012
0.10990688,-0.0034136074,-0.02093981,-2.0601716,-0.9904473,-0.5206678
0.10648472,-0.003307318,-0.02028781,-1.9960241,-0.95960784,-0.5044558
0.10316918,-0.0032043406,-0.019656124,-1.9338753,-0.9297292,-0.48874894
0.09995694,-0.003104571,-0.019044116,-1.8736627,-0.9007814,-0.4735314
0.09684476,-0.0030079097,-0.018451175,-1.815326,-0.87273544,-0.45878792
0.093829535,-0.0029142597,-0.017876703,-1.7588065,-0.8455632,-0.44450372
0.09090823,-0.0028235265,-0.017320126,-1.7040474,-0.81923723,-0.43066448
0.08807792,-0.0027356197,-0.016780887,-1.6509942,-0.7937314,-0.4172563
0.08533577,-0.002650451,-0.016258443,-1.5995933,-0.7690199,-0.40426573
0.08267902,-0.0025679348,-0.01575227,-1.5497934,-0.7450781,-0.3916798
0.080105014,-0.0024879887,-0.015261864,-1.5015445,-0.721882,-0.37948582
0.07761117,-0.0024105322,-0.01478673,-1.4547982,-0.69940823,-0.3676716
0.075195,-0.0023354879,-0.014326392,-1.4095076,-0.6776344,-0.35622534
0.072854064,-0.0022627807,-0.01388039,-1.3656275,-0.6565386,-0.3451355
0.07058603,-0.0021923375,-0.013448277,-1.3231139,-0.63609976,-0.33439103
0.06838862,-0.0021240881,-0.013029619,-1.2819241,-0.6162974,-0.3239811
0.06625964,-0.0020579637,-0.012623998,-1.242017,-0.59711164,-0.31389537
0.064196944,-0.0019938985,-0.012231008,-1.2033525,-0.5785233,-0.30412367
0.062198482,-0.0019318281,-0.011850254,-1.1658919,-0.56051373,-0.29465622
0.060262244,-0.0018716903,-0.011481356,-1.1295977,-0.54306495,-0.2854836
0.058386292,-0.001813425,-0.011123943,-1.0944335,-0.52615947,-0.27659655
0.05656875,-0.0017569737,-0.01077766,-1.0603642,-0.50978035,-0.2679862
0.054807797,-0.0017022801,-0.010442157,-1.0273557,-0.49391115,-0.25964394
0.05310167,-0.0016492894,-0.010117101,-0.99537486,-0.47853607,-0.2515614
0.05144866,-0.0015979485,-0.0098021645,-0.96438974,-0.46363968,-0.24373053
0.04984712,-0.0015482061,-0.009497033,-0.9343693,-0.44920704,-0.23614345
0.04829544,-0.0015000122,-0.009201402,-0.9052835,-0.43522376,-0.2287926
0.046792064,-0.0014533187,-0.008914974,-0.8771032,-0.4216758,-0.22167057
0.045335494,-0.001408079,-0.008637464,-0.8498002,-0.40854964,-0.21477029
0.04392427,-0.0013642476,-0.008368593,-0.8233472,-0.39583212,-0.20808482
0.04255698,-0.0013217808,-0.008108092,-0.7977178,-0.38351053,-0.20160748
0.041232254,-0.0012806362,-0.007855701,-0.7728862,-0.3715725,-0.19533178
0.03994877,-0.0012407723,-0.0076111676,-0.7488277,-0.36000612,-0.18925147
0.03870524,-0.0012021494,-0.0073742466,-0.7255181,-0.34879982,-0.18336043
0.037500426,-0.001164729,-0.007144701,-0.7029342,-0.3379424,-0.17765279
0.036333114,-0.0011284733,-0.0069223014,-0.68105334,-0.32742295,-0.17212284
0.03520214,-0.0010933464,-0.006706825,-0.65985364,-0.317231,-0.16676502
0.034106378,-0.001059313,-0.0064980565,-0.6393138,-0.3073563,-0.16157399
0.033044726,-0.001026339,-0.006295787,-0.61941344,-0.297789,-0.15654457
0.03201612,-0.0009943915,-0.006099814,-0.6001326,-0.28851953,-0.15167171
0.031019537,-0.0009634385,-0.0059099416,-0.5814519,-0.2795386,-0.14695053
0.030053975,-0.000933449,-0.0057259793,-0.5633527,-0.27083725,-0.14237632
0.029118469,-0.0009043931,-0.005547744,-0.54581696,-0.26240677,-0.1379445
0.028212085,-0.00087624165,-0.005375057,-0.5288271,-0.25423872,-0.13365065
