ax,ay,az,gx,gy,gz
0.97000885,0.20909281,-2.3400211,-22.472023,-35.067593,7.269157
1.1667855,-0.16878971,-2.0160136,-17.435757,-31.154564,5.2307563
0.8824688,-0.32623947,-2.1239464,-8.447944,-26.98425,-0.7005522
0.4825832,-0.3308322,-2.3489377,-4.5719185,-24.143684,-6.147142
0.28160873,-0.3930173,-2.5038369,-0.8639282,-20.042309,-9.438209
0.1795662,-0.3461808,-2.7317433,0.4103322,-17.018425,-10.52263
0.091850854,-0.36171225,-2.9387345,-1.3208541,-15.4169655,-9.29951
0.050274257,-0.46177828,-3.1057775,-2.3359997,-14.031882,-7.156846
-0.013501698,-0.5734415,-3.2736535,-2.1556697,-13.236599,-5.1445637
-0.113079995,-0.67496145,-3.4563427,-0.60543716,-13.548263,-3.6940734
-0.22127186,-0.71955067,-3.645473,1.4037532,-15.336045,-2.968105
-0.28215873,-0.74293685,-3.8145509,2.7131302,-18.274036,-2.0340233
-0.31589606,-0.81805784,-3.9737172,3.0583162,-21.202993,-0.31501308
-0.3511131,-0.926534,-4.105041,3.740556,-24.042105,1.770591
-0.36927372,-0.9845369,-4.212,5.901098,-27.075903,3.3153062
-0.3554743,-0.95994914,-4.2948203,8.491142,-30.335884,4.2531385
-0.30521464,-0.88250995,-4.3566966,9.550084,-33.60335,5.523363
-0.24259655,-0.7598774,-4.450016,7.8414216,-36.748505,7.6727824
-0.2229301,-0.67851126,-4.6131682,3.277235,-40.176258,10.538225
-0.24095297,-0.69940263,-4.872342,-2.7961192,-44.465595,13.644672
-0.30361035,-0.8914294,-5.2078443,-7.863903,-49.963985,15.518855
-0.38468972,-1.2886591,-5.5074906,-9.391058,-56.74026,17.044714
-0.34466627,-1.6933869,-5.599802,-8.416404,-64.20765,19.10134
-0.12774132,-1.9133312,-5.440432,-5.769126,-71.34733,21.24037
0.2240656,-1.8918035,-5.0225883,-2.2740514,-77.14311,22.949553
0.6273689,-1.6651691,-4.3742895,0.84487164,-81.16574,24.186121
1.0287691,-1.2894101,-3.5641034,2.568471,-82.11988,24.702082
1.3239877,-0.82398444,-2.7120028,2.3131075,-81.28072,25.175493
1.5231158,-0.3782307,-1.9590735,-0.5515936,-79.709724,25.883917
1.670277,-0.043372713,-1.3297212,-5.316973,-77.52541,26.896063
1.758852,0.15779497,-0.84323174,-10.738725,-75.03259,27.766478
1.8025581,0.20239855,-0.47714254,-14.7273245,-72.29496,27.865982
1.8313507,0.12918481,-0.20967872,-16.622131,-69.2722,27.380974
1.8640424,0.07807018,0.0046678865,-17.251451,-65.85715,26.852798
1.8647009,0.049950793,0.15761368,-17.418192,-62.211605,26.596922
1.824258,0.016891906,0.2518306,-17.281689,-58.50958,26.616194
1.758702,-0.011243838,0.30059004,-16.625748,-54.98769,26.657564
1.6693579,-0.026370186,0.31297532,-15.589295,-51.983818,26.660383
1.5829103,-0.038846802,0.31748456,-14.2215605,-49.61174,26.773596
1.5171684,-0.034793608,0.33125213,-12.628041,-47.453968,26.747576
1.4622383,-0.033533882,0.31925893,-12.170835,-45.735867,25.779161
1.4097863,-0.032330986,0.3078068,-11.734254,-44.095272,24.854437
1.3596544,-0.0311813,0.2968612,-11.316985,-42.52725,23.970615
1.3116989,-0.030081522,0.28639078,-10.91783,-41.027294,23.12516
1.2657882,-0.029028641,0.27636683,-10.535696,-39.5913,22.31576
1.2218021,-0.028019898,0.26676312,-10.169581,-38.215508,21.540289
1.1796305,-0.027052764,0.25755554,-9.818568,-36.89646,20.796804
1.1391717,-0.026124913,0.24872193,-9.4818125,-35.630993,20.083519
1.1003324,-0.0252342,0.24024191,-9.158536,-34.416176,19.398785
1.0630261,-0.024378646,0.23209663,-8.848021,-33.249313,18.741077
1.0271732,-0.02355642,0.22426863,-8.549601,-32.127903,18.108992
0.9926994,-0.022765826,0.21674179,-8.262661,-31.049635,17.501223
0.9595361,-0.022005284,0.20950106,-7.986629,-30.012354,16.916555
0.92761934,-0.02127333,0.20253249,-7.720972,-29.014063,16.353865
0.8968895,-0.020568594,0.19582306,-7.465194,-28.052895,15.8121
0.8672909,-0.019889802,0.18936062,-7.2188325,-27.12711,15.290278
0.83877146,-0.019235758,0.18313383,-6.9814534,-26.23508,14.787484
0.8112826,-0.018605348,0.177132,-6.752651,-25.375282,14.3028555
0.78477836,-0.01799752,0.17134519,-6.5320454,-24.546284,13.835588
0.7592159,-0.017411292,0.16576399,-6.3192782,-23.746742,13.384925
0.7345548,-0.016845733,0.1603796,-6.1140137,-22.975395,12.950151
0.7107571,-0.016299972,0.15518369,-5.915935,-22.231049,12.530599
0.6877867,-0.015773186,0.15016843,-5.7247424,-21.51258,12.125632
0.6656098,-0.015264598,0.14532642,-5.5401545,-20.818932,11.734654
0.64419425,-0.01477347,0.14065064,-5.361904,-20.149097,11.3571005
0.62350976,-0.014299108,0.13613449,-5.1897383,-19.502129,10.9924345
0.6035275,-0.0138408495,0.13177164,-5.0234175,-18.877123,10.640149
0.58422023,-0.01339807,0.12755617,-4.8627143,-18.27323,10.299762
0.5655619,-0.012970174,0.12348239,-4.707413,-17.689634,9.970818
0.54752785,-0.012556596,0.11954492,-4.557308,-17.125568,9.652879
0.5300947,-0.012156796,0.11573864,-4.4122047,-16.580294,9.345533
0.51324004,-0.011770263,0.112058654,-4.271916,-16.053112,9.048387
0.4969425,-0.011396508,0.108500324,-4.136265,-15.543359,8.761062
0.48118177,-0.011035063,0.10505919,-4.005081,-15.050395,8.483201
0.4659384,-0.010685483,0.10173102,-3.8782043,-14.573613,8.214462
0.45119384,-0.010347342,0.098511755,-3.755479,-14.112433,7.9545164
0.4369303,-0.010020233,0.09539751,-3.6367576,-13.666299,7.703051
0.42313078,-0.009703766,0.092384584,-3.5218983,-13.234677,7.4597664
0.40977898,-0.009397565,0.08946941,-3.4107656,-12.81706,7.2243757
0.39685935,-0.009101276,0.08664859,-3.3032298,-12.41296,6.996603
0.38435686,-0.008814553,0.08391885,-3.1991663,-12.021908,6.776185
0.37225717,-0.008537068,0.08127706,-3.0984554,-11.643454,6.562868
0.3605465,-0.0082685035,0.0787202,-3.0009825,-11.277167,6.35641
0.34921157,-0.008008557,0.07624538,-2.9066372,-10.922634,6.156576
0.33823973,-0.0077569373,0.07384983,-2.8153138,-10.579456,5.963143
0.32761866,-0.0075133615,0.07153087,-2.72691,-10.2472515,5.7758946
0.31733665,-0.007277562,0.069285944,-2.6413286,-9.925651,5.594623
0.30738235,-0.007049277,0.067112565,-2.5584745,-9.6143,5.41913
0.29774487,-0.0068282583,0.06500836,-2.4782577,-9.312859,5.2492213
0.2884137,-0.006614264,0.062971026,-2.4005904,-9.020999,5.0847135
0.27937874,-0.0064070635,0.060998373,-2.3253887,-8.738403,4.925428
0.27063024,-0.006206432,0.05908826,-2.252571,-8.464768,4.7711926
0.2621588,-0.0060121543,0.057238646,-2.1820598,-8.199799,4.621842
0.2539554,-0.005824023,0.055447545,-2.1137793,-7.9432125,4.4772162
0.24601124,-0.005641838,0.053713053,-2.0476568,-7.6947355,4.337161
0.23831794,-0.0054654055,0.05203333,-1.9836221,-7.454105,4.201529
0.23086736,-0.0052945395,0.0504066,-1.9216077,-7.2210655,4.0701756
0.22365163,-0.00512906,0.048831154,-1.8615482,-6.9953723,3.9429631
0.21666321,-0.004968792,0.047305327,-1.8033805,-6.776788,3.8197575
0.20989473,-0.004813569,0.04582753,-1.7470436,-6.565084,3.70043
0.20333917,-0.0046632285,0.044396214,-1.6924788,-6.360039,3.5848556
0.19698967,-0.004517614,0.043009892,-1.6396292,-6.1614394,3.4729145
0.19083965,-0.004376574,0.04166712,-1.58844,-5.969079,3.3644898
0.18488272,-0.004239962,0.040366508,-1.5388578,-5.782758,3.2594695
0.17911272,-0.0041076373,0.03910671,-1.4908317,-5.6022844,3.157745
0.1735237,-0.003979463,0.03788643,-1.4443119,-5.4274716,3.059211
0.16810991,-0.0038553071,0.036704406,-1.3992506,-5.2581387,2.963766
0.16286576,-0.0037350417,0.035559423,-1.3556013,-5.094113,2.8713121
0.15778589,-0.0036185437,0.034450304,-1.3133194,-4.9352245,2.7817545
0.15286508,-0.0035056935,0.033375915,-1.2723614,-4.7813115,2.695001
0.14809829,-0.0033963756,0.032335155,-1.2326853,-4.632216,2.6109629
0.14348066,-0.0032904784,0.03132696,-1.1942508,-4.487786,2.5295541
0.13900746,-0.0031878934,0.030350303,-1.1570185,-4.347873,2.4506922
0.13467416,-0.0030885164,0.029404186,-1.1209506,-4.212336,2.3742962
0.13047631,-0.0029922463,0.028487645,-1.0860101,-4.081036,2.3002884
0.12640966,-0.0028989848,0.027599752,-1.0521617,-3.9538393,2.2285936
0.12247008,-0.0028086375,0.0267396,-1.0193708,-3.8306172,2.1591392
0.118653566,-0.0027211122,0.025906317,-0.9876043,-3.7112443,2.0918543
0.114956245,-0.0026363207,0.025099061,-0.95682997,-3.5955997,2.0266707
0.11137438,-0.0025541768,0.024317011,-0.92701656,-3.483566,1.9635227
0.10790433,-0.0024745974,0.023559375,-0.8981339,-3.3750298,1.902346
0.1045426,-0.0023975018,0.022825388,-0.8701527,-3.2698817,1.8430789
0.10128578,-0.0023228123,0.022114309,-0.8430448,-3.1680148,1.7856613
0.098130584,-0.0022504535,0.021425417,-0.8167828,-3.0693266,1.7300354
0.09507382,-0.002180352,0.020758016,-0.79134005,-2.9737175,1.676145
0.092112415,-0.0021124373,0.020111436,-0.76669097,-2.8810906,1.6239356
0.089243375,-0.002046641,0.019485021,-0.7428107,-2.7913527,1.5733546
0.08646381,-0.0019828964,0.018878143,-0.71967524,-2.7044137,1.524351
0.083770916,-0.0019211397,0.018290188,-0.69726115,-2.6201854,1.4768755
0.08116198,-0.0018613084,0.017720565,-0.6755459,-2.5385833,1.4308803
0.07863439,-0.0018033424,0.0171687,-0.65450764,-2.459525,1.3863189
0.07618559,-0.0017471834,0.01663404,-0.63412523,-2.3829317,1.3431467
0.07381312,-0.0016927749,0.016116044,-0.6143781,-2.3087254,1.3013202
0.071514584,-0.0016400621,0.015614192,-0.5952465,-2.2368321,1.2607973
0.06928769,-0.0015889922,0.015127981,-0.57671106,-2.1671793,1.2215372
0.06713019,-0.0015395137,0.014656922,-0.55875325,-2.099697,1.1835006
0.06503992,-0.0014915769,0.014200541,-0.541355,-2.0343175,1.1466494
0.063014776,-0.0014451338,0.01375838,-0.5244989,-1.9709752,1.1109462
0.06105273,-0.0014001377,0.013329995,-0.508168,-1.9096062,1.0763555
0.05915181,-0.0013565434,0.012914956,-0.49234578,-1.8501493,1.0428424
0.057310108,-0.0013143072,0.012512847,-0.47701654,-1.7925446,1.0103732
0.05552578,-0.0012733868,0.012123263,-0.4621648,-1.7367344,0.9789157
0.053797033,-0.001233741,0.011745816,-0.4477757,-1.6826626,0.948438
0.05212213,-0.00119533,0.011380126,-0.43383476,-1.6302751,0.9189096
0.0504994,-0.0011581155,0.011025825,-0.42032808,-1.5795194,0.8903009
0.048927207,-0.00112206,0.01068256,-0.40724206,-1.5303444,0.8625833
0.04740398,-0.0010871275,0.010349984,-0.3945636,-1.482701,0.83572894
0.04592819,-0.0010532829,0.010027767,-0.38228,-1.4365413,0.8097109
0.044498365,-0.0010204923,0.009715585,-0.3703789,-1.3918191,0.78450316
0.043113064,-0.0009887228,0.009413124,-0.35884845,-1.3484898,0.7600804
0.0417709,-0.0009579427,0.0091200825,-0.34767708,-1.3065096,0.7364181
0.040470537,-0.00092812104,0.008836166,-0.33685356,-1.2658367,0.71349275
0.039210662,-0.00089922803,0.00856109,-0.32636708,-1.2264304,0.69128126
0.037990015,-0.00087123463,0.00829458,-0.31620714,-1.1882511,0.66976136
0.03680738,-0.00084411295,0.008036368,-0.30636355,-1.1512606,0.6489116
0.035661567,-0.00081783574,0.0077861953,-0.29682645,-1.1154219,0.6287109
0.034551427,-0.00079237664,0.007543813,-0.2875863,-1.080699,0.6091393
0.033475857,-0.00076771027,0.0073089767,-0.27863386,-1.0470573,0.59017706
0.03243377,-0.0007438119,0.0070814528,-0.26996014,-1.014463,0.5718052
0.03142413,-0.0007206576,0.006861012,-0.26155648,-0.9828835,0.5540053
0.030445928,-0.0006982242,0.006647435,-0.25341445,-0.9522872,0.5367596
0.029498177,-0.00067648914,0.0064405072,-0.24552593,-0.9226435,0.5200508
0.028579934,-0.00065543083,0.006240022,-0.237883,-0.8939227,0.50386226
0.027690277,-0.0006350281,0.0060457783,-0.230478,-0.866096,0.4881777
0.026828319,-0.0006152606,0.0058575817,-0.22330356,-0.8391357,0.47298142
0.025993194,-0.0005961085,0.005675244,-0.21635246,-0.8130147,0.45825824
0.025184069,-0.00057755265,0.005498583,-0.20961776,-0.7877069,0.44399342
0.024400132,-0.0005595744,0.0053274217,-0.20309272,-0.76318693,0.43017265
0.023640601,-0.0005421559,0.005161589,-0.19677083,-0.7394303,0.41678217
0.022904715,-0.0005252796,0.0050009186,-0.19064572,-0.7164133,0.40380856
0.022191737,-0.00050892873,0.00484525,-0.1847113,-0.6941128,0.3912388
0.021500954,-0.0004930868,0.0046944274,-0.17896163,-0.6725065,0.37906036
0.020831676,-0.0004777381,0.0045483,-0.17339094,-0.6515728,0.36726102
0.020183232,-0.00046286717,0.004406722,-0.16799366,-0.6312908,0.355829
0.019554975,-0.00044845918,0.0042695506,-0.16276442,-0.61164016,0.34475285
0.018946273,-0.0004344997,0.0041366494,-0.15769793,-0.59260124,0.3340215
0.018356523,-0.00042097477,0.004007885,-0.15278918,-0.574155,0.32362422
0.017785128,-0.00040787086,0.00388313,-0.14803323,-0.556283,0.3135506
0.017231522,-0.00039517487,0.0037622578,-0.14342533,-0.53896725,0.30379057
0.01669515,-0.00038287407,0.0036451484,-0.13896087,-0.52219063,0.29433432
