ax,ay,az,gx,gy,gz
-0.8790989,0.030000273,-2.2618387,44.77768,-4.660951,43.113117
-0.4692902,-0.086734265,-1.8087955,28.066706,-12.269675,38.827717
-0.08883011,-0.34955403,-1.708357,16.669062,-12.86085,38.883717
-0.056557097,-0.40572414,-1.864212,6.536949,-11.95363,38.55403
-0.19357613,-0.45964363,-2.0912716,4.0066833,-11.2209015,33.572395
-0.24709952,-0.4959449,-2.409629,5.0001717,-10.485149,28.258945
-0.16401805,-0.5747382,-2.758222,4.0338836,-9.206435,26.237936
-0.01887193,-0.670277,-3.1692467,1.7705337,-7.144458,26.768127
0.075775735,-0.75793755,-3.6597302,-0.43901977,-5.147284,28.43167
0.04421871,-0.80745304,-4.215054,-2.166335,-4.5794287,30.142618
-0.14561689,-0.8227079,-4.8524923,-3.324876,-5.820323,31.384521
-0.38782644,-0.85986507,-5.514968,-4.0322905,-8.715817,31.75683
-0.70081,-1.0222129,-6.235185,-2.926131,-13.414064,30.977386
-1.1227345,-1.3004174,-7.0197597,0.48729816,-20.645617,28.899261
-1.5859472,-1.6076285,-7.8306484,3.9090574,-34.3831,27.07199
-1.6709789,-1.8883604,-8.415032,6.023923,-51.25341,27.098349
-1.3313909,-2.0561292,-8.544165,7.4531784,-67.8445,28.999989
-0.6729825,-2.034161,-8.137586,9.948332,-81.64949,30.576824
0.13708979,-1.7837011,-7.2544107,13.252322,-91.40287,30.644268
1.0002102,-1.3940506,-6.03847,15.379993,-95.07495,30.180948
1.7129921,-0.8794289,-4.7068405,14.409219,-94.869316,30.572947
2.1997104,-0.37390286,-3.5571792,9.255623,-92.68906,32.115772
2.4921055,0.003072032,-2.6529512,1.2446208,-89.77118,34.22479
2.635347,0.17458417,-1.9853636,-7.1813164,-86.37449,36.099724
2.6807706,0.15091234,-1.5119423,-13.521627,-82.43219,37.203148
2.6551218,0.014957991,-1.1778177,-17.28616,-78.28712,37.728374
2.5928888,-0.09517648,-0.90694267,-18.742151,-73.890884,37.84615
2.5029979,-0.12108581,-0.68491185,-18.967566,-69.68343,37.698254
2.3853045,-0.07526212,-0.51098055,-18.489834,-66.10171,37.373238
2.2640388,-0.0040103444,-0.36824673,-17.843441,-63.14966,37.091644
2.1657183,0.06511158,-0.25608492,-17.291527,-60.52674,36.74609
2.0869555,0.10083206,-0.16253725,-16.59788,-58.02669,36.326256
2.0444155,0.10676184,-0.075590864,-15.425558,-55.16459,35.932564
2.0291102,0.10763812,0.01187051,-14.238128,-51.636818,35.663883
2.0305817,0.11145802,0.10562364,-13.206388,-46.668602,35.72711
1.9894537,0.12661089,0.15344784,-12.15567,-41.424904,35.82215
1.9162124,0.13502216,0.17767504,-10.837157,-36.48773,36.173252
1.8440775,0.13139631,0.19749407,-9.001986,-31.654781,36.397545
1.7759323,0.12654074,0.19019598,-8.669331,-30.485023,35.05253
1.710994,0.12191369,0.18324131,-8.35233,-29.370317,33.770805
1.6490463,0.117499724,0.17660694,-8.049929,-28.306946,32.54811
1.5898933,0.113284886,0.17027187,-7.7611694,-27.291546,31.380577
1.5333569,0.10925648,0.16421701,-7.485183,-26.32106,30.264687
1.4792747,0.10540296,0.158425,-7.221177,-25.392706,29.197237
1.4274987,0.10171376,0.15287998,-6.968429,-24.503937,28.175306
1.3778932,0.09817921,0.14756742,-6.726277,-23.652428,27.196218
1.330334,0.094790466,0.142474,-6.494113,-22.83604,26.257515
1.2847064,0.09153935,0.13758744,-6.271379,-22.052814,25.35694
1.240905,0.08841838,0.13289648,-6.0575604,-21.300938,24.492409
1.1988328,0.08542059,0.12839068,-5.8521814,-20.57874,23.662006
1.1583995,0.08253959,0.12406042,-5.6548033,-19.884674,22.86395
1.1195215,0.07976942,0.11989673,-5.4650183,-19.21731,22.096596
1.0821215,0.077104546,0.11589132,-5.2824473,-18.575314,21.358412
1.0461272,0.07453984,0.11203647,-5.106739,-17.957449,20.647972
1.0114714,0.07207051,0.10832496,-4.937565,-17.36256,19.963953
0.9780915,0.06969208,0.10475008,-4.774618,-16.789572,19.305115
0.9459286,0.06740037,0.10130555,-4.617613,-16.237474,18.6703
0.9149278,0.06519148,0.09798548,-4.4662805,-15.705326,18.05842
0.88503754,0.0630617,0.09478434,-4.3203692,-15.192241,17.46846
0.8562094,0.061007604,0.091696955,-4.1796427,-14.697387,16.899464
0.82839775,0.059025936,0.08871843,-4.0438786,-14.219982,16.35053
0.8015597,0.057113644,0.08584417,-3.9128666,-13.75929,15.820813
0.77565473,0.055267833,0.08306984,-3.7864099,-13.314614,15.309513
0.7506446,0.05348578,0.08039135,-3.6643214,-12.8853,14.815875
0.7264932,0.051764917,0.07780481,-3.5464244,-12.470724,14.339185
0.7031661,0.050102793,0.07530657,-3.4325519,-12.070301,13.878767
0.68063104,0.048497096,0.07289314,-3.3225455,-11.683472,13.43398
0.65885717,0.046945635,0.07056124,-3.2162547,-11.309709,13.004216
0.6378151,0.04544633,0.06830771,-3.1135366,-10.948508,12.588899
0.6174772,0.043997187,0.06612959,-3.0142558,-10.599395,12.187478
0.5978169,0.042596325,0.06402404,-2.9182825,-10.261912,11.799432
0.5788089,0.041241948,0.061988354,-2.8254938,-9.935629,11.424262
0.5604293,0.039932344,0.060019962,-2.7357726,-9.620131,11.061493
0.54265505,0.038665872,0.058116406,-2.6490064,-9.315024,10.710673
0.5254643,0.037440978,0.056275338,-2.5650885,-9.019934,10.37137
0.50883603,0.03625616,0.05449451,-2.4839165,-8.734499,10.043169
0.49275023,0.03511,0.05277178,-2.405393,-8.458376,9.725676
0.47718775,0.034001123,0.051105097,-2.3294237,-8.1912365,9.41851
0.46213025,0.03292823,0.04949249,-2.2559192,-7.932764,9.121312
0.44756004,0.031890057,0.047932073,-2.184794,-7.682657,8.833733
0.4334603,0.030885404,0.046422042,-2.1159651,-7.4406257,8.555438
0.41981483,0.029913122,0.04496066,-2.0493538,-7.2063923,8.28611
0.40660805,0.028972097,0.04354626,-1.984884,-6.9796896,8.025441
0.39382505,0.028061269,0.04217725,-1.922483,-6.760261,7.773136
0.38145146,0.027179614,0.04085208,-1.8620806,-6.5478606,7.528912
0.36947352,0.026326146,0.03956929,-1.8036094,-6.3422513,7.292497
0.35787794,0.025499925,0.03832744,-1.7470047,-6.1432056,7.0636287
0.3466519,0.024700036,0.037125178,-1.6922042,-5.950504,6.842055
0.3357832,0.023925606,0.035961173,-1.6391479,-5.7639356,6.627533
0.32525992,0.023175789,0.034834173,-1.5877779,-5.583297,6.41983
0.31507072,0.022449777,0.033742942,-1.5380385,-5.408392,6.2187195
0.30520454,0.02174678,0.03268631,-1.4898762,-5.239033,6.023986
0.29565084,0.021066051,0.031663146,-1.4432392,-5.075038,5.835419
0.2863994,0.020406855,0.030672349,-1.3980776,-4.9162307,5.6528187
0.27744037,0.019768495,0.029712867,-1.3543434,-4.762443,5.475989
0.2687642,0.019150293,0.02878368,-1.3119903,-4.613511,5.3047433
0.26036176,0.018551592,0.02788381,-1.2709732,-4.469278,5.1389
0.2522242,0.017971765,0.027012307,-1.2312491,-4.3295913,4.9782844
0.24434297,0.017410202,0.026168255,-1.1927763,-4.194305,4.822728
0.2367098,0.016866315,0.02535077,-1.1555145,-4.063277,4.672068
0.22931673,0.016339535,0.024558999,-1.1194247,-3.9363697,4.526147
0.22215605,0.015829315,0.023792114,-1.0844694,-3.813452,4.384813
0.21522032,0.015335123,0.023049325,-1.0506122,-3.6943958,4.247919
0.20850237,0.0148564475,0.022329856,-1.0178181,-3.5790777,4.115323
0.20199522,0.014392793,0.021632964,-0.98605305,-3.4673784,3.9868882
0.19569218,0.0139436815,0.02095793,-0.95528436,-3.3591828,3.8624816
0.18958676,0.0135086505,0.020304061,-0.92548025,-3.254379,3.7419753
0.18367265,0.013087252,0.019670682,-0.89661014,-3.1528597,3.6252456
0.1779438,0.0126790535,0.019057142,-0.8686444,-3.0545201,3.5121722
0.17239434,0.012283636,0.018462814,-0.8415543,-2.95926,3.4026394
0.16701856,0.011900596,0.01788709,-0.81531215,-2.8669815,3.296535
0.16181101,0.011529542,0.017329378,-0.7898911,-2.7775903,3.1937506
0.15676634,0.011170093,0.016789112,-0.7652652,-2.6909955,3.0941813
0.15187943,0.010821885,0.01626574,-0.7414095,-2.6071084,2.9977257
0.14714529,0.010484563,0.015758732,-0.71829945,-2.5258439,2.9042854
0.14255911,0.0101577835,0.015267569,-0.6959117,-2.447119,2.8137655
0.13811623,0.009841214,0.014791751,-0.6742235,-2.3708541,2.726074
0.13381213,0.009534534,0.014330799,-0.6532127,-2.2969716,2.6411216
0.12964246,0.009237432,0.013884242,-0.6328582,-2.2253966,2.5588226
0.12560299,0.008949607,0.013451629,-0.6131393,-2.1560564,2.4790936
0.121689625,0.008670768,0.013032522,-0.594036,-2.088881,2.4018533
0.11789842,0.008400632,0.012626497,-0.5755289,-2.0238025,2.3270242
0.11422552,0.008138927,0.012233144,-0.5575994,-1.9607549,2.2545304
0.110667236,0.007885387,0.011852063,-0.54022944,-1.8996745,2.1842985
0.10721996,0.0076397583,0.011482873,-0.5234013,-1.8404999,2.116258
0.10388022,0.0074017914,0.011125199,-0.50709814,-1.783171,2.0503395
0.10064465,0.0071712467,0.01077868,-0.49130347,-1.7276303,1.9864773
0.09750997,0.0069478913,0.010442968,-0.47600138,-1.6738217,1.9246067
0.09447306,0.0067315013,0.010117725,-0.46117646,-1.621691,1.8646653
0.09153082,0.006521858,0.009802623,-0.44681373,-1.5711856,1.8065928
0.08868031,0.0063187503,0.009497344,-0.43289882,-1.5222548,1.7503309
0.085918665,0.0061219744,0.009201581,-0.41941765,-1.4748493,1.6958227
0.083243094,0.005931332,0.008915037,-0.40635666,-1.4289215,1.6430136
0.08065092,0.005746631,0.008637424,-0.39370278,-1.384425,1.5918504
0.07813953,0.005567686,0.008368462,-0.38144326,-1.3413154,1.5422817
0.07570639,0.005394318,0.008107883,-0.36956576,-1.2995491,1.4942577
0.07334908,0.005226352,0.007855423,-0.3580584,-1.2590843,1.4477302
0.07106522,0.0050636195,0.0076108295,-0.34690955,-1.2198803,1.4026523
0.06885251,0.0049059573,0.0073738564,-0.33610806,-1.1818978,1.3589789
0.066708736,0.004753207,0.0071442663,-0.32564312,-1.1450986,1.3166661
0.06463175,0.004605215,0.0069218283,-0.31550416,-1.1094457,1.2756715
0.06261946,0.0044618333,0.0067063197,-0.30568105,-1.0749035,1.2359539
0.06066986,0.0043229177,0.006497524,-0.29616395,-1.0414373,1.1974735
0.058780983,0.0041883294,0.006295232,-0.28694326,-1.0090135,1.1601918
0.056950938,0.004057933,0.0060992413,-0.27800977,-0.9775996,1.1240712
0.055177893,0.003931598,0.0059093544,-0.26935452,-0.9471642,1.0890757
0.05346007,0.0038091973,0.0057253814,-0.26096886,-0.91767657,1.05517
0.05179574,0.003690609,0.005547138,-0.25284433,-0.88910735,1.0223203
0.050183244,0.0035757136,0.0053744456,-0.24497283,-0.8614278,0.9904936
0.048620965,0.0034643963,0.0052071307,-0.23734646,-0.8346103,0.9596581
0.047107335,0.0033565455,0.0050450265,-0.22995758,-0.80862784,0.92978275
0.04564084,0.003252053,0.00488797,-0.22279878,-0.78345454,0.9008378
0.04422001,0.0031508144,0.0047358046,-0.2158629,-0.75906503,0.8727941
0.042843424,0.0030527283,0.0045883767,-0.209143,-0.735435,0.8456236
0.0415097,0.002957696,0.00444554,-0.20263234,-0.71254075,0.81929916
0.0402175,0.002865623,0.00430715,-0.1963244,-0.6903594,0.7937944
0.03896554,0.002776417,0.0041730693,-0.19021286,-0.66886866,0.76908374
0.037752558,0.0026899881,0.0040431633,-0.1842916,-0.64804703,0.74514246
0.03657734,0.0026062503,0.003917302,-0.17855471,-0.6278737,0.7219466
0.035438716,0.0025251196,0.0037953593,-0.17299643,-0.60832846,0.69947296
0.034335542,0.002446515,0.003677213,-0.16761121,-0.5893917,0.67769897
0.033266712,0.0023703575,0.0035627454,-0.16239364,-0.57104456,0.6566029
0.032231156,0.002296571,0.0034518412,-0.15733853,-0.5532686,0.63616365
0.031227844,0.0022250817,0.0033443898,-0.15244079,-0.5360461,0.61636066
0.030255765,0.002155818,0.0032402838,-0.14769551,-0.51935977,0.5971742
0.02931395,0.002088711,0.0031394188,-0.14309798,-0.5031929,0.57858515
0.028401455,0.0020236927,0.003041694,-0.13864358,-0.4875293,0.5605747
0.027517367,0.0019606987,0.0029470113,-0.13432784,-0.47235337,0.54312503
0.026660802,0.0018996657,0.0028552762,-0.13014646,-0.4576499,0.52621853
0.025830902,0.0018405328,0.0027663969,-0.12609525,-0.4434041,0.50983834
0.025026837,0.0017832407,0.0026802844,-0.122170165,-0.42960185,0.49396813
0.024247805,0.0017277321,0.0025968528,-0.11836726,-0.41622922,0.47859192
0.023493024,0.0016739515,0.0025160185,-0.11468274,-0.4032729,0.4636944
0.022761738,0.0016218452,0.0024377003,-0.11111292,-0.39071992,0.44926062
0.022053218,0.0015713609,0.0023618203,-0.107654236,-0.3785577,0.43527615
0.021366753,0.001522448,0.0022883024,-0.10430321,-0.36677408,0.42172703
0.020701656,0.0014750579,0.002217073,-0.1010565,-0.3553573,0.40859967
0.020057265,0.001429143,0.002148061,-0.09791086,-0.3442959,0.395881
0.019432932,0.0013846573,0.0020811972,-0.09486314,-0.33357882,0.3835582
0.018828034,0.0013415565,0.002016415,-0.091910295,-0.32319537,0.37161902
