ax,ay,az,gx,gy,gz
-1.7009246,1.5227411,-1.557287,30.40664,46.77588,20.031092
-2.1011927,1.6314989,-1.8458892,32.233585,41.588642,15.721404
-2.4766493,1.7706223,-2.1105978,44.736687,31.541204,9.89136
-2.6481004,2.0529778,-2.0906222,53.522907,22.415216,2.628809
-2.685569,2.2832406,-2.0727417,55.70357,17.474585,-3.0922918
-2.780466,2.2388494,-2.2705448,58.21214,12.582772,-8.408607
-2.938256,2.0156455,-2.609587,61.594326,5.3944893,-13.794333
-3.0356147,1.7424929,-2.970802,65.65052,-3.5747082,-20.037739
-2.955836,1.443836,-3.2608814,69.591866,-14.735084,-27.20634
-2.5757737,1.0593932,-3.3464649,73.78141,-24.96675,-32.853603
-2.072668,0.6490386,-3.2494152,77.34048,-33.301105,-35.658707
-1.5321716,0.2571245,-3.0267596,80.26861,-38.59314,-34.88447
-1.0859516,-0.079584405,-2.7933342,83.38976,-41.79161,-31.950907
-0.7594628,-0.35528368,-2.597669,86.27986,-44.083992,-28.1318
-0.5498193,-0.6159869,-2.4363663,89.15956,-46.490524,-24.339378
-0.38626403,-0.86545306,-2.2800665,91.88391,-49.00287,-20.506191
-0.24032745,-1.0802665,-2.1186922,94.19129,-51.9256,-16.326769
-0.053584285,-1.2272388,-1.9048101,95.50489,-54.470226,-11.374491
0.167685,-1.3163232,-1.6529764,96.59057,-54.84798,-5.094898
0.4079183,-1.2759717,-1.3563063,97.10969,-53.572372,1.668904
0.6202292,-1.1282022,-1.0558581,96.24043,-51.287277,8.35514
0.78991216,-0.92912465,-0.76468575,94.17273,-48.19181,14.281686
0.9074213,-0.759367,-0.51040095,91.281494,-44.62709,19.104923
0.99030733,-0.6437381,-0.2966083,88.302,-40.393394,22.808573
1.059709,-0.52775675,-0.11884565,85.36733,-36.018307,25.91839
1.1267325,-0.38479477,0.04982609,82.14308,-31.544912,28.710827
1.1867657,-0.22356185,0.21157138,78.56261,-26.931076,31.386526
1.2337259,-0.035165202,0.36352864,74.418175,-22.235899,33.84863
1.2632365,0.16293584,0.48076886,70.411766,-17.406675,35.718563
1.2706966,0.35197124,0.560629,66.819305,-12.725693,36.85658
1.2723658,0.5415285,0.6204475,63.268383,-8.050583,37.461086
1.2677124,0.7369774,0.6614032,59.566555,-3.463881,37.630554
1.252596,0.92923754,0.670952,55.714622,0.9665221,37.321453
1.2162418,1.1004003,0.63415027,52.227715,4.9448757,36.44969
1.1469116,1.2635702,0.55154204,48.767784,8.308317,35.2617
1.0582294,1.4217651,0.44371942,45.377357,10.929147,33.754208
0.9562895,1.5835401,0.3203535,41.770416,12.900442,31.951208
0.8400907,1.733417,0.1756752,37.951218,14.23171,29.787725
0.71514744,1.8607066,0.0103939995,34.245953,14.772648,27.146482
0.5857724,1.9702682,-0.17946975,30.918142,14.714558,24.154142
0.45576617,2.0643933,-0.38068375,27.878384,13.987347,20.789148
0.33521196,2.1401746,-0.58691776,25.058977,12.592345,17.20376
0.2366679,2.1949308,-0.782678,22.368622,10.562325,13.407997
0.16571552,2.2231848,-0.95710164,19.786451,8.099484,9.8093195
0.1068189,2.2210784,-1.1115222,17.29514,5.575025,6.710186
0.02693517,2.2155504,-1.2622839,14.997367,2.7428029,3.846996
-0.070777275,2.2015178,-1.4091395,12.990285,-0.6867653,0.916522
-0.1597535,2.1719697,-1.544474,11.523186,-4.908563,-2.2926419
-0.21468796,2.1375694,-1.6437066,10.506007,-10.388909,-5.851971
-0.19750895,2.1085618,-1.6637541,9.502094,-15.992312,-9.022486
-0.15985213,2.0908697,-1.6371852,8.152325,-20.860735,-11.705138
-0.12058981,2.071274,-1.5945891,6.592295,-24.88638,-14.221092
-0.07132794,2.0441048,-1.5405167,5.222057,-28.57141,-16.861626
0.009843936,2.0251417,-1.4526527,3.3633025,-31.557589,-19.307476
0.14885272,2.0071816,-1.3156152,0.5384316,-33.66641,-21.187223
0.29680282,1.9703132,-1.1670226,-2.772612,-35.006714,-22.558655
0.43228853,1.9167031,-1.0154955,-6.205807,-35.635815,-23.599094
0.5381026,1.8487091,-0.87196696,-9.404936,-35.738102,-24.523941
0.6235301,1.7739382,-0.73841506,-12.571202,-35.30634,-25.367796
0.7048471,1.6826385,-0.6231915,-15.452,-34.71497,-26.14587
0.7965171,1.5752964,-0.5190146,-18.052792,-33.93429,-26.815237
0.90140355,1.4541848,-0.42143273,-20.426111,-32.838856,-27.265392
1.010529,1.3262957,-0.33173576,-22.69323,-31.315996,-27.421768
1.1083077,1.194183,-0.26103345,-24.78756,-29.280922,-27.183105
1.1685603,1.0550877,-0.22538325,-26.656836,-27.048641,-26.78768
1.1981789,0.90426844,-0.21262364,-28.09581,-24.749481,-26.368505
1.2064096,0.75199974,-0.2125716,-29.163174,-22.45406,-25.807074
1.1987506,0.60608983,-0.22461385,-30.010956,-20.247877,-24.999048
1.1821513,0.46706453,-0.24647118,-30.594385,-18.104164,-23.90242
1.1670321,0.32704717,-0.27356002,-31.103798,-15.8511915,-22.643959
1.1614273,0.19201319,-0.29426986,-31.903269,-13.261274,-20.933815
1.1620814,0.061746154,-0.31855315,-33.079887,-10.254672,-18.385784
1.1447728,-0.053862877,-0.36861196,-34.1207,-7.171095,-15.233931
1.1084658,-0.052154593,-0.3569213,-33.038548,-6.9436607,-14.75078
1.0733508,-0.050502386,-0.34561437,-31.99192,-6.7236924,-14.28349
1.0393847,-0.048904244,-0.33467746,-30.97954,-6.510922,-13.831491
1.0065267,-0.04735824,-0.32409734,-30.000187,-6.305093,-13.3942375
0.9747377,-0.04586253,-0.3138614,-29.052694,-6.10596,-12.97121
0.9439801,-0.04441535,-0.30395758,-28.135944,-5.913288,-12.561906
0.914218,-0.04301501,-0.29437432,-27.248865,-5.726852,-12.16585
0.88541687,-0.041659884,-0.28510046,-26.390429,-5.5464354,-11.782582
0.85754365,-0.040348414,-0.2761254,-25.559649,-5.371832,-11.411662
0.8305665,-0.03907911,-0.2674389,-24.755579,-5.2028418,-11.052668
0.80445504,-0.037850536,-0.25903112,-23.97731,-5.039274,-10.705193
0.77917993,-0.036661312,-0.25089264,-23.223967,-4.880945,-10.368847
0.75471294,-0.03551011,-0.24301435,-22.494713,-4.727679,-10.043255
0.73102695,-0.034395657,-0.23538756,-21.788736,-4.5793047,-9.728056
0.7080959,-0.033316728,-0.22800387,-21.10526,-4.43566,-9.422904
0.68589467,-0.032272134,-0.22085518,-20.443539,-4.296587,-9.127464
0.6643991,-0.031260744,-0.21393369,-19.802849,-4.1619344,-8.841414
0.64358586,-0.030281456,-0.20723192,-19.182497,-4.0315557,-8.564445
0.6234325,-0.029333219,-0.20074263,-18.581816,-3.9053113,-8.296256
0.6039175,-0.028415013,-0.19445887,-18.000156,-3.7830648,-8.036562
0.5850198,-0.027525855,-0.1883739,-17.4369,-3.664686,-7.7850833
0.5667194,-0.026664801,-0.18248124,-16.891443,-3.5500486,-7.541553
0.5489969,-0.025830936,-0.17677467,-16.363213,-3.439031,-7.3057127
0.53183347,-0.025023378,-0.17124812,-15.851645,-3.3315158,-7.0773125
0.51521116,-0.024241276,-0.1658958,-15.356205,-3.2273898,-6.8561125
0.49911234,-0.023483811,-0.16071206,-14.87637,-3.1265438,-6.6418796
0.4835203,-0.022750186,-0.15569147,-14.411638,-3.0288718,-6.43439
0.46841866,-0.022039637,-0.15082882,-13.961525,-2.934272,-6.233427
0.45379177,-0.021351425,-0.14611901,-13.52556,-2.8426461,-6.038781
0.43962437,-0.020684833,-0.14155717,-13.1032915,-2.7538984,-5.8502502
0.42590177,-0.02003917,-0.13713856,-12.694282,-2.6679375,-5.667639
0.41260985,-0.019413767,-0.13285862,-12.298106,-2.584674,-5.4907575
0.3997348,-0.018807983,-0.1287129,-11.914357,-2.504022,-5.3194246
0.38726342,-0.018221188,-0.12469717,-11.542639,-2.4258986,-5.153463
0.37518284,-0.017652784,-0.120807275,-11.1825695,-2.3502233,-4.992702
0.36348066,-0.017102184,-0.11703923,-10.833779,-2.2769186,-4.836977
0.35214493,-0.016568825,-0.11338917,-10.49591,-2.2059093,-4.6861277
0.34116402,-0.016052159,-0.109853365,-10.168616,-2.1371224,-4.5400004
0.33052668,-0.015551661,-0.10642819,-9.851563,-2.070488,-4.3984456
0.32022208,-0.015066818,-0.10311015,-9.544429,-2.0059378,-4.261318
0.31023973,-0.0145971365,-0.09989588,-9.246898,-1.9434062,-4.1284795
0.30056944,-0.014142138,-0.09678208,-8.958669,-1.8828295,-3.999793
0.29120138,-0.01370136,-0.09376561,-8.679447,-1.824146,-3.8751285
0.28212604,-0.013274355,-0.09084339,-8.408951,-1.7672962,-3.7543595
0.27333418,-0.012860688,-0.08801245,-8.146904,-1.7122222,-3.637363
0.2648169,-0.012459941,-0.08526992,-7.8930416,-1.6588683,-3.5240204
0.2565656,-0.012071707,-0.082613036,-7.6471057,-1.6071804,-3.4142172
0.2485719,-0.011695594,-0.0800391,-7.4088483,-1.5571061,-3.3078418
0.24082771,-0.01133122,-0.077545494,-7.178027,-1.5085949,-3.2047868
0.23332518,-0.010978218,-0.07512972,-6.9544096,-1.4615976,-3.1049478
0.22605677,-0.010636231,-0.07278932,-6.73777,-1.4160666,-3.0082242
0.21901512,-0.010304914,-0.07052194,-6.527889,-1.3719563,-2.9145184
0.21219313,-0.009983931,-0.06832529,-6.324555,-1.329222,-2.8237355
0.20558392,-0.00967296,-0.06619715,-6.127563,-1.2878205,-2.7357843
0.19918083,-0.009371687,-0.06413538,-5.9367146,-1.2477101,-2.6505756
0.19297738,-0.009079808,-0.062137898,-5.751817,-1.2088505,-2.5680242
0.18696737,-0.00879703,-0.0602027,-5.572685,-1.1712025,-2.4880466
0.18114473,-0.008523067,-0.05832783,-5.399137,-1.1347282,-2.4105625
0.17550358,-0.008257645,-0.05651141,-5.230999,-1.099391,-2.3354936
0.17003828,-0.008000497,-0.054751605,-5.068102,-1.0651551,-2.2627647
0.1647433,-0.0077513624,-0.053046647,-4.910282,-1.0319864,-2.1923025
0.15961336,-0.0075099925,-0.051394824,-4.7573805,-0.9998513,-2.1240363
0.15464327,-0.007276144,-0.049794476,-4.609244,-0.96871763,-2.0578973
0.14982806,-0.0070495824,-0.048244,-4.465723,-0.9385541,-1.9938195
0.14516287,-0.0068300804,-0.04674183,-4.3266745,-0.9093304,-1.9317381
0.14064305,-0.0066174166,-0.04528646,-4.191958,-0.88101727,-1.871591
0.13626401,-0.0064113787,-0.043876436,-4.061438,-0.8535862,-1.8133177
0.13202141,-0.0062117595,-0.042510334,-3.9349847,-0.8270096,-1.7568597
0.12791097,-0.0060183587,-0.04118679,-3.8124704,-0.801261,-1.7021605
0.12392858,-0.0058309822,-0.039904475,-3.6937723,-0.7763144,-1.6491652
0.12007022,-0.0056494423,-0.038662102,-3.5787716,-0.7521449,-1.5978205
0.11633205,-0.0054735565,-0.037458424,-3.4673526,-0.7287281,-1.5480752
0.11271029,-0.005303149,-0.036292236,-3.359404,-0.70604074,-1.4998791
0.10920134,-0.005138049,-0.035162367,-3.2548172,-0.6840599,-1.4531841
0.10580167,-0.00497809,-0.034067687,-3.153488,-0.66276366,-1.4079435
0.102507874,-0.0048231133,-0.0330071,-3.055314,-0.6421306,-1.3641117
0.09931665,-0.0046729627,-0.03197954,-2.9601977,-0.62214017,-1.3216448
0.0962248,-0.004527488,-0.030983977,-2.8680432,-0.6027722,-1.2805004
0.093229234,-0.004386543,-0.030019417,-2.7787583,-0.5840073,-1.2406372
0.09032694,-0.0042499867,-0.029084893,-2.6922536,-0.5658268,-1.2020153
0.08751503,-0.0041176826,-0.028179467,-2.6084425,-0.54821235,-1.1645961
0.08479067,-0.0039894986,-0.027302234,-2.5272412,-0.5311464,-1.1283419
0.08215113,-0.0038653053,-0.026452316,-2.4485683,-0.5146118,-1.0932167
0.079593785,-0.0037449792,-0.025628861,-2.3723447,-0.49859205,-1.059185
0.077116065,-0.0036283995,-0.024831045,-2.2984946,-0.48307106,-1.026213
0.07471548,-0.0035154496,-0.024058068,-2.2269437,-0.46803334,-0.99426764
0.07238965,-0.0034060162,-0.023309158,-2.1576207,-0.4534638,-0.9633168
0.07013622,-0.00329999,-0.022583565,-2.090456,-0.4393479,-0.93332964
0.06795295,-0.0031972646,-0.021880561,-2.0253823,-0.42567143,-0.904276
0.06583766,-0.0030977374,-0.021199446,-1.9623344,-0.41242078,-0.876127
0.06378822,-0.003001309,-0.020539535,-1.9012495,-0.39958265,-0.8488543
0.06180258,-0.0029078824,-0.01990017,-1.8420663,-0.38714424,-0.8224307
0.05987876,-0.0028173646,-0.019280707,-1.7847257,-0.375093,-0.7968297
0.058014832,-0.0027296648,-0.01868053,-1.7291701,-0.363417,-0.77202564
0.056208935,-0.0026446949,-0.018099038,-1.675344,-0.35210446,-0.7479939
0.05445925,-0.0025623704,-0.017535647,-1.6231936,-0.34114408,-0.72471017
0.05276404,-0.002482609,-0.016989797,-1.5726668,-0.33052492,-0.70215136
0.0511216,-0.0024053303,-0.016460938,-1.5237128,-0.32023636,-0.6802948
0.049530294,-0.0023304573,-0.015948543,-1.4762827,-0.31026807,-0.65911865
0.047988523,-0.0022579152,-0.0154521,-1.4303293,-0.3006101,-0.63860166
0.046494745,-0.0021876313,-0.014971111,-1.3858063,-0.29125276,-0.61872345
0.04504747,-0.0021195353,-0.014505094,-1.3426694,-0.28218675,-0.599464
0.043645248,-0.0020535593,-0.014053585,-1.3008752,-0.27340293,-0.5808041
0.042286675,-0.0019896368,-0.013616131,-1.260382,-0.26489255,-0.56272507
0.040970396,-0.0019277043,-0.013192294,-1.2211494,-0.25664708,-0.5452088
0.03969509,-0.0018676998,-0.012781651,-1.1831381,-0.24865831,-0.5282378
0.038459484,-0.001809563,-0.012383791,-1.1463101,-0.24091822,-0.51179516
