ax,ay,az,gx,gy,gz
-2.3791127,0.5745507,-3.2145746,-27.077518,26.74479,19.198357
-2.497223,0.28936106,-3.6550329,-18.858215,20.254457,13.279037
-2.6351426,0.3319023,-3.964615,-8.109001,12.920058,6.6799774
-2.731562,0.4883583,-4.170103,-2.149404,7.351405,1.1448823
-2.7882757,0.59503114,-4.2724853,4.2477913,1.8665613,-4.6085916
-2.7552977,0.6747921,-4.3225484,8.787048,-3.2503138,-7.8054276
-2.7205725,0.70351,-4.3721395,12.44614,-8.474943,-9.182827
-2.6883302,0.6788154,-4.42465,16.450584,-13.507609,-10.176488
-2.6416366,0.6003634,-4.4829254,21.291437,-17.986338,-11.461453
-2.579227,0.4821565,-4.553224,27.559896,-22.048391,-12.930177
-2.509156,0.3466129,-4.631554,34.593422,-26.225689,-14.439728
-2.415408,0.22896102,-4.66166,41.67759,-30.765299,-15.861709
-2.2689912,0.14807624,-4.595951,47.774998,-35.29099,-16.542425
-2.062391,0.10602964,-4.4377007,52.34912,-39.2077,-16.496449
-1.821859,0.06672111,-4.2447243,54.982574,-42.770184,-15.243914
-1.5696602,-0.013003501,-3.9972844,56.775753,-45.45388,-13.191065
-1.3384355,-0.08243439,-3.7321947,58.051662,-47.34099,-10.815589
-1.1141349,-0.1497449,-3.4419065,59.450832,-48.323563,-8.408109
-0.895157,-0.20691267,-3.1483061,60.70211,-48.799572,-5.959354
-0.6727841,-0.26024923,-2.8362763,61.514015,-48.61048,-3.1923904
-0.443294,-0.28022522,-2.4768825,61.67522,-47.782562,0.009584549
-0.22558154,-0.2589887,-2.1025221,61.13203,-46.49384,3.4837315
-0.022192247,-0.205135,-1.7231047,60.27473,-44.697765,7.0495296
0.15752107,-0.11700672,-1.3548211,59.01477,-42.644123,10.65952
0.31329185,-0.004661182,-1.0038159,56.886524,-40.316944,14.278471
0.4401452,0.09071558,-0.6860805,54.40768,-37.84505,17.85878
0.54140466,0.17627993,-0.4059181,51.790222,-35.23681,21.366629
0.6297866,0.2615872,-0.15181099,49.21593,-32.49656,24.50864
0.71557903,0.34243593,0.07870192,46.862576,-29.45437,27.324863
0.7934214,0.42775446,0.28298292,44.745674,-26.083548,29.726458
0.86956596,0.5190431,0.46110916,42.97089,-22.417393,31.839594
0.93700546,0.6157186,0.61136955,41.321766,-18.661692,33.732834
0.98911214,0.71442086,0.7314968,39.52149,-14.888356,35.41907
1.025005,0.8033791,0.8172997,37.543293,-11.206407,36.92628
1.0528497,0.88293767,0.87476414,35.528282,-7.4100976,38.2916
1.074117,0.968446,0.89699244,33.587337,-3.588529,39.356953
1.089771,1.0574251,0.8963498,31.719091,0.25692758,40.142258
1.0935915,1.1466525,0.87144727,29.94977,4.0040965,40.71093
1.078123,1.2395664,0.8217282,28.12128,7.5212574,40.988342
1.0434176,1.3366643,0.7577481,26.403376,10.667583,40.828648
0.99300426,1.4486969,0.6954835,24.760168,13.604927,40.499516
0.92768294,1.5798881,0.62967867,23.131975,16.22366,39.983814
0.8494268,1.7295994,0.56116617,21.432568,18.535564,39.158867
0.76208216,1.8820875,0.4826483,19.576584,20.596395,38.033886
0.66558176,2.0243983,0.383853,17.592535,22.283112,36.540295
0.5591573,2.1524377,0.25528345,15.581366,23.570349,34.767868
0.45115146,2.2634606,0.110375665,13.785867,24.412664,32.672478
0.34605768,2.353065,-0.044251874,12.226589,24.827198,30.312597
0.24731837,2.4314117,-0.20312311,10.769238,24.819351,27.766237
0.15213759,2.5060215,-0.36528426,9.361142,24.217907,24.970667
0.06403727,2.576612,-0.52773905,8.016127,23.275536,21.979336
-0.019532815,2.6364322,-0.6890793,6.718758,21.984295,18.816296
-0.09641832,2.6799138,-0.8497317,5.5176115,20.381243,15.585913
-0.16515839,2.7072918,-1.0124617,4.4732757,18.456755,12.306414
-0.2162691,2.718413,-1.1735793,3.6578295,16.07207,8.867816
-0.2536508,2.7019649,-1.3271817,3.1262157,13.4005375,5.4047556
-0.28825554,2.6736863,-1.4712703,3.0434742,10.406922,1.8732603
-0.3065672,2.6406288,-1.5897682,3.3957996,7.2374287,-1.6326575
-0.31108972,2.605162,-1.6783755,3.8710823,4.0219502,-4.9910297
-0.31483266,2.570336,-1.7434112,4.393091,0.6682557,-8.136617
-0.31425342,2.5414162,-1.783156,4.8709354,-2.8070645,-11.117788
-0.30468795,2.509005,-1.8050841,5.3083367,-6.4237294,-13.953066
-0.27351096,2.4693503,-1.7973251,5.726588,-9.975799,-16.551672
-0.22828856,2.426616,-1.7651352,6.1047897,-13.369732,-18.916868
-0.17937437,2.381166,-1.7140381,6.47982,-16.495955,-21.151764
-0.12291456,2.3371391,-1.6430116,6.8459654,-19.352798,-23.257454
-0.056706116,2.2938378,-1.5583082,7.2035904,-21.897482,-25.182114
0.010177198,2.2555182,-1.4606946,7.281661,-24.22342,-26.891409
0.07295997,2.2219994,-1.3519902,7.0510535,-26.297691,-28.484772
0.13456671,2.1851702,-1.2359542,6.5595794,-28.137129,-30.028711
0.19991572,2.1410348,-1.1088513,5.8668227,-29.773434,-31.391016
0.26643482,2.0953116,-0.97471035,4.979699,-31.044926,-32.537342
0.32802418,2.050973,-0.8430031,3.8137574,-32.051506,-33.54499
0.38425484,2.0021636,-0.7188372,2.519745,-32.871998,-34.581387
0.44240943,1.9355693,-0.6064769,1.5466374,-33.53409,-35.73845
0.5221416,1.8481164,-0.49051493,0.6806866,-34.120434,-36.876953
0.6193783,1.7470464,-0.36215034,-0.16858368,-34.37699,-37.81238
0.73113817,1.630504,-0.22785519,-1.042274,-34.303276,-38.441723
0.8560275,1.5000725,-0.08838784,-1.9415437,-33.73506,-38.617302
0.9783881,1.3499007,0.043255188,-2.6385236,-32.41358,-38.011696
1.0826527,1.1879754,0.1597789,-3.0361137,-30.488695,-36.54499
1.1552259,1.0737655,0.27028188,-3.1211386,-28.187742,-34.808506
1.2103971,0.9940883,0.37889946,-3.1650503,-25.657412,-33.423557
1.1723444,0.962836,0.36698756,-3.065547,-24.85079,-32.372784
1.1355106,0.9325847,0.35545722,-2.9692307,-24.070005,-31.355663
1.0998545,0.90330064,0.3442955,-2.875994,-23.314184,-30.371065
1.0653365,0.87495136,0.3334901,-2.7857335,-22.582489,-29.417896
1.0319188,0.8475057,0.3230291,-2.69835,-21.874115,-28.495108
0.9995646,0.82093346,0.31290102,-2.6137474,-21.188288,-27.60169
0.9682388,0.79520583,0.30309486,-2.531834,-20.524258,-26.736668
0.93790734,0.7702949,0.29360002,-2.4525208,-19.881306,-25.899103
0.9085376,0.7461738,0.2844062,-2.3757222,-19.258741,-25.088097
0.880098,0.72281665,0.27550352,-2.301356,-18.655891,-24.302774
0.85255814,0.7001984,0.26688254,-2.2293425,-18.072117,-23.542295
0.82588875,0.678295,0.258534,-2.1596048,-17.50679,-22.805855
0.8000614,0.6570833,0.2504491,-2.0920694,-16.959316,-22.092667
0.7750489,0.6365408,0.24261925,-2.0266647,-16.429113,-21.40198
0.7508249,0.6166458,0.23503622,-1.9633216,-15.915624,-20.733063
0.72736394,0.5973775,0.22769205,-1.9019737,-15.418309,-20.085218
0.7046414,0.5787157,0.22057906,-1.8425568,-14.936647,-19.457764
0.6826336,0.5606409,0.21368979,-1.7850089,-14.470137,-18.850046
0.6613175,0.5431342,0.20701708,-1.72927,-14.01829,-18.261433
0.6406712,0.5261775,0.200554,-1.6752821,-13.580638,-17.691309
0.62067306,0.5097532,0.19429383,-1.6229893,-13.156728,-17.139088
0.6013025,0.49384436,0.18823013,-1.5723375,-12.7461195,-16.604195
0.5825395,0.4784345,0.18235661,-1.5232744,-12.348392,-16.086079
0.5643648,0.46350774,0.17666724,-1.4757495,-11.963132,-15.584207
0.54675955,0.44904876,0.17115615,-1.429714,-11.589945,-15.098062
0.5297058,0.43504268,0.1658177,-1.3851204,-11.228448,-14.627145
0.5131861,0.42147514,0.16064641,-1.3419231,-10.878271,-14.170973
0.49718344,0.40833232,0.15563697,-1.300078,-10.539054,-13.72908
0.4816815,0.3956007,0.15078428,-1.2595422,-10.210451,-13.301014
0.46666446,0.38326734,0.1460834,-1.2202743,-9.892128,-12.886338
0.45211703,0.37131965,0.1415295,-1.1822344,-9.583758,-12.48463
0.43802434,0.3597455,0.13711797,-1.1453837,-9.285028,-12.095479
0.42437214,0.34853303,0.13284431,-1.1096847,-8.995636,-11.718491
0.4111465,0.33767095,0.1287042,-1.0751013,-8.715284,-11.353281
0.398334,0.32714817,0.124693416,-1.041598,-8.443692,-10.999481
0.3859217,0.31695402,0.120807886,-1.0091412,-8.180581,-10.65673
0.37389693,0.30707818,0.11704369,-0.9776978,-7.925686,-10.324682
0.36224756,0.29751068,0.11339701,-0.94723606,-7.6787486,-10.003
0.35096183,0.2882418,0.10986415,-0.91772515,-7.439519,-9.691359
0.3400283,0.2792622,0.10644155,-0.88913524,-7.2077556,-9.389443
0.3294359,0.2705628,0.10312574,-0.8614374,-6.9832234,-9.096949
0.31917402,0.2621348,0.09991338,-0.83460367,-6.7656965,-8.81358
0.30923223,0.25396967,0.09680123,-0.80860704,-6.5549555,-8.53905
0.29960054,0.24605924,0.09378615,-0.7834212,-6.350787,-8.273083
0.2902692,0.2383955,0.09086509,-0.75902086,-6.152986,-8.01541
0.28122884,0.23097074,0.08803512,-0.73538136,-5.9613533,-7.7657723
0.27247036,0.22377747,0.08529339,-0.71247894,-5.775695,-7.523918
0.26398492,0.21680845,0.08263713,-0.69029045,-5.5958247,-7.2896037
0.255764,0.21005669,0.08006368,-0.66879374,-5.4215617,-7.062594
0.24779934,0.20351538,0.07757044,-0.647967,-5.2527304,-6.8426595
0.2400829,0.19717795,0.07515491,-0.62778944,-5.0891614,-6.62958
0.23260695,0.19103801,0.07281466,-0.60824066,-4.93069,-6.4231415
0.22536397,0.18508941,0.070547335,-0.58930105,-4.7771564,-6.223136
0.21834667,0.17932618,0.06835066,-0.57095164,-4.6284075,-6.029362
0.21154803,0.1737425,0.06622243,-0.55317396,-4.484293,-5.8416266
0.20496121,0.16833282,0.06416051,-0.5359502,-4.344669,-5.65974
0.1985796,0.16309164,0.062162828,-0.519263,-4.2093945,-5.48352
0.19239679,0.15801376,0.060227375,-0.5030957,-4.0783343,-5.31279
0.18640658,0.15309407,0.05835222,-0.48743197,-3.9513566,-5.147378
0.18060297,0.1483276,0.05653547,-0.47225618,-3.8283346,-4.9871187
0.17498013,0.14370963,0.054775313,-0.45755312,-3.7091444,-4.831851
0.16953243,0.13923547,0.05306998,-0.443308,-3.5936666,-4.68142
0.1642544,0.13490067,0.051417757,-0.42950654,-3.4817853,-4.5356736
0.15914075,0.13070087,0.049816996,-0.41613492,-3.3733888,-4.394467
0.15418635,0.12663189,0.048266087,-0.40317973,-3.268368,-4.257658
0.14938626,0.1226896,0.046763476,-0.39062804,-3.1666176,-4.125109
0.14473563,0.11887009,0.04530766,-0.3784672,-3.068036,-3.9966884
0.14022985,0.11516952,0.043897174,-0.36668506,-2.9725244,-3.8722665
0.13586436,0.11158419,0.042530615,-0.35526982,-2.879987,-3.7517195
0.13163482,0.108110495,0.04120661,-0.34421003,-2.7903311,-3.6349258
0.12753697,0.10474497,0.039923828,-0.3334946,-2.703467,-3.521769
0.12356671,0.10148423,0.038680993,-0.32311285,-2.6193073,-3.4121356
0.11972008,0.09832503,0.037476853,-0.31305435,-2.5377684,-3.3059158
0.11599322,0.0952642,0.036310207,-0.30330905,-2.4587681,-3.2030034
0.1123824,0.09229866,0.035179883,-0.29386714,-2.3822277,-3.103295
0.10888399,0.08942545,0.034084756,-0.28471923,-2.3080704,-3.0066915
0.105494514,0.08664171,0.033023722,-0.27585614,-2.2362218,-2.9130952
0.10221057,0.083944626,0.03199572,-0.267269,-2.1666102,-2.8224132
0.099028856,0.081331514,0.03099973,-0.25894916,-2.099166,-2.7345545
0.09594621,0.07879976,0.030034743,-0.25088838,-2.0338213,-2.649431
0.09295952,0.07634683,0.029099802,-0.24307856,-1.9705111,-2.5669577
0.09006583,0.07397026,0.028193966,-0.23551187,-1.9091719,-2.487052
0.08726221,0.07166768,0.027316332,-0.22818075,-1.8497423,-2.4096339
0.08454589,0.06943678,0.02646602,-0.22107786,-1.7921629,-2.3346257
0.08191412,0.06727534,0.025642177,-0.21419609,-1.7363759,-2.261953
0.079364285,0.06518118,0.024843983,-0.20752856,-1.6823257,-2.1915426
0.07689383,0.06315222,0.02407064,-0.2010686,-1.6299582,-2.1233242
0.07450028,0.06118641,0.023321368,-0.19480973,-1.5792209,-2.0572293
0.07218124,0.059281807,0.022595422,-0.1887457,-1.530063,-1.993192
0.06993439,0.057436492,0.021892074,-0.18287046,-1.4824355,-1.9311482
0.06775749,0.05564862,0.021210624,-0.17717811,-1.4362905,-1.8710358
0.065648355,0.053916406,0.020550385,-0.17166297,-1.3915821,-1.8127948
0.06360488,0.052238118,0.0199107,-0.1663195,-1.3482654,-1.7563667
0.061625008,0.05061207,0.019290928,-0.16114238,-1.3062972,-1.7016953
0.059706774,0.04903664,0.018690448,-0.15612641,-1.2656354,-1.6487257
0.057848252,0.04751025,0.018108662,-0.15126659,-1.2262393,-1.597405
0.056047585,0.04603138,0.017544987,-0.14655805,-1.1880696,-1.5476819
