ax,ay,az,gx,gy,gz
-2.5754778,0.83546215,-4.1809473,-29.963,17.256521,51.76956
-2.693414,1.0053407,-4.338683,-34.676685,12.989511,51.443867
-2.7262433,0.93251824,-4.4241014,-27.139267,5.9908648,45.66732
-2.7007236,0.8880812,-4.484299,-16.909424,-0.7202587,38.92524
-2.7163656,0.8488009,-4.600257,-8.442861,-6.491068,33.43668
-2.741956,0.79306376,-4.747335,0.20661178,-12.356019,28.408321
-2.7208385,0.70584834,-4.900291,9.297965,-17.979755,23.700274
-2.6483498,0.5817097,-5.0367274,19.189743,-22.899471,19.149633
-2.5598319,0.44480836,-5.1579523,29.397423,-27.783846,15.205797
-2.4560428,0.31759155,-5.2340546,39.099228,-32.414692,12.264
-2.3318894,0.24823284,-5.2381535,47.31657,-36.832054,10.567883
-2.1713955,0.22107454,-5.1735253,53.62009,-41.514904,9.525956
-1.968142,0.17922169,-5.055318,58.00166,-46.372757,8.894408
-1.7334532,0.07200081,-4.8974156,61.189434,-51.25372,9.078982
-1.4509238,-0.06606663,-4.6368046,63.517178,-55.543797,10.378853
-1.1492826,-0.15450227,-4.294898,64.64548,-58.802044,12.616223
-0.82582504,-0.25422987,-3.9141142,65.2037,-60.577812,15.147584
-0.50079876,-0.39380345,-3.5190644,65.15816,-61.571922,18.123838
-0.18211308,-0.5190402,-3.0697944,63.855186,-62.256832,22.746788
0.14971003,-0.55150557,-2.5048025,61.831978,-61.728992,27.501131
0.4795503,-0.5368088,-1.9099679,59.447437,-60.11743,32.218723
0.7926528,-0.46151987,-1.3241333,56.657,-57.23208,36.853016
1.0653577,-0.3419293,-0.78910065,54.019196,-53.360394,40.96543
1.2839873,-0.20117195,-0.32475087,51.71652,-48.840824,44.695374
1.445801,-0.034754507,0.06884836,49.835766,-44.059692,47.858414
1.5742923,0.14309691,0.4068592,48.180878,-38.995464,50.51715
1.6725284,0.33855534,0.68459284,46.522625,-33.666885,52.82933
1.7319956,0.55884814,0.89977986,44.64473,-28.366472,54.71317
1.7594275,0.7859737,1.0571878,42.498737,-23.115541,55.93428
1.7536274,0.99674267,1.136988,40.092056,-17.990112,56.74974
1.721215,1.1861438,1.1582758,37.65814,-13.036304,57.11176
1.6665608,1.3526376,1.129823,35.353504,-8.311312,57.11494
1.5971825,1.5043705,1.0631557,33.13742,-3.8920975,56.881023
1.5171059,1.6509792,0.9643235,30.730156,0.09971737,56.426613
1.4198973,1.8053887,0.8352617,28.154873,3.696331,55.690662
1.3114098,1.958955,0.6874168,25.589201,6.8071723,54.597713
1.1942964,2.1080146,0.5267695,23.106987,9.442249,53.12829
1.071333,2.2481198,0.3556166,20.89538,11.632659,51.158764
0.9473785,2.3720946,0.1769604,18.925558,13.232722,48.68185
0.8284163,2.4886627,-0.007987691,17.019438,14.364662,45.977783
0.71250695,2.5986676,-0.2005298,15.165729,14.874341,43.020367
0.6023288,2.6951368,-0.3919187,13.428504,14.912209,39.828583
0.49819767,2.7730439,-0.5775799,11.891835,14.601158,36.465412
0.393367,2.8440063,-0.7553577,10.47785,13.761117,32.824184
0.2868113,2.921673,-0.9170145,9.070747,12.593727,29.015623
0.18124765,2.9890993,-1.069566,7.690803,11.16138,25.014637
0.079037346,3.0307913,-1.2199326,6.504738,9.495282,20.965927
-0.018849973,3.0469868,-1.3707768,5.618045,7.6749487,16.889082
-0.11234188,3.0431006,-1.5239023,5.1164465,5.473817,12.777706
-0.19743064,3.0203812,-1.6726108,4.924362,2.9601758,8.727244
-0.2629145,2.997771,-1.8034184,4.86327,0.13068648,4.842797
-0.3033929,2.98083,-1.9022102,4.6918607,-2.993502,1.2081299
-0.30939305,2.964366,-1.9572916,4.192562,-6.1763196,-1.9784173
-0.28908974,2.9558384,-1.9808319,3.3486354,-9.184687,-4.5457845
-0.26334658,2.955877,-1.9933597,2.560342,-11.94973,-7.207731
-0.22954172,2.93476,-2.0068455,2.1575818,-14.675423,-10.327625
-0.16503973,2.8895535,-2.0031676,1.9200464,-17.562662,-13.648852
-0.06272156,2.8224494,-1.9634086,1.7351077,-20.391594,-16.8741
0.0686008,2.7341616,-1.8856745,1.3414365,-22.798141,-19.630848
0.20883973,2.6266987,-1.7740581,0.8524068,-24.74941,-21.927822
0.33510357,2.5256886,-1.6513056,0.3944908,-26.306728,-23.870203
0.43540302,2.4407523,-1.5210576,-0.03748151,-27.592012,-25.62595
0.51828617,2.3715994,-1.3822168,-0.47615308,-28.653114,-27.285135
0.5936954,2.3145728,-1.2342749,-1.1397595,-29.526018,-28.942112
0.6626547,2.2481146,-1.0857173,-2.0417733,-30.368952,-30.524536
0.7284894,2.1573384,-0.95051503,-2.7856197,-31.273273,-31.933401
0.79439646,2.051409,-0.82374865,-3.3300955,-32.448112,-33.122307
0.8730811,1.9395561,-0.6807579,-3.9010959,-33.52079,-34.08749
0.95796746,1.8285568,-0.5291281,-4.5035872,-34.15197,-34.792168
1.0429151,1.7157869,-0.3715709,-5.146249,-34.363033,-35.284496
1.1314324,1.5959488,-0.2140732,-5.7150264,-34.08125,-35.634113
1.2237213,1.4581801,-0.064695075,-6.255233,-33.418747,-35.677128
1.3175004,1.2866699,0.06332823,-6.6574244,-32.475784,-35.05782
1.411711,1.0845264,0.1759075,-6.397884,-31.068323,-33.074852
1.4925016,0.8868961,0.2803878,-5.023494,-29.270086,-30.335226
1.5499212,0.7460163,0.38144928,-2.7727673,-27.242912,-27.664011
1.5009236,0.72243255,0.36939058,-2.6851122,-26.381685,-26.78947
1.4535202,0.6996161,0.35772416,-2.6003087,-25.548475,-25.943382
1.4076548,0.6775399,0.34643626,-2.5182567,-24.7423,-25.124746
1.3632737,0.6561782,0.3355137,-2.4388602,-23.962215,-24.332605
1.3203257,0.6355062,0.3249438,-2.3620274,-23.207321,-23.56604
1.2787614,0.6155003,0.31471446,-2.28767,-22.476746,-22.824173
1.2385334,0.5961375,0.304814,-2.215703,-21.769659,-22.106157
1.1995963,0.57739604,0.29523122,-2.1460454,-21.085262,-21.41118
1.1619061,0.5592549,0.28595537,-2.078619,-20.422785,-20.738464
1.1254212,0.5416937,0.27697608,-2.0133483,-19.78149,-20.087255
1.0901009,0.52469313,0.26828346,-1.9501612,-19.160666,-19.456835
1.0559063,0.50823444,0.25986785,-1.888988,-18.55963,-18.846508
1.0228,0.49229956,0.2517201,-1.8297619,-17.977722,-18.255606
0.990746,0.47687113,0.24383134,-1.772418,-17.414309,-17.683485
0.9597095,0.46193248,0.23619299,-1.7168946,-16.868782,-17.129526
0.92965704,0.44746748,0.22879681,-1.6631316,-16.340551,-16.59313
0.9005564,0.4334606,0.22163488,-1.6110712,-15.829049,-16.07372
0.8723763,0.41989684,0.21469952,-1.5606579,-15.33373,-15.570745
0.845087,0.40676177,0.20798336,-1.511838,-14.854065,-15.083667
0.8186593,0.39404145,0.20147927,-1.4645596,-14.389546,-14.611968
0.79306537,0.38172245,0.19518039,-1.4187727,-13.939683,-14.155151
0.76827824,0.36979178,0.18908006,-1.3744292,-13.504001,-13.712734
0.7442719,0.3582369,0.18317188,-1.3314825,-13.082042,-13.284253
0.7210212,0.34704575,0.17744967,-1.2898875,-12.673365,-12.869259
0.69850177,0.3362066,0.17190744,-1.2496009,-12.277541,-12.467318
0.6766902,0.32570815,0.16653945,-1.2105807,-11.894161,-12.0780115
0.65556395,0.3155395,0.16134007,-1.1727862,-11.522825,-11.700935
0.63510096,0.30569017,0.15630394,-1.1361786,-11.163148,-11.335698
0.6152801,0.2961499,0.15142587,-1.1007196,-10.814757,-10.981923
0.59608096,0.28690886,0.14670078,-1.0663729,-10.477295,-10.639244
0.5774837,0.27795756,0.14212385,-1.033103,-10.150413,-10.307309
0.5594693,0.26928675,0.13769034,-1.0008756,-9.833773,-9.985775
0.5420191,0.26088753,0.1333957,-0.9696577,-9.527052,-9.674314
0.5251154,0.25275132,0.12923554,-0.93941736,-9.229936,-9.372604
0.5087407,0.2448698,0.12520559,-0.9101235,-8.942119,-9.0803385
0.49287844,0.23723488,0.12130173,-0.88174635,-8.663308,-8.797218
0.47751233,0.22983877,0.11752,-0.85425675,-8.393218,-8.522953
0.46262673,0.22267395,0.11385652,-0.8276268,-8.131575,-8.257265
0.44820648,0.21573313,0.11030757,-0.80182934,-7.87811,-7.999883
0.4342369,0.20900922,0.10686953,-0.7768382,-7.6325674,-7.750545
0.42070383,0.20249541,0.10353892,-0.75262785,-7.3946967,-7.508998
0.4075935,0.19618507,0.10031236,-0.72917384,-7.164257,-7.2749963
0.39489263,0.19007182,0.097186565,-0.7064523,-6.9410143,-7.048303
0.38258836,0.18414946,0.094158374,-0.6844403,-6.7247424,-6.828688
0.3706682,0.17841199,0.091224715,-0.6631155,-6.5152225,-6.6159296
0.35912013,0.1728536,0.08838263,-0.6424563,-6.3122425,-6.4098115
0.34793243,0.1674687,0.08562925,-0.6224418,-6.115597,-6.2101264
0.33709386,0.1622518,0.08296177,-0.60305184,-5.925087,-6.016672
0.3265934,0.15719767,0.08037752,-0.58426684,-5.740521,-5.829253
0.3164205,0.1523012,0.07787388,-0.5660678,-5.5617127,-5.6476808
0.3065649,0.14755745,0.07544833,-0.5484364,-5.388481,-5.4717717
0.29701668,0.14296164,0.07309842,-0.53135484,-5.220652,-5.301348
0.28776616,0.13850914,0.07082179,-0.514806,-5.058056,-5.1362395
0.2788041,0.13419546,0.068616144,-0.49877304,-4.90053,-4.9762783
0.2701214,0.13001627,0.06647926,-0.48323995,-4.747915,-4.821304
0.2617094,0.12596735,0.06440899,-0.46819106,-4.600057,-4.6711607
0.25355956,0.12204464,0.062403247,-0.45361125,-4.456808,-4.5256977
0.24566376,0.118244186,0.06046002,-0.43948588,-4.3180237,-4.384768
0.23801403,0.114562176,0.05857735,-0.4258007,-4.183564,-4.2482305
0.23060267,0.110994905,0.056753352,-0.412542,-4.053295,-4.1159477
0.22342226,0.10753879,0.05498619,-0.39969644,-3.9270856,-3.9877872
0.21646558,0.104190364,0.05327409,-0.38725114,-3.8048081,-3.8636198
0.20972565,0.10094626,0.05161533,-0.37519357,-3.6863406,-3.743321
0.20319569,0.09780323,0.050008252,-0.36351165,-3.5715637,-3.62677
0.19686916,0.094758116,0.048451237,-0.35219365,-3.4603627,-3.51385
0.1907397,0.09180785,0.046942726,-0.34122822,-3.3526254,-3.4044476
0.18480119,0.088949494,0.045481205,-0.33060437,-3.2482443,-3.2984529
0.17904764,0.086180165,0.044065207,-0.32031143,-3.1471145,-3.19576
0.17347331,0.08349709,0.042693313,-0.3103391,-3.0491345,-3.0962656
0.16807258,0.08089759,0.04136415,-0.30067736,-2.9542062,-2.9998698
0.16284007,0.07837905,0.04007638,-0.2913165,-2.8622344,-2.9064763
0.1577705,0.07593894,0.038828716,-0.28224722,-2.7731268,-2.8159916
0.15285882,0.073574826,0.037619907,-0.27346033,-2.6867943,-2.7283247
0.1481001,0.07128433,0.036448743,-0.26494712,-2.6031504,-2.6433878
0.14348957,0.06906516,0.03531405,-0.256699,-2.5221112,-2.561096
0.1390226,0.066915095,0.03421469,-0.24870771,-2.4435956,-2.4813666
0.13469474,0.06483199,0.033149563,-0.24096526,-2.3675249,-2.40412
0.13050163,0.06281374,0.0321176,-0.23346391,-2.2938228,-2.3292787
0.12643908,0.060858335,0.031117775,-0.22619614,-2.2224154,-2.2567677
0.122503035,0.058963813,0.03014908,-0.21915466,-2.1532319,-2.1865146
0.118689544,0.057128284,0.029210545,-0.21233241,-2.0862021,-2.118449
0.11499479,0.0553499,0.028301232,-0.20572259,-2.0212595,-2.0525024
0.111415066,0.05362689,0.02742023,-0.19931856,-1.9583389,-1.9886092
0.1079468,0.051957525,0.026566658,-0.19311392,-1.8973771,-1.9267052
0.104586504,0.050340135,0.025739662,-0.18710245,-1.8383135,-1.8667287
0.10133084,0.0487731,0.024938414,-0.18127815,-1.7810887,-1.8086193
0.09817653,0.04725485,0.02416211,-0.17563517,-1.7256455,-1.7523191
0.09512042,0.045783866,0.023409976,-0.17016788,-1.6719284,-1.6977717
0.09215946,0.044358682,0.022681257,-0.1648708,-1.6198837,-1.6449225
0.08929068,0.042977862,0.021975223,-0.15973863,-1.5694592,-1.5937185
0.0865112,0.041640032,0.02129117,-0.15476622,-1.5206045,-1.5441087
0.08381826,0.04034385,0.020628413,-0.14994863,-1.4732708,-1.4960433
0.08120915,0.039088022,0.019986289,-0.145281,-1.4274105,-1.4494742
0.07868127,0.037871286,0.019364154,-0.14075868,-1.382978,-1.4043549
0.076232076,0.03669243,0.018761387,-0.13637714,-1.3399286,-1.3606402
0.07385913,0.03555027,0.018177385,-0.13213201,-1.2982194,-1.3182863
0.071560055,0.034443665,0.017611561,-0.12801902,-1.2578087,-1.2772509
0.06933255,0.03337151,0.017063353,-0.12403408,-1.218656,-1.2374929
0.06717439,0.032332733,0.016532209,-0.12017318,-1.1807219,-1.1989726
0.06508341,0.03132629,0.0160176,-0.11643247,-1.1439688,-1.1616514
0.06305752,0.030351179,0.015519012,-0.112808205,-1.1083598,-1.125492
0.06109469,0.029406423,0.015035943,-0.10929676,-1.0738593,-1.0904582
0.059192967,0.028491074,0.014567912,-0.10589463,-1.0404328,-1.056515
0.05735044,0.027604219,0.01411445,-0.1025984,-1.0080467,-1.0236284
