ax,ay,az,gx,gy,gz
-2.21002,0.843644,-2.1882017,51.54774,-37.675797,8.156438
-2.3334155,0.87240165,-2.5797615,64.67644,-45.4323,1.4204156
-2.449944,0.6725553,-2.8115485,83.28322,-53.354294,-14.759021
-2.380922,0.33580887,-2.9538922,98.20248,-57.62538,-27.283129
-2.2623553,0.07027021,-3.0819664,109.65571,-61.092003,-33.111774
-2.0605643,-0.1250526,-3.0305045,116.14445,-64.577385,-34.652027
-1.7576166,-0.2670587,-2.9079726,118.05308,-66.98143,-32.885914
-1.4507892,-0.4619588,-2.8251622,118.01336,-68.87264,-30.44839
-1.1155608,-0.7774287,-2.790517,119.16253,-69.99514,-28.624022
-0.7782102,-1.1242542,-2.7367785,121.88364,-70.754974,-26.895683
-0.4266361,-1.422898,-2.6234698,125.18599,-71.49931,-23.789179
-0.07533483,-1.6482835,-2.4617198,127.57304,-72.22788,-18.931677
0.26099008,-1.8498793,-2.3004475,129.47563,-72.57341,-11.836013
0.55325,-2.0062654,-2.11123,131.16495,-72.3899,-4.0010176
0.8297913,-2.0338883,-1.8662554,132.23499,-70.83208,4.8036947
1.0825486,-1.9192984,-1.5886755,132.1511,-68.294334,13.767474
1.3058122,-1.7081249,-1.3029604,130.93967,-65.29867,22.073872
1.5058323,-1.4181442,-0.99630713,128.03935,-61.629917,28.936113
1.6838062,-1.0403107,-0.6363535,123.825,-57.32713,34.207302
1.8496138,-0.6931911,-0.29520065,119.239426,-52.24957,38.17252
1.9945039,-0.39291033,-0.0026571648,114.83599,-46.421345,41.316414
2.1018472,-0.12197408,0.22867046,110.65039,-40.15445,43.891705
2.165003,0.11926352,0.40275884,106.4193,-33.96405,45.924267
2.191956,0.34247932,0.51721185,102.09513,-27.769014,47.704914
2.1957963,0.551179,0.5859072,97.73474,-21.831776,49.299595
2.1808069,0.7715378,0.6284158,93.26654,-16.128641,50.742546
2.133447,1.0298343,0.6591506,88.55308,-10.881555,51.862843
2.0675566,1.2887924,0.67247653,83.63336,-5.9338303,52.089195
1.9929459,1.4826319,0.6505365,79.01982,-1.1837173,51.693817
1.9201459,1.646864,0.6097446,74.65448,3.5029223,50.967533
1.8366474,1.8156769,0.5504076,70.43275,8.026635,50.100365
1.7257025,1.9945186,0.4664901,66.290405,11.974102,48.91365
1.5938064,2.1745508,0.36357737,62.26707,15.088066,47.092884
1.4534954,2.3648913,0.25629616,58.057785,17.665773,44.763428
1.3117666,2.552353,0.14024517,53.76227,19.781445,41.958385
1.1625232,2.7282548,0.0076479106,49.546883,21.345474,38.64877
1.0069022,2.8775299,-0.14646487,45.641426,22.267187,34.82539
0.84747905,2.992988,-0.31802008,41.987785,22.49339,30.645336
0.6844223,3.0843377,-0.50644547,38.519035,21.580992,26.1432
0.5091107,3.1621008,-0.7115264,35.146576,19.528667,21.230293
0.3593601,3.2219088,-0.9045921,32.044346,16.602972,15.980137
0.2711044,3.2651007,-1.053902,28.878464,13.145865,10.774167
0.22622408,3.293474,-1.1705775,25.661627,9.585576,6.078439
0.20745231,3.3018517,-1.2666692,22.487547,6.0485315,1.8728836
0.18395086,3.299162,-1.353483,19.53212,2.5042136,-2.0123556
0.15709089,3.298079,-1.4306805,16.77273,-1.2075351,-5.7962255
0.14241846,3.2945557,-1.5036927,14.253557,-5.2338724,-9.752645
0.1695337,3.2698421,-1.5596088,11.976951,-9.613746,-14.138699
0.27582178,3.1918054,-1.5668161,9.789389,-13.789157,-18.320078
0.4262622,3.090573,-1.5261707,7.68404,-17.460367,-22.08185
0.5960365,2.987146,-1.4422516,5.4404316,-20.488358,-25.200989
0.7563935,2.8790386,-1.3316905,3.1356628,-22.887743,-27.692112
0.8890736,2.7732701,-1.2122369,0.947037,-24.753443,-29.552286
0.98350394,2.6810236,-1.0886581,-1.315659,-26.169388,-31.437971
1.0772716,2.5893588,-0.9548006,-3.8359225,-27.239496,-33.593224
1.1957047,2.4653606,-0.807225,-6.4285474,-27.579329,-35.860477
1.3392172,2.3065553,-0.654639,-9.095235,-26.99758,-37.84836
1.47974,2.1251066,-0.52998286,-11.537559,-25.574726,-38.992317
1.5671068,1.9192197,-0.46265158,-13.629206,-24.254658,-39.538963
1.6373303,1.7206488,-0.40035114,-15.733989,-23.078922,-39.600983
1.7066368,1.5191076,-0.33433574,-17.764555,-21.772161,-39.23455
1.7707309,1.3161011,-0.26629,-19.720085,-20.064255,-38.3609
1.8234506,1.1164361,-0.20910977,-21.453758,-17.652372,-36.669437
1.8617095,0.91718704,-0.16657655,-23.46801,-14.713717,-34.091747
1.9035776,0.7152552,-0.12103138,-26.481388,-10.795864,-30.496956
1.9272555,0.5335738,-0.09701277,-30.240515,-6.110253,-26.256662
1.8654908,0.51647377,-0.093903705,-29.271366,-5.9144316,-25.41519
1.8058124,0.4999514,-0.090899654,-28.334953,-5.725224,-24.602139
1.7481399,0.48398438,-0.08799658,-27.430016,-5.542377,-23.816416
1.6923971,0.46855164,-0.08519064,-26.555357,-5.365648,-23.056984
1.6385115,0.45363304,-0.08247819,-25.70984,-5.1948066,-22.322855
1.5864141,0.43920952,-0.07985575,-24.892382,-5.029635,-21.613087
1.5360388,0.42526275,-0.07731999,-24.101944,-4.8699226,-20.92678
1.4873227,0.41177538,-0.074867755,-23.33754,-4.7154713,-20.263079
1.4402058,0.39873075,-0.07249602,-22.59823,-4.5660896,-19.621164
1.3946307,0.38611296,-0.07020189,-21.883112,-4.421596,-19.000256
1.3505423,0.37390682,-0.06798261,-21.191324,-4.281817,-18.399603
1.3078883,0.36209777,-0.06583552,-20.522041,-4.1465845,-17.81849
1.2666183,0.35067186,-0.0637581,-19.874474,-4.0157404,-17.256231
1.2266839,0.33961576,-0.061747912,-19.247864,-3.8891308,-16.712172
1.188039,0.32891664,-0.059802633,-18.641487,-3.7666092,-16.185678
1.150639,0.31856224,-0.057920024,-18.054647,-3.648035,-15.676147
1.1144416,0.30854073,-0.056097943,-17.486673,-3.533273,-15.182999
1.0794057,0.2988408,-0.054334328,-16.936926,-3.4221935,-14.705673
1.0454918,0.2894515,-0.0526272,-16.404785,-3.3146718,-14.243636
1.0126624,0.28036246,-0.050974656,-15.889658,-3.210588,-13.796372
0.9808809,0.27156353,-0.04937486,-15.390976,-3.1098266,-13.363385
0.95011234,0.26304504,-0.047826055,-14.908188,-3.0122766,-12.9442
0.9203231,0.2547977,-0.046326548,-14.440765,-2.9178314,-12.538355
0.8914807,0.24681246,-0.044874698,-13.988199,-2.8263881,-12.14541
0.86355376,0.23908073,-0.043468937,-13.549999,-2.7378476,-11.764937
0.8365124,0.23159413,-0.042107746,-13.125693,-2.6521144,-11.396529
0.81032735,0.22434463,-0.040789664,-12.714825,-2.5690963,-11.039787
0.78497076,0.21732448,-0.03951328,-12.316955,-2.4887047,-10.694333
0.76041555,0.21052621,-0.03827724,-11.931661,-2.4108539,-10.359797
0.73663574,0.2039426,-0.03708023,-11.558532,-2.3354614,-10.035824
0.7136061,0.1975667,-0.03592098,-11.197175,-2.2624474,-9.722072
0.6913025,0.1913918,-0.034798276,-10.847209,-2.1917348,-9.41821
0.6697014,0.18541138,-0.033710938,-10.508266,-2.1232498,-9.1239195
0.6487802,0.17961921,-0.03265782,-10.179993,-2.0569203,-8.838892
0.6285171,0.17400922,-0.031637833,-9.862044,-1.9926773,-8.56283
0.6088909,0.16857558,-0.030649904,-9.554091,-1.9304537,-8.295445
0.5898813,0.16331264,-0.029693011,-9.255812,-1.8701848,-8.036462
0.5714686,0.15821496,-0.028766165,-8.966898,-1.8118082,-7.785609
0.55363363,0.15327723,-0.027868403,-8.687051,-1.7552636,-7.5426283
0.5363581,0.14849438,-0.0269988,-8.41598,-1.7004925,-7.3072686
0.5196242,0.14386147,-0.026156459,-8.153409,-1.6474386,-7.079288
0.50341463,0.13937376,-0.025340516,-7.899066,-1.5960472,-6.8584514
0.48771286,0.13502662,-0.024550132,-7.6526895,-1.5462656,-6.6445327
0.47250274,0.1308156,-0.023784496,-7.4140277,-1.4980428,-6.437312
0.4577687,0.12673637,-0.023042824,-7.1828365,-1.4513294,-6.2365775
0.4434957,0.12278479,-0.02232436,-6.958879,-1.4060776,-6.0421243
0.42966917,0.11895682,-0.02162837,-6.741927,-1.3622414,-5.853753
0.41627496,0.11524855,-0.020954143,-6.5317597,-1.3197759,-5.6712728
0.40329954,0.11165621,-0.020300996,-6.328162,-1.278638,-5.494497
0.3907296,0.10817614,-0.019668259,-6.1309276,-1.2387857,-5.323246
0.37855244,0.104804814,-0.019055294,-5.939856,-1.2001787,-5.1573462
0.36675566,0.1015388,-0.018461477,-5.7547536,-1.1627778,-4.9966288
0.35532734,0.098374784,-0.017886207,-5.575432,-1.126545,-4.8409305
0.34425586,0.09530957,-0.017328897,-5.4017096,-1.0914434,-4.690094
0.33353,0.092340045,-0.01678899,-5.2334104,-1.0574378,-4.543967
0.32313898,0.08946322,-0.016265932,-5.070365,-1.0244936,-4.4024005
0.3130722,0.086676165,-0.015759198,-4.9124074,-0.99257743,-4.2652526
0.30331954,0.083976075,-0.015268277,-4.759379,-0.9616572,-4.132384
0.2938712,0.08136023,-0.014792671,-4.611125,-0.93170166,-4.00366
0.28471753,0.07882598,-0.014331902,-4.4674954,-0.9026806,-3.8789523
0.2758494,0.076370776,-0.013885504,-4.3283453,-0.87456465,-3.758134
0.2672578,0.07399214,-0.013453027,-4.1935353,-0.8473255,-3.6410835
0.25893414,0.071687676,-0.013034036,-4.0629287,-0.8209358,-3.527683
0.25087,0.06945506,-0.012628109,-3.9363942,-0.7953689,-3.417818
0.24305725,0.06729205,-0.012234837,-3.8138049,-0.77059907,-3.3113782
0.23548806,0.06519646,-0.011853824,-3.6950366,-0.74660134,-3.2082567
0.2281548,0.0631662,-0.011484688,-3.5799706,-0.72335166,-3.1083493
0.22105008,0.061199214,-0.011127057,-3.4684908,-0.7008266,-3.0115557
0.21416679,0.05929353,-0.010780571,-3.3604853,-0.67900354,-2.9177787
0.207498,0.057447232,-0.010444882,-3.2558455,-0.6578605,-2.826924
0.20103702,0.055658463,-0.010119653,-3.1544664,-0.6373763,-2.7389007
0.19477734,0.05392543,-0.009804559,-3.056246,-0.6175304,-2.6536195
0.1887127,0.05224639,-0.009499282,-2.961086,-0.5983028,-2.5709958
0.182837,0.05061966,-0.009203514,-2.8688905,-0.5796742,-2.490946
0.17714433,0.04904361,-0.008916962,-2.779567,-0.56162596,-2.41339
0.17162901,0.04751666,-0.008639335,-2.6930263,-0.5441399,-2.33825
0.16628549,0.046037268,-0.008370357,-2.6091812,-0.5271986,-2.2654505
0.1611084,0.044603955,-0.008109757,-2.5279477,-0.5107849,-2.1949186
0.15609257,0.04321529,-0.007857273,-2.4492445,-0.49488255,-2.1265836
0.15123297,0.04186987,-0.007612654,-2.3729925,-0.47947544,-2.0603771
0.14652471,0.04056636,-0.007375653,-2.2991152,-0.46454817,-1.9962324
0.14196308,0.03930344,-0.007146033,-2.2275388,-0.4500858,-1.9340854
0.13754351,0.038079854,-0.0069235642,-2.1581914,-0.43607378,-1.8738737
0.13326158,0.03689437,-0.006708023,-2.091004,-0.42249817,-1.8155372
0.12911297,0.035745803,-0.0064991945,-2.0259082,-0.4093453,-1.7590173
0.12509358,0.034633003,-0.0062968684,-1.96284,-0.39660197,-1.7042576
0.121199325,0.033554856,-0.0061008427,-1.9017354,-0.3842555,-1.6512029
0.117426336,0.03251028,-0.005910921,-1.8425336,-0.37229347,-1.5998002
0.113770835,0.031498227,-0.0057269125,-1.7851751,-0.3607039,-1.549998
0.11022915,0.030517688,-0.0055486336,-1.7296026,-0.34947518,-1.5017467
0.10679774,0.029567678,-0.005375906,-1.6757604,-0.33859608,-1.4549977
0.103473164,0.028647248,-0.005208556,-1.6235946,-0.32805574,-1.4097041
0.10025211,0.027755477,-0.005046417,-1.5730531,-0.31784353,-1.3658208
0.097131334,0.026891468,-0.0048893257,-1.5240852,-0.3079493,-1.3233038
0.09410772,0.02605436,-0.0047371252,-1.4766417,-0.29836312,-1.2821106
0.091178246,0.025243316,-0.0045896634,-1.4306754,-0.28907537,-1.2421998
0.08833997,0.02445752,-0.0044467924,-1.3861401,-0.2800768,-1.2035316
0.085590065,0.02369619,-0.00430837,-1.3429914,-0.27135837,-1.1660672
0.08292577,0.022958562,-0.004174256,-1.301186,-0.26291138,-1.1297692
0.080344416,0.022243896,-0.004044318,-1.2606821,-0.25472736,-1.0946012
0.07784343,0.02155148,-0.003918425,-1.2214391,-0.24679811,-1.060528
0.0754203,0.02088062,-0.0037964515,-1.1834178,-0.23911572,-1.0275156
0.0730726,0.020230645,-0.0036782748,-1.1465802,-0.23167248,-0.995531
0.070797995,0.019600904,-0.0035637773,-1.1108894,-0.22446096,-0.96454203
0.068594195,0.018990768,-0.003452844,-1.0763097,-0.21747394,-0.9345178
0.066459,0.018399624,-0.0033453642,-1.0428064,-0.21070443,-0.9054282
0.06439027,0.017826883,-0.0032412303,-1.010346,-0.20414566,-0.8772442
0.062385947,0.017271973,-0.003140338,-0.9788962,-0.19779105,-0.8499375
0.060444016,0.016734336,-0.0030425864,-0.9484254,-0.19163427,-0.8234809
0.058562536,0.016213436,-0.0029478779,-0.9189032,-0.18566915,-0.79784787
0.056739625,0.01570875,-0.0028561174,-0.8902999,-0.17988971,-0.7730128
0.054973457,0.015219775,-0.0027672136,-0.8625871,-0.1742902,-0.7489508
0.053262275,0.0147460215,-0.0026810772,-0.83573693,-0.16886498,-0.72563785
0.051604353,0.014287015,-0.002597622,-0.80972254,-0.16360864,-0.7030506
