ax,ay,az,gx,gy,gz
-2.8363893,1.265466,-5.855508,-50.105003,-46.109512,-6.935518
-2.6794462,1.1046746,-5.7671194,-54.062534,-63.486973,-13.257034
-2.0378177,0.77385783,-5.128182,-50.29974,-62.694576,-11.773692
-1.4581578,0.4191664,-4.862521,-42.24441,-54.83244,-6.455811
-1.2450342,0.22794224,-4.977646,-38.38913,-48.878784,-0.84658337
-1.4649646,0.19568127,-5.489896,-31.76339,-49.375458,0.58632475
-1.7340105,0.17388949,-5.9930243,-25.38314,-54.01888,-1.5706159
-1.8853106,0.16950509,-6.368636,-19.585537,-60.32329,-4.7711177
-1.8670628,0.15472059,-6.618261,-13.753641,-66.51035,-7.1784663
-1.7568325,0.13651422,-6.8209567,-11.475852,-73.718475,-7.9767785
-1.6987376,0.034516376,-6.958262,-10.137832,-81.10919,-7.7052746
-1.7086679,-0.09458555,-7.072823,-8.817463,-88.82902,-7.2202086
-1.7212806,-0.20821458,-7.1138024,-6.5106373,-96.04431,-6.714823
-1.7091727,-0.21773274,-7.0719266,-3.6346178,-102.6902,-6.572723
-1.6711973,-0.14818774,-6.9305415,-1.5783389,-109.255424,-7.6657586
-1.5753852,-0.13539752,-6.6279225,0.05842783,-115.1473,-8.737225
-1.4216839,-0.13893281,-6.2454205,1.5060902,-120.39568,-9.322606
-1.2088944,-0.1043585,-5.790477,2.2330196,-124.67754,-9.345803
-0.9441035,-0.012393461,-5.2732267,2.4720268,-128.05342,-9.040477
-0.6285147,0.09401293,-4.7361593,1.4352373,-130.54231,-9.060477
-0.2082803,0.084071286,-4.1453357,-0.31782213,-131.6646,-9.436166
0.2711351,0.0362728,-3.5150084,-1.6664641,-131.03685,-8.699411
0.7724451,0.04334254,-2.8908112,-2.9196072,-128.57187,-7.066532
1.2362322,0.092991784,-2.3179805,-4.011887,-124.62268,-6.0319533
1.6202607,0.117820896,-1.816811,-4.576604,-119.57659,-6.301423
1.9145021,0.06401806,-1.3862386,-4.4189267,-114.03559,-6.7485986
2.1469548,-0.013834658,-1.0084052,-3.4696681,-108.28528,-6.1369233
2.3504212,-0.066908166,-0.6599807,-1.9822441,-102.54831,-4.258179
2.249203,-0.06402684,-0.6315594,-1.896881,-98.13218,-4.0748057
2.154277,-0.06132464,-0.6049049,-1.8168246,-93.990585,-3.9028316
2.0650578,-0.058784883,-0.5798528,-1.741581,-90.09798,-3.7411962
1.9810325,-0.056392983,-0.5562591,-1.6707176,-86.43197,-3.5889702
1.9017503,-0.054136097,-0.53399724,-1.6038544,-82.9729,-3.4453373
1.8268132,-0.052002903,-0.5129555,-1.5406556,-79.703415,-3.3095763
1.7558686,-0.04998336,-0.49303478,-1.480824,-76.60812,-3.1810484
1.6886028,-0.048068542,-0.47414705,-1.4240949,-73.67333,-3.0591853
1.6247358,-0.046250477,-0.45621368,-1.3702323,-70.88683,-2.9434795
1.564017,-0.04452203,-0.43916428,-1.3190247,-68.237686,-2.8334773
1.506221,-0.04287678,-0.4229356,-1.270282,-65.71606,-2.7287703
1.4511449,-0.041308958,-0.40747064,-1.2238332,-63.313103,-2.628991
1.3986053,-0.03981334,-0.39271793,-1.1795236,-61.020813,-2.5338066
1.3484359,-0.038385194,-0.37863073,-1.1372129,-58.831932,-2.4429162
1.3004856,-0.03702022,-0.36516663,-1.0967736,-56.739872,-2.3560462
1.254617,-0.035714503,-0.35228705,-1.05809,-54.738632,-2.2729475
1.2107042,-0.03446446,-0.33995667,-1.0210558,-52.82273,-2.1933923
1.1686324,-0.033266824,-0.3281432,-0.98557425,-50.987144,-2.117172
1.1282959,-0.03211859,-0.31681705,-0.9515562,-49.227276,-2.0440958
1.0895977,-0.03101699,-0.3059509,-0.91891986,-47.538887,-1.9739878
1.0524486,-0.029959485,-0.29551968,-0.8875899,-45.918076,-1.9066858
1.0167658,-0.028943723,-0.28550023,-0.85749656,-44.361248,-1.8420405
0.9824731,-0.02796753,-0.2758711,-0.82857555,-42.865063,-1.7799135
0.94949955,-0.027028888,-0.26661235,-0.80076706,-41.426434,-1.7201765
0.91777945,-0.02612593,-0.2577056,-0.7740157,-40.042496,-1.6627103
0.8872516,-0.025256911,-0.24913362,-0.74826986,-38.71057,-1.607404
0.8578591,-0.02442021,-0.2408804,-0.7234814,-37.428185,-1.5541545
0.82954854,-0.023614308,-0.23293102,-0.6996055,-36.193,-1.5028653
0.80227023,-0.022837792,-0.22527148,-0.67660016,-35.002853,-1.453446
0.77597755,-0.022089332,-0.21788868,-0.65442604,-33.855713,-1.4058125
0.75062674,-0.021367684,-0.21077037,-0.63304627,-32.74966,-1.3598853
0.7261767,-0.020671679,-0.20390499,-0.61242616,-31.682913,-1.31559
0.7025888,-0.020000216,-0.19728169,-0.5925332,-30.65378,-1.2728566
0.6798267,-0.019352257,-0.19089024,-0.57333654,-29.660673,-1.2316192
0.6578559,-0.018726828,-0.18472102,-0.55480736,-28.702093,-1.1918155
0.63664407,-0.018123003,-0.1787649,-0.5369182,-27.776627,-1.1533867
0.6161605,-0.017539907,-0.17301326,-0.51964325,-26.882933,-1.1162773
0.5963762,-0.016976718,-0.16745797,-0.502958,-26.019747,-1.0804347
0.5772635,-0.016432647,-0.16209127,-0.48683918,-25.185865,-1.0458089
0.55879635,-0.015906954,-0.15690584,-0.4712648,-24.38015,-1.0123527
0.54095,-0.015398932,-0.15189472,-0.45621398,-23.601519,-0.980021
0.52370083,-0.014907908,-0.14705127,-0.44166672,-22.84894,-0.9487712
0.5070263,-0.014433243,-0.1423692,-0.42760417,-22.121433,-0.91856253
0.49090508,-0.013974329,-0.13784248,-0.41400823,-21.41807,-0.8893563
0.47531676,-0.013530585,-0.1334654,-0.4008617,-20.737955,-0.86111546
0.4602419,-0.013101458,-0.12923248,-0.38814822,-20.080242,-0.83380485
0.4456619,-0.0126864165,-0.12513854,-0.37585208,-19.44412,-0.80739075
0.431559,-0.012284956,-0.12117854,-0.36395827,-18.828814,-0.781841
0.41791615,-0.0118965935,-0.11734773,-0.35245252,-18.233582,-0.7571247
0.40471718,-0.011520864,-0.11364155,-0.34132105,-17.657711,-0.73321253
0.39194643,-0.011157326,-0.110055625,-0.33055076,-17.100527,-0.7100762
0.379589,-0.010805555,-0.106585756,-0.32012904,-16.561377,-0.6876887
0.3676306,-0.010465141,-0.10322792,-0.3100438,-16.039633,-0.666024
0.35605747,-0.010135694,-0.09997827,-0.30028352,-15.5347,-0.6450574
0.34485638,-0.00981684,-0.096833095,-0.29083705,-15.0460005,-0.6247648
0.33401474,-0.009508217,-0.09378885,-0.28169367,-14.572983,-0.60512334
0.32352036,-0.009209479,-0.0908421,-0.27284315,-14.115114,-0.586111
0.3133615,-0.008920292,-0.08798957,-0.2642756,-13.671886,-0.5677065
0.30352694,-0.008640337,-0.08522809,-0.25598156,-13.242806,-0.54988956
0.2940058,-0.008369304,-0.08255464,-0.24795187,-12.827403,-0.5326405
0.28478774,-0.0081068985,-0.07996627,-0.24017772,-12.42522,-0.5159404
0.27586263,-0.007852833,-0.07746016,-0.23265068,-12.03582,-0.49977112
0.26722085,-0.0076068314,-0.07503362,-0.22536258,-11.658781,-0.4841151
0.25885308,-0.0073686303,-0.072684005,-0.21830554,-11.293696,-0.46895546
0.2507503,-0.007137973,-0.070408806,-0.21147202,-10.940175,-0.4542759
0.24290387,-0.006914613,-0.06820559,-0.20485468,-10.5978365,-0.4400608
0.23530544,-0.0066983127,-0.06607201,-0.19844648,-10.266319,-0.42629498
0.22794694,-0.006488842,-0.06400579,-0.19224064,-9.94527,-0.4129638
0.22082058,-0.00628598,-0.062004767,-0.18623057,-9.634348,-0.40005326
0.21391886,-0.0060895127,-0.06006682,-0.18040997,-9.333228,-0.38754964
0.20723456,-0.0058992337,-0.058189914,-0.17477271,-9.041594,-0.3754399
0.20076063,-0.0057149446,-0.056372084,-0.16931288,-8.759138,-0.36371133
0.19449034,-0.0055364515,-0.054611433,-0.16402479,-8.485567,-0.35235164
0.18841717,-0.0053635696,-0.05290613,-0.15890293,-8.220595,-0.34134907
0.18253477,-0.0051961183,-0.0512544,-0.15394197,-7.963948,-0.33069214
0.17683707,-0.005033925,-0.049654525,-0.14913678,-7.7153583,-0.3203698
0.17131817,-0.004876822,-0.04810486,-0.14448237,-7.4745703,-0.3103714
0.16597238,-0.004724646,-0.046603803,-0.13997397,-7.2413344,-0.3006866
0.16079418,-0.004577241,-0.045149803,-0.13560688,-7.015411,-0.29130542
0.15577824,-0.004434455,-0.043741368,-0.13137667,-6.796567,-0.28221822
0.15091944,-0.004296142,-0.042377047,-0.12727895,-6.5845785,-0.27341568
0.14621277,-0.0041621597,-0.041055452,-0.12330956,-6.3792276,-0.26488876
0.14165342,-0.004032371,-0.03977522,-0.1194644,-6.1803045,-0.25662875
0.13723673,-0.003906644,-0.038535047,-0.11573956,-5.9876056,-0.2486272
0.1329582,-0.0037848493,-0.03733367,-0.11213123,-5.8009343,-0.24087593
0.12881346,-0.0036668633,-0.036169857,-0.10863574,-5.6201005,-0.23336704
0.124798305,-0.0035525658,-0.03504243,-0.10524952,-5.4449196,-0.2260929
0.120908625,-0.0034418404,-0.033950236,-0.10196913,-5.275214,-0.2190461
0.11714049,-0.0033345749,-0.03289217,-0.09879124,-5.1108108,-0.21221949
0.11349005,-0.00323066,-0.031867158,-0.09571263,-4.9515433,-0.20560613
0.109953634,-0.0031299905,-0.030874157,-0.092730165,-4.7972503,-0.19919932
0.10652764,-0.0030324645,-0.029912164,-0.08984083,-4.647775,-0.19299255
0.1032086,-0.0029379833,-0.028980203,-0.08704169,-4.5029664,-0.18697956
0.09999316,-0.0028464512,-0.028077332,-0.08432993,-4.3626776,-0.18115427
0.09687807,-0.0027577756,-0.027202638,-0.0817028,-4.2267666,-0.17551075
0.09386018,-0.002671867,-0.026355237,-0.079157636,-4.095097,-0.17004335
0.090936445,-0.0025886386,-0.025534272,-0.07669188,-3.967535,-0.16474651
0.08810391,-0.0025080063,-0.024738919,-0.074303046,-3.8439522,-0.1596149
0.08535972,-0.002429889,-0.02396837,-0.07198872,-3.724224,-0.15464336
0.08270112,-0.002354208,-0.023221854,-0.06974656,-3.6082296,-0.14982684
0.080125414,-0.0022808868,-0.022498617,-0.06757432,-3.4958522,-0.14516053
0.07763001,-0.0022098518,-0.021797927,-0.06546982,-3.3869789,-0.1406397
0.07521242,-0.0021410312,-0.021119084,-0.06343091,-3.2814994,-0.13625981
0.07287018,-0.002074356,-0.020461401,-0.061455574,-3.1793082,-0.13201647
0.07060095,-0.002009759,-0.019824218,-0.059541807,-3.0803025,-0.12790538
0.06840245,-0.0019471755,-0.019206896,-0.05768768,-2.9843822,-0.12392242
0.06627246,-0.0018865423,-0.01860881,-0.055891342,-2.8914514,-0.120063595
0.06420885,-0.0018277986,-0.018029364,-0.05415098,-2.8014166,-0.11632502
0.062209543,-0.0017708853,-0.017467974,-0.05246485,-2.7141871,-0.11270294
0.06027253,-0.0017157454,-0.016924076,-0.05083126,-2.6296759,-0.10919372
0.058395866,-0.0016623235,-0.016397122,-0.04924856,-2.5477974,-0.105793834
0.056577668,-0.0016105658,-0.015886586,-0.047715172,-2.4684699,-0.102499865
0.054816116,-0.0015604206,-0.015391955,-0.046229552,-2.3916137,-0.09930852
0.053109434,-0.0015118375,-0.014912732,-0.044790212,-2.3171518,-0.09621658
0.051455915,-0.0014647677,-0.014448436,-0.043395706,-2.2450092,-0.093220964
0.049853902,-0.0014191641,-0.013998603,-0.042044636,-2.1751137,-0.09031865
0.04830179,-0.0013749809,-0.013562781,-0.04073565,-2.1073954,-0.087506734
0.046798013,-0.0013321737,-0.013140532,-0.03946743,-2.041786,-0.0847824
0.045341074,-0.0012906998,-0.012731435,-0.03823871,-1.9782201,-0.08214291
0.04392951,-0.0012505177,-0.012335078,-0.03704826,-1.916634,-0.07958563
0.042561907,-0.0012115868,-0.011951065,-0.035894882,-1.8569657,-0.07710798
0.04123689,-0.0011738682,-0.011579011,-0.034777418,-1.7991555,-0.07470749
0.039953135,-0.0011373243,-0.011218541,-0.033694755,-1.7431456,-0.07238176
0.038709357,-0.0011019183,-0.010869298,-0.032645807,-1.6888798,-0.07012845
0.037504308,-0.0010676149,-0.010530929,-0.03162952,-1.6363039,-0.0679453
0.036336783,-0.0010343796,-0.010203097,-0.03064488,-1.585365,-0.065830134
0.035205614,-0.0010021791,-0.009885472,-0.029690899,-1.5360123,-0.06378083
0.034109663,-0.00097098126,-0.009577738,-0.02876662,-1.4881963,-0.06179533
0.033047836,-0.00094075484,-0.0092795845,-0.027871123,-1.441869,-0.059871655
0.032019068,-0.0009114695,-0.008990715,-0.027003506,-1.3969842,-0.058007874
0.031022334,-0.00088309596,-0.008710839,-0.026162902,-1.3534969,-0.056202125
0.030056631,-0.0008556059,-0.008439677,-0.02534847,-1.3113636,-0.05445259
0.029120995,-0.0008289716,-0.008176957,-0.024559395,-1.2705419,-0.05275753
0.028214488,-0.0008031666,-0.0079224175,-0.023794886,-1.2309914,-0.051115245
0.027336204,-0.00077816495,-0.007675802,-0.023054179,-1.192672,-0.049524087
0.026485264,-0.0007539417,-0.007436864,-0.022336533,-1.1555457,-0.047982465
0.025660817,-0.00073047256,-0.007205365,-0.021641228,-1.1195751,-0.04648884
0.024862034,-0.0007077341,-0.0069810734,-0.02096757,-1.0847245,-0.045041714
0.02408812,-0.0006857035,-0.0067637637,-0.020314883,-1.0509589,-0.04363964
0.0233383,-0.0006643587,-0.0065532196,-0.019682517,-1.0182443,-0.042281214
0.022611821,-0.0006436785,-0.00634923,-0.019069837,-0.98654824,-0.040965077
0.021907957,-0.000623642,-0.0061515905,-0.01847623,-0.9558389,-0.039689913
0.021226007,-0.0006042293,-0.005960104,-0.017901102,-0.92608553,-0.038454447
0.020565286,-0.0005854209,-0.0057745785,-0.017343877,-0.89725846,-0.03725744
0.019925132,-0.000567198,-0.005594828,-0.016804,-0.86932874,-0.036097694
0.019304907,-0.00054954237,-0.0054206736,-0.016280929,-0.84226847,-0.034974054
0.01870399,-0.00053243636,-0.0052519403,-0.01577414,-0.8160505,-0.033885393
0.018121779,-0.0005158629,-0.00508846,-0.015283129,-0.7906488,-0.03283062
0.017557692,-0.0004998053,-0.0049300683,-0.014807402,-0.7660378,-0.03180868
0.017011164,-0.0004842476,-0.0047766077,-0.014346484,-0.7421929,-0.030818556
0.01648165,-0.00046917418,-0.004627924,-0.013899914,-0.71909034,-0.029859252
0.015968617,-0.00045457,-0.0044838684,-0.013467245,-0.6967069,-0.02892981
