ax,ay,az,gx,gy,gz
-2.6191146,1.6227419,-7.142792,52.435024,43.22403,-20.474731
-2.935434,2.083132,-7.9142914,48.418873,29.812424,-26.103363
-3.1993203,2.2388554,-8.361459,32.968674,15.049745,-31.00147
-3.3578773,1.9661751,-8.7124,22.536766,2.2659528,-34.110413
-3.4912815,1.639596,-9.008284,18.86077,-9.152046,-34.25654
-3.5461776,1.5084294,-9.201033,16.951551,-18.637093,-33.587208
-3.5385878,1.4748272,-9.299509,15.002532,-27.267082,-32.861553
-3.545551,1.4505954,-9.333501,12.994452,-35.782806,-32.076073
-3.5638146,1.4047714,-9.315456,12.020687,-44.090717,-31.029385
-3.5683157,1.3932834,-9.253676,12.5246725,-52.830425,-30.318188
-3.5314426,1.4494087,-9.117151,13.428727,-61.463573,-29.551167
-3.444476,1.5533602,-8.919589,13.617943,-69.61396,-28.687899
-3.36363,1.6409533,-8.699405,12.051656,-77.777626,-27.777697
-3.2875338,1.6280442,-8.4695015,9.520295,-85.70784,-27.007395
-3.1911387,1.533946,-8.222245,7.5441365,-92.91698,-26.38829
-3.0323787,1.4687903,-7.9260683,5.9615045,-99.51393,-25.909143
-2.8341072,1.4280478,-7.5949306,4.1776266,-105.58165,-25.589
-2.6206853,1.3759347,-7.248848,1.8322034,-111.17318,-25.473314
-2.3926146,1.2768501,-6.9053583,-0.4509061,-116.07439,-25.876213
-2.1208453,1.1252872,-6.5721827,-1.4472544,-120.13047,-26.557352
-1.7623345,1.0118374,-6.1794243,-1.5236517,-123.448845,-26.871843
-1.3304516,0.9555923,-5.7298927,-2.0337403,-126.060074,-26.794996
-0.8501615,0.88764185,-5.249731,-3.240852,-127.92015,-26.862413
-0.39195004,0.76132554,-4.767171,-4.4483414,-128.23593,-26.763891
0.0034591884,0.63138574,-4.314323,-4.81597,-127.19185,-26.331526
0.36899346,0.5682345,-3.8628209,-5.2782116,-125.55837,-25.564209
0.69926775,0.5299509,-3.4307485,-6.332242,-123.59571,-24.374672
0.97400355,0.47442272,-3.037031,-7.796613,-121.063156,-22.880472
1.188806,0.40369362,-2.7001839,-9.224543,-117.88409,-21.519287
1.3515116,0.316175,-2.423865,-9.85273,-114.021675,-20.703806
1.4633934,0.23826629,-2.2045789,-9.838991,-110.11594,-20.119366
1.5547245,0.18495275,-2.0033069,-9.682013,-106.23143,-19.417465
1.6286536,0.14957637,-1.81992,-9.712228,-102.43189,-18.508457
1.6785531,0.12086734,-1.654701,-9.757612,-98.549545,-17.45926
1.6988424,0.102231614,-1.5146341,-9.684463,-94.53036,-16.468332
1.688007,0.10049883,-1.4012532,-9.558982,-90.588646,-15.589585
1.659829,0.1113728,-1.301733,-9.437535,-86.79069,-14.732168
1.6201469,0.13437971,-1.2159007,-9.490845,-83.14346,-13.976323
1.571252,0.15010789,-1.1417755,-9.606995,-79.628944,-13.340303
1.5164307,0.14655708,-1.0781593,-9.278013,-75.94729,-12.658341
1.4592826,0.13813719,-1.0240623,-8.710054,-72.10372,-11.762492
1.4065778,0.14724351,-0.97100675,-8.36917,-68.19927,-10.664032
1.3592982,0.17586058,-0.92236054,-8.672774,-64.285225,-9.48177
1.3113551,0.16965792,-0.8898285,-8.366882,-62.017853,-9.147344
1.2654566,0.16371973,-0.8586837,-8.074034,-59.84717,-8.827178
1.221482,0.15803048,-0.8288445,-7.793462,-57.767487,-8.520434
1.1793214,0.15257591,-0.80023617,-7.5244627,-55.773586,-8.226344
1.1388732,0.14734288,-0.7727898,-7.26639,-53.860676,-7.944198
1.100044,0.14231932,-0.74644196,-7.0186467,-52.024326,-7.6733456
1.0627476,0.13749404,-0.72113425,-6.780683,-50.260468,-7.413184
1.026904,0.13285674,-0.69681233,-6.551989,-48.56532,-7.1631575
0.99243927,0.12839784,-0.6734261,-6.332093,-46.93538,-6.9227495
0.95928466,0.12410843,-0.6509288,-6.1205554,-45.3674,-6.6914797
0.9273763,0.11998025,-0.62927717,-5.9169693,-43.85836,-6.468903
0.8966545,0.116005585,-0.6084307,-5.720954,-42.405434,-6.254604
0.86706364,0.11217724,-0.5883516,-5.5321546,-41.005997,-6.048193
0.8385517,0.108488485,-0.56900465,-5.350239,-39.657585,-5.8493085
0.81106997,0.104933,-0.55035675,-5.1748962,-38.35789,-5.65761
0.7845727,0.10150489,-0.5323769,-5.005835,-37.10476,-5.4727783
0.759017,0.09819859,-0.51503587,-4.8427806,-35.896152,-5.2945147
0.73436236,0.09500888,-0.49830633,-4.6854763,-34.730164,-5.1225367
0.7105708,0.09193083,-0.48216242,-4.5336785,-33.604992,-4.956579
0.68760645,0.08895979,-0.46657982,-4.387158,-32.51894,-4.7963915
0.6654354,0.08609138,-0.45153546,-4.245699,-31.470402,-4.6417375
0.64402544,0.08332145,-0.43700764,-4.1090965,-30.457863,-4.4923925
0.6233464,0.080646075,-0.42297572,-3.9771574,-29.479889,-4.348146
0.60336936,0.07806153,-0.4094202,-3.8496974,-28.535118,-4.2087965
0.5840671,0.07556428,-0.39632252,-3.7265425,-27.622257,-4.074154
0.5654137,0.07315097,-0.3836651,-3.6075275,-26.740082,-3.9440372
0.5473844,0.07081842,-0.37143123,-3.4924946,-25.887423,-3.818274
0.5299558,0.06856357,-0.35960492,-3.3812945,-25.063173,-3.696701
0.5131056,0.066383556,-0.3481711,-3.2737842,-24.266275,-3.5791621
0.49681228,0.06427559,-0.33711517,-3.1698277,-23.495718,-3.4655087
0.48105568,0.06223707,-0.32642344,-3.0692952,-22.750542,-3.3555987
0.46581632,0.06026546,-0.31608266,-2.972063,-22.029827,-3.2492967
0.4510756,0.058358368,-0.30608025,-2.8780124,-21.332697,-3.146473
0.4368158,0.05651349,-0.29640418,-2.7870302,-20.658308,-3.047004
0.42301992,0.05472863,-0.2870429,-2.6990077,-20.00586,-2.9507709
0.40967163,0.053001683,-0.27798533,-2.6138413,-19.37458,-2.85766
0.39675537,0.05133063,-0.26922092,-2.5314312,-18.763731,-2.7675626
0.38425615,0.04971353,-0.26073948,-2.451682,-18.172607,-2.6803746
0.37215963,0.04814853,-0.25253132,-2.3745022,-17.600527,-2.5959954
0.36045203,0.046633847,-0.24458705,-2.2998037,-17.046839,-2.5143292
0.34912008,0.045167767,-0.23689768,-2.2275023,-16.510918,-2.4352834
0.3381511,0.043748643,-0.2294546,-2.1575165,-15.992163,-2.3587692
0.32753283,0.04237489,-0.22224951,-2.0897684,-15.489993,-2.2847016
0.3172535,0.041044995,-0.21527441,-2.0241828,-15.003854,-2.2129984
0.30730182,0.039757483,-0.20852162,-1.9606878,-14.533209,-2.1435804
0.29766685,0.038510952,-0.20198376,-1.8992136,-14.077543,-2.076372
0.28833812,0.03730404,-0.19565369,-1.8396932,-13.63636,-2.0112994
0.27930552,0.03613544,-0.18952458,-1.7820622,-13.209183,-1.9482927
0.2705593,0.03500389,-0.18358977,-1.7262585,-12.795548,-1.8872837
0.26209012,0.033908177,-0.17784294,-1.6722221,-12.395015,-1.8282068
0.25388885,0.03284713,-0.17227791,-1.6198952,-12.007153,-1.7709988
0.24594678,0.031819616,-0.16688877,-1.5692223,-11.631549,-1.7155991
0.2382555,0.030824548,-0.1616698,-1.5201494,-11.267805,-1.6619487
0.23080687,0.029860873,-0.1566155,-1.4726245,-10.915538,-1.6099908
0.22359304,0.028927578,-0.1517205,-1.426598,-10.574374,-1.5596708
0.21660644,0.028023679,-0.14697969,-1.3820211,-10.2439575,-1.5109359
0.20983975,0.02714823,-0.1423881,-1.3388474,-9.923941,-1.4637349
0.20328589,0.026300319,-0.13794096,-1.2970316,-9.613989,-1.4180186
0.19693805,0.025479062,-0.13363358,-1.2565303,-9.313782,-1.3737392
0.19078964,0.024683604,-0.12946154,-1.2173014,-9.023005,-1.3308511
0.18483427,0.02391312,-0.12542048,-1.1793041,-8.741358,-1.2893095
0.17906578,0.023166819,-0.121506244,-1.1424993,-8.468549,-1.2490715
0.17347823,0.022443922,-0.11771478,-1.1068488,-8.204297,-1.2100955
0.16806586,0.02174369,-0.11404217,-1.072316,-7.94833,-1.1723416
0.1628231,0.021065403,-0.11048466,-1.0388654,-7.700384,-1.1357707
0.15774454,0.020408362,-0.10703858,-1.0064627,-7.460205,-1.1003454
0.15282503,0.019771893,-0.10370041,-0.9750745,-7.227546,-1.0660293
0.14805949,0.019155348,-0.10046672,-0.94466877,-7.00217,-1.0327873
0.14344306,0.018558092,-0.09733422,-0.9152145,-6.783846,-1.0005856
0.13897105,0.017979521,-0.0942997,-0.8866815,-6.5723505,-0.96939105
0.13463886,0.01741904,-0.09136007,-0.85904074,-6.3674693,-0.93917197
0.13044213,0.016876083,-0.088512346,-0.8322641,-6.1689925,-0.9098976
0.12637654,0.016350094,-0.08575362,-0.80632436,-5.9767194,-0.8815382
0.12243799,0.01584054,-0.08308109,-0.7811951,-5.790454,-0.8540649
0.118622474,0.015346903,-0.08049205,-0.75685084,-5.610007,-0.8274498
0.11492613,0.014868684,-0.07798386,-0.7332669,-5.4351954,-0.80166596
0.111345194,0.014405398,-0.075554,-0.71041936,-5.265843,-0.7766872
0.107876055,0.013956575,-0.073199995,-0.6882851,-5.101777,-0.75248826
0.1045152,0.013521761,-0.07091947,-0.6668418,-4.9428325,-0.7290447
0.10125924,0.013100517,-0.06871011,-0.6460676,-4.788848,-0.70633274
0.09810487,0.012692417,-0.06656969,-0.6259417,-4.6396685,-0.68432945
0.09504891,0.012297049,-0.06449605,-0.60644364,-4.4951434,-0.6630126
0.09208828,0.011914015,-0.062487096,-0.58755386,-4.3551264,-0.6423608
0.08921999,0.0115429275,-0.060540803,-0.5692532,-4.2194767,-0.6223531
0.08644115,0.011183412,-0.058655202,-0.5515233,-4.088057,-0.60296935
0.08374897,0.010835107,-0.056828402,-0.5343463,-3.9607358,-0.58419
0.08114072,0.010497663,-0.05505856,-0.5177048,-3.837384,-0.5659962
0.07861379,0.010170739,-0.053343892,-0.50158215,-3.7178779,-0.54836965
0.076165624,0.009854006,-0.051682677,-0.48596203,-3.6020973,-0.5312925
0.07379378,0.009547145,-0.050073244,-0.47082883,-3.4899254,-0.5147477
0.071495846,0.009249848,-0.04851397,-0.4561673,-3.3812497,-0.49871853
0.06926954,0.008961816,-0.04700329,-0.4419627,-3.2759607,-0.4831889
0.0671126,0.008682761,-0.04553969,-0.42820072,-3.1739528,-0.46814322
0.06502288,0.008412401,-0.044121694,-0.41486758,-3.0751235,-0.45356637
0.062998265,0.008150465,-0.042747878,-0.40194988,-2.9793737,-0.4394437
0.061036732,0.00789669,-0.04141687,-0.38943467,-2.8866072,-0.42576107
0.059136312,0.0076508205,-0.040127326,-0.37730932,-2.7967305,-0.4125047
0.05729509,0.007412611,-0.038877957,-0.36556175,-2.7096539,-0.3996613
0.05551123,0.007181822,-0.037667505,-0.35418013,-2.62529,-0.387218
0.053782936,0.006958222,-0.036494758,-0.34315303,-2.5435536,-0.37516227
0.052108474,0.0067415866,-0.03535854,-0.3324694,-2.4643633,-0.3634821
0.050486166,0.006531699,-0.034257714,-0.32211852,-2.3876398,-0.3521657
0.048914388,0.0063283485,-0.033191174,-0.31209007,-2.3133056,-0.34120178
0.04739156,0.0061313314,-0.03215785,-0.30237392,-2.2412868,-0.3305793
0.04591616,0.00594045,-0.031156706,-0.29296038,-2.1715107,-0.32028767
0.044486705,0.005755513,-0.03018674,-0.28383997,-2.1039076,-0.31031653
0.04310177,0.0055763354,-0.029246982,-0.2750036,-2.0384097,-0.30065593
0.041759957,0.0054027373,-0.02833649,-0.26644242,-1.9749516,-0.29129612
0.04045993,0.0052345446,-0.027454348,-0.25814784,-1.9134696,-0.2822278
0.039200388,0.0050715897,-0.026599675,-0.25011152,-1.8539019,-0.27344188
0.03798006,0.004913709,-0.025771616,-0.24232543,-1.7961892,-0.2649295
0.036797736,0.0047607445,-0.024969341,-0.23478179,-1.7402734,-0.2566822
0.03565222,0.004612542,-0.024192045,-0.22747304,-1.6860987,-0.2486917
0.034542374,0.004468955,-0.023438951,-0.22039184,-1.6336108,-0.24094996
0.033467084,0.0043298383,-0.022709306,-0.21353114,-1.5827571,-0.2334493
0.032425273,0.0041950527,-0.022002378,-0.20688403,-1.5334868,-0.22618215
0.0314159,0.004064464,-0.021317462,-0.20044388,-1.4857506,-0.21914126
0.03043795,0.0039379406,-0.020653868,-0.19420424,-1.4395005,-0.21231958
0.029490449,0.0038153566,-0.020010933,-0.18815887,-1.3946903,-0.2057103
0.028572446,0.0036965893,-0.019388016,-0.1823017,-1.3512752,-0.19930679
0.027683022,0.0035815192,-0.018784493,-0.17662689,-1.3092117,-0.19310263
0.02682129,0.0034700315,-0.018199759,-0.17112875,-1.2684579,-0.18709162
0.025986383,0.003362015,-0.017633228,-0.16580176,-1.2289727,-0.18126774
0.02517747,0.0032573608,-0.017084334,-0.16064063,-1.1907169,-0.17562518
0.02439374,0.003155965,-0.016552528,-0.15564017,-1.1536518,-0.17015827
0.023634408,0.0030577255,-0.01603728,-0.15079539,-1.1177409,-0.16486154
0.022898713,0.0029625443,-0.015538069,-0.14610142,-1.0829477,-0.15972973
0.022185922,0.0028703264,-0.015054401,-0.14155357,-1.0492377,-0.15475766
0.02149532,0.002780979,-0.014585788,-0.13714729,-1.0165771,-0.14994037
0.020826219,0.002694413,-0.014131765,-0.1328782,-0.98493326,-0.14527306
0.020177944,0.002610542,-0.013691874,-0.128742,-0.9542745,-0.14075103
0.01954985,0.002529282,-0.013265678,-0.12473455,-0.9245701,-0.13636978
0.01894131,0.0024505511,-0.012852748,-0.12085186,-0.8957904,-0.1321249
0.018351713,0.0023742714,-0.012452673,-0.11709003,-0.86790663,-0.12801218
0.01778047,0.0023003663,-0.012065052,-0.113445304,-0.8408908,-0.12402747
0.017227007,0.0022287616,-0.011689497,-0.109914035,-0.814716,-0.12016681
0.016690774,0.002159386,-0.011325633,-0.1064927,-0.789356,-0.11642632
