ax,ay,az,gx,gy,gz
-1.6663787,0.16091056,-1.9882,-23.304758,-20.918373,4.3282213
-1.7729269,0.11854761,-2.2949493,-26.799759,-21.537125,1.3063624
-1.8046207,0.117401145,-2.4856336,-27.449076,-21.362251,0.19390817
-1.8091202,0.055856224,-2.780227,-24.778696,-21.945078,-0.5260486
-1.8582261,-0.0005454539,-3.113435,-21.55159,-23.877298,-2.3008232
-1.9300113,-0.09710129,-3.4367304,-17.570963,-26.370024,-4.061334
-1.9762533,-0.15018137,-3.721367,-13.643114,-29.72354,-5.9382925
-1.9280915,-0.17039075,-3.922386,-9.949785,-32.51551,-7.4469976
-1.8231885,-0.17540596,-4.0904183,-6.690264,-34.850414,-8.325264
-1.7310783,-0.15896344,-4.2416534,-4.311254,-37.09509,-8.515532
-1.6918954,-0.13564804,-4.3856096,-2.781889,-39.709587,-8.216535
-1.7044828,-0.10173401,-4.507464,-2.3739634,-43.355713,-7.7715936
-1.7450885,-0.10512232,-4.617976,-2.374447,-47.459213,-7.711261
-1.7573937,-0.15578742,-4.7113686,-1.971647,-51.75915,-7.833385
-1.7329762,-0.20839953,-4.76394,-1.0642307,-56.414833,-7.663619
-1.6579843,-0.18168022,-4.7352443,-0.6622877,-61.95038,-7.171337
-1.5486249,-0.13967311,-4.6286025,-1.0625793,-67.56582,-6.6532526
-1.4177958,-0.15965134,-4.4923754,-1.5127912,-72.51994,-6.182971
-1.2918272,-0.20927386,-4.3523755,-1.4532689,-76.91166,-6.0152893
-1.1581172,-0.23123837,-4.1725554,-0.868279,-80.89499,-6.064477
-1.0053962,-0.20699114,-3.942164,-0.2771803,-84.56702,-6.201045
-0.8429461,-0.16843402,-3.6839287,-0.4243436,-88.00507,-6.116818
-0.66259736,-0.17655064,-3.426266,-0.70655876,-91.06251,-5.9567213
-0.45513132,-0.19684833,-3.1571112,-0.56503963,-93.71915,-5.8419037
-0.20048855,-0.18140864,-2.8451834,-0.34451705,-95.94169,-5.7993584
0.10117149,-0.13837783,-2.4851112,-0.49480426,-97.5475,-5.666937
0.42391825,-0.099412344,-2.1056175,-1.316243,-97.89045,-5.2991133
0.7107699,-0.101550296,-1.7514635,-2.2009776,-97.09056,-4.7597775
0.93712366,-0.11694347,-1.4390581,-2.789576,-95.51948,-4.2446566
1.1233656,-0.10694346,-1.1446812,-3.1354997,-93.58756,-3.774432
1.2849101,-0.06565513,-0.8570678,-3.7260556,-91.60493,-3.142878
1.4345275,-0.012569897,-0.58074546,-4.9080715,-89.48938,-2.073777
1.5760995,0.027753722,-0.3345885,-6.133261,-86.96318,-1.0234836
1.6955694,0.053809654,-0.13246077,-7.0628376,-83.76733,-0.3241568
1.7771012,0.066205464,0.012062783,-7.487778,-80.05673,-0.05556666
1.818088,0.07815004,0.10235497,-7.563332,-76.15978,-0.0721328
1.826973,0.08676786,0.14716104,-7.496563,-72.28659,-0.18022408
1.8001785,0.08834614,0.15220018,-7.4695973,-68.57693,-0.2966653
1.7490283,0.08737256,0.1373744,-7.468725,-65.11804,-0.37590608
1.682112,0.08644479,0.112240046,-7.4924664,-61.87323,-0.45814586
1.6021658,0.08469082,0.07942903,-7.5349913,-58.86848,-0.51889366
1.5112268,0.08201157,0.03984788,-7.6412773,-56.15471,-0.5397027
1.4139267,0.07774398,-0.0047744056,-7.836207,-53.689034,-0.49881935
1.3174647,0.06875905,-0.04883513,-8.098012,-51.46604,-0.332702
1.2713522,0.06635241,-0.047125854,-7.8145742,-49.66468,-0.3210571
1.2271729,0.06404667,-0.045488235,-7.5430183,-47.93884,-0.30990043
1.1848158,0.06183604,-0.043918163,-7.282664,-46.284184,-0.2992039
1.1441792,0.0597152,-0.042411868,-7.032884,-44.696735,-0.28894186
1.105169,0.057679247,-0.04096586,-6.7931023,-43.17283,-0.27909055
1.0676988,0.05572366,-0.039576933,-6.5627856,-41.709076,-0.26962814
1.0316883,0.05384425,-0.03824211,-6.3414407,-40.30234,-0.26053432
0.997063,0.052037142,-0.036958635,-6.1286106,-38.949722,-0.25179031
0.96375394,0.050298728,-0.035723954,-5.923871,-37.64852,-0.24337871
0.9316969,0.04862566,-0.034535676,-5.726827,-36.396233,-0.23528329
0.90083194,0.047014803,-0.03339159,-5.537111,-35.19051,-0.2274889
0.8711032,0.04546325,-0.032289624,-5.354378,-34.029175,-0.21998145
0.8424585,0.043968268,-0.031227833,-5.178309,-32.910183,-0.21274772
0.8148487,0.042527303,-0.030204408,-5.0086007,-31.831621,-0.20577538
0.78822803,0.041137956,-0.029217644,-4.844972,-30.791698,-0.1990528
0.7625532,0.039797977,-0.028265944,-4.687158,-29.788725,-0.19256909
0.73778373,0.03850525,-0.027347801,-4.5349083,-28.82112,-0.186314
0.7138814,0.037257772,-0.0264618,-4.3879886,-27.887386,-0.18027788
0.69081,0.03605367,-0.025606602,-4.2461767,-26.986116,-0.17445163
0.6685356,0.03489116,-0.024780946,-4.1092634,-26.11598,-0.16882664
0.64702594,0.03376856,-0.023983637,-3.9770508,-25.275717,-0.16339476
0.62625057,0.03268428,-0.023213545,-3.8493512,-24.464136,-0.1581483
0.6061804,0.031636816,-0.022469597,-3.7259872,-23.680109,-0.15307996
0.5867883,0.03062473,-0.021750776,-3.60679,-22.922564,-0.14818281
0.56804794,0.029646663,-0.02105612,-3.4915993,-22.190483,-0.14345028
0.5499346,0.028701324,-0.020384705,-3.380263,-21.482897,-0.1388761
0.53242487,0.02778748,-0.01973566,-3.2726364,-20.798887,-0.13445431
0.5154961,0.02690396,-0.019108152,-3.1685808,-20.137573,-0.13017926
0.4991269,0.026049646,-0.018501388,-3.067965,-19.498121,-0.12604551
0.4832969,0.025223471,-0.01791461,-2.9706633,-18.87973,-0.12204793
0.46798652,0.024424417,-0.017347092,-2.8765557,-18.28164,-0.11818158
0.45317715,0.023651509,-0.016798146,-2.7855275,-17.70312,-0.11444173
0.4388509,0.022903817,-0.016267108,-2.6974688,-17.143473,-0.1108239
0.42499074,0.022180447,-0.015753346,-2.612275,-16.602032,-0.10732376
0.41158026,0.02148055,-0.015256253,-2.5298455,-16.07816,-0.10393719
0.39860383,0.020803304,-0.014775249,-2.4500835,-15.571241,-0.10066022
0.38604638,0.020147925,-0.014309776,-2.3728971,-15.080691,-0.09748907
0.3738935,0.019513661,-0.013859299,-2.2981975,-14.605947,-0.094420075
0.36213136,0.01889979,-0.013423305,-2.2258995,-14.146464,-0.09144975
0.35074663,0.018305615,-0.013001301,-2.1559215,-13.701726,-0.088574745
0.33972654,0.017730473,-0.012592814,-2.0881846,-13.271232,-0.08579182
0.32905877,0.017173719,-0.012197387,-2.0226135,-12.854502,-0.083097875
0.31873158,0.016634736,-0.011814583,-1.9591357,-12.451075,-0.08048992
0.30873352,0.016112933,-0.011443981,-1.897681,-12.060507,-0.07796509
0.29905367,0.015607738,-0.011085173,-1.8381822,-11.682368,-0.07552062
0.2896815,0.0151186,-0.010737769,-1.7805746,-11.316249,-0.073153846
0.2806068,0.014644989,-0.010401394,-1.7247956,-10.961752,-0.0708622
0.27181986,0.0141863935,-0.010075684,-1.6707851,-10.618494,-0.06864321
0.26331118,0.013742323,-0.0097602885,-1.6184852,-10.286108,-0.0664945
0.2550717,0.013312301,-0.0094548715,-1.5678399,-9.964237,-0.06441376
0.24709263,0.01289587,-0.009159107,-1.5187953,-9.652539,-0.0623988
0.23936552,0.012492589,-0.008872682,-1.4712993,-9.350683,-0.060447454
0.23188218,0.01210203,-0.008595293,-1.4253018,-9.0583515,-0.058557674
0.22463475,0.011723784,-0.00832665,-1.3807542,-8.775234,-0.05672746
0.21761559,0.011357451,-0.008066467,-1.3376098,-8.501035,-0.0549549
0.21081738,0.011002649,-0.0078144735,-1.2958235,-8.235466,-0.053238135
0.20423299,0.010659006,-0.007570407,-1.2553514,-7.9782505,-0.051575366
0.19785558,0.010326167,-0.0073340125,-1.2161516,-7.7291203,-0.049964864
0.19167852,0.010003784,-0.007105044,-1.1781833,-7.487817,-0.04840496
0.18569541,0.009691522,-0.006883265,-1.1414071,-7.25409,-0.046894033
0.17990005,0.009389061,-0.0066684457,-1.105785,-7.027697,-0.04543052
0.17428645,0.009096085,-0.006460364,-1.0712802,-6.808406,-0.044012908
0.16884887,0.008812294,-0.006258806,-1.0378572,-6.595989,-0.042639744
0.16358167,0.008537398,-0.006063564,-1.0054815,-6.390229,-0.041309606
0.15847947,0.008271111,-0.0058744387,-0.97411996,-6.190914,-0.04002114
0.15353703,0.008013163,-0.0056912345,-0.9437404,-5.9978404,-0.038773015
0.14874929,0.007763289,-0.005513765,-0.9143118,-5.81081,-0.037563957
0.14411137,0.0075212335,-0.0053418484,-0.885804,-5.629632,-0.03639273
0.1396185,0.0072867493,-0.0051753093,-0.858188,-5.4541206,-0.03525814
0.13526614,0.007059598,-0.005013978,-0.83143544,-5.284098,-0.03415903
0.13104984,0.0068395473,-0.0048576905,-0.8055193,-5.119391,-0.03309428
0.12696533,0.0066263746,-0.0047062878,-0.7804131,-4.959831,-0.032062806
0.12300842,0.006419862,-0.004559615,-0.75609136,-4.8052573,-0.031063564
0.119175136,0.006219801,-0.0044175247,-0.7325294,-4.655512,-0.030095534
0.115461566,0.006025988,-0.004279872,-0.7097033,-4.510443,-0.02915774
0.11186395,0.005838227,-0.0041465173,-0.68759,-4.369904,-0.028249227
0.10837865,0.005656328,-0.004017326,-0.6661671,-4.2337527,-0.027369076
0.105002135,0.0054801065,-0.003892167,-0.6454128,-4.1018515,-0.0265164
0.101731,0.0053093843,-0.0037709142,-0.6253062,-3.9740663,-0.025690334
0.098561935,0.0051439893,-0.0036534448,-0.60582703,-3.8502684,-0.024890043
0.09549174,0.0049837544,-0.0035396405,-0.58695555,-3.7303329,-0.02411472
0.09251732,0.0048285183,-0.0034293858,-0.5686728,-3.6141386,-0.023363583
0.08963566,0.0046781236,-0.0033225704,-0.55096024,-3.5015683,-0.022635873
0.08684388,0.004532419,-0.0032190857,-0.53380007,-3.3925087,-0.021930858
0.08413915,0.004391258,-0.0031188282,-0.517175,-3.28685,-0.021247828
0.081518754,0.0042544985,-0.0030216966,-0.50106835,-3.1844857,-0.020586094
0.07898004,0.0041220025,-0.0029275932,-0.48546377,-3.0853124,-0.01994499
0.07652048,0.0039936365,-0.0028364232,-0.47034562,-2.9892309,-0.01932387
0.074137576,0.0038692718,-0.002748095,-0.45569873,-2.8961442,-0.018722111
0.07182895,0.0037487831,-0.0026625197,-0.44150835,-2.8059585,-0.018139107
0.06959226,0.0036320498,-0.0025796113,-0.42776018,-2.7185838,-0.017574273
0.06742527,0.003518954,-0.0024992866,-0.41444048,-2.6339316,-0.01702704
0.06532582,0.0034093822,-0.002421465,-0.4015358,-2.5519173,-0.01649686
0.06329177,0.0033032245,-0.002346068,-0.3890332,-2.4724586,-0.015983198
0.0613211,0.0032003743,-0.00227302,-0.37692016,-2.3954754,-0.01548554
0.059411824,0.0031007284,-0.002202248,-0.3651845,-2.3208907,-0.015003387
0.057562027,0.0030041868,-0.0021336807,-0.35381442,-2.2486293,-0.014536254
0.055769853,0.0029106524,-0.0020672493,-0.34279853,-2.178619,-0.014083673
0.054033507,0.0028200317,-0.0020028872,-0.33212578,-2.1107895,-0.01364519
0.052351244,0.0027322338,-0.0019405299,-0.32178548,-2.0450728,-0.013220364
0.05072138,0.0026471703,-0.0018801149,-0.31176725,-1.981403,-0.012808772
0.049142275,0.0025647564,-0.0018215815,-0.30206102,-1.9197162,-0.012409997
0.047612354,0.002484909,-0.0017648712,-0.2926571,-1.8599507,-0.012023644
0.04613008,0.0024075485,-0.0017099269,-0.2835461,-1.8020464,-0.011649322
0.04469397,0.0023325973,-0.0016566938,-0.27471876,-1.7459455,-0.011286657
0.043302577,0.00225998,-0.0016051184,-0.26616636,-1.6915916,-0.010935287
0.041954517,0.0021896241,-0.0015551492,-0.2578803,-1.6389303,-0.010594858
0.040648434,0.002121459,-0.0015067359,-0.24985224,-1.5879089,-0.01026503
0.03938302,0.0020554166,-0.0014598302,-0.24207416,-1.5384762,-0.009945473
0.03815701,0.0019914305,-0.001414385,-0.23453829,-1.4905828,-0.009635866
0.036969174,0.0019294369,-0.001370355,-0.22723706,-1.4441806,-0.0093359
0.035818323,0.0018693736,-0.0013276958,-0.22016318,-1.3992233,-0.009045273
0.034703307,0.0018111804,-0.001286365,-0.21330954,-1.3556658,-0.008763695
0.033623006,0.001754799,-0.0012463209,-0.2066693,-1.3134644,-0.008490885
0.03257634,0.0017001731,-0.0012075236,-0.2002358,-1.272577,-0.008226569
0.031562265,0.001647248,-0.0011699343,-0.19400261,-1.2329626,-0.007970482
0.030579759,0.0015959707,-0.0011335153,-0.18796349,-1.1945816,-0.0077223675
0.029627843,0.0015462898,-0.0010982301,-0.18211238,-1.1573955,-0.0074819783
0.028705563,0.0014981555,-0.0010640436,-0.17644343,-1.1213672,-0.007249073
0.027811997,0.0014515199,-0.0010309212,-0.17095098,-1.0864605,-0.007023419
0.026946248,0.0014063362,-0.0009988302,-0.16562952,-1.0526406,-0.00680479
0.026107453,0.0013625592,-0.0009677381,-0.16047372,-1.0198734,-0.0065929675
0.025294771,0.0013201449,-0.000937614,-0.15547845,-0.98812646,-0.006387739
0.024507388,0.0012790511,-0.0009084277,-0.15063867,-0.9573678,-0.0061888997
0.023744518,0.0012392366,-0.00088015,-0.14594956,-0.9275667,-0.005996251
0.023005398,0.0012006615,-0.00085275265,-0.14140643,-0.8986933,-0.005809599
0.022289285,0.0011632873,-0.00082620815,-0.13700473,-0.8707188,-0.005628758
0.021595467,0.0011270766,-0.00080049003,-0.13274007,-0.8436151,-0.0054535465
0.020923246,0.0010919932,-0.0007755725,-0.12860815,-0.8173552,-0.0052837892
0.020271951,0.0010580019,-0.0007514307,-0.124604866,-0.7919128,-0.0051193167
0.019640932,0.0010250687,-0.00072804035,-0.120726205,-0.76726234,-0.004959964
0.019029556,0.0009931606,-0.0007053782,-0.11696828,-0.7433793,-0.004805572
0.018437212,0.000962246,-0.00068342144,-0.11332734,-0.72023964,-0.004655986
0.017863307,0.00093229365,-0.00066214823,-0.109799735,-0.69782037,-0.004511057
0.017307267,0.00090327364,-0.0006415372,-0.106381945,-0.67609894,-0.004370639
0.016768536,0.0008751571,-0.0006215678,-0.10307055,-0.65505373,-0.004234592
