ax,ay,az,gx,gy,gz
-0.048182257,0.28727534,-1.6963791,11.707379,-12.207384,-2.108201
-0.33540502,0.2895265,-2.041637,10.287804,-12.788967,-7.7051625
-0.47908294,0.22827798,-2.339067,5.7599893,-14.533751,-6.7734227
-0.7248495,0.07520516,-2.7880278,3.9613903,-19.671835,-4.995771
-0.92652786,-0.1501609,-3.205723,4.504502,-27.267233,-3.612688
-1.0393046,-0.3874468,-3.5296326,6.112484,-34.714073,-1.944105
-1.0807948,-0.5685039,-3.7266486,7.870958,-41.162624,0.47642154
-1.1133679,-0.70516485,-3.8555,9.94985,-46.835346,3.2774565
-1.1135515,-0.7066078,-3.892207,12.18668,-51.89017,5.317474
-1.0536972,-0.5688169,-3.876396,13.730764,-56.160667,6.404792
-0.97322893,-0.37967172,-3.8272963,13.708214,-59.84899,7.111092
-0.8963606,-0.19895066,-3.7403421,12.169672,-62.511986,7.8235707
-0.8137603,-0.017698364,-3.5855134,9.427687,-63.60706,8.424532
-0.7828482,0.15464662,-3.4219658,6.190637,-64.91693,8.630568
-0.78667647,0.26446095,-3.303554,2.4132864,-66.989784,8.684892
-0.78944093,0.2774754,-3.2278545,-1.4312013,-69.625206,8.508086
-0.74687684,0.20839553,-3.183293,-4.832868,-72.319466,8.18445
-0.67311704,0.09881263,-3.1388087,-7.372204,-74.6044,7.8545938
-0.60039127,-0.017282927,-3.0735354,-9.489348,-76.81539,8.089676
-0.5367173,-0.12549253,-2.98938,-11.139097,-79.33998,8.7858515
-0.4515627,-0.2051549,-2.860127,-12.085309,-81.68857,9.6748495
-0.3509102,-0.2364911,-2.6972756,-12.921468,-83.67646,10.563238
-0.26018634,-0.23686832,-2.5463996,-13.520272,-85.52858,10.88806
-0.20622222,-0.23745963,-2.4166832,-13.947123,-87.64874,10.747101
-0.12319657,-0.2640671,-2.252753,-14.275339,-89.70484,10.671662
-0.00070495985,-0.3115064,-2.0536263,-14.326365,-91.37881,10.829835
0.14625031,-0.3575914,-1.8396292,-13.760988,-92.55466,11.106218
0.29434955,-0.36922586,-1.6235085,-12.621033,-92.98057,11.208381
0.41913366,-0.32180277,-1.4042052,-11.480872,-93.10306,11.038478
0.5297031,-0.25128785,-1.1862117,-10.728418,-93.00413,10.796712
0.633791,-0.18161605,-0.9722121,-10.400394,-92.70639,10.501228
0.7269776,-0.13723987,-0.7661946,-10.205682,-92.06341,10.158373
0.80894077,-0.099971026,-0.5804109,-9.938916,-91.00973,9.580859
0.8915345,-0.051898953,-0.39838633,-9.571318,-89.55202,8.729536
0.97675693,0.009573197,-0.21732177,-9.247031,-87.67422,7.8097816
1.0456461,0.0711523,-0.05392105,-8.981625,-85.53836,6.8816366
1.0985729,0.12784226,0.09362097,-8.972032,-83.19419,6.083485
1.1394359,0.17366561,0.22013769,-9.216104,-80.6234,5.4158998
1.172641,0.19607182,0.3239351,-9.401052,-77.90797,4.7939754
1.2011389,0.21043953,0.4116587,-9.258152,-75.01009,4.094218
1.2234727,0.23192978,0.4849513,-8.900868,-71.962845,3.3648107
1.2379477,0.2735427,0.5444631,-8.524658,-68.790344,2.6223228
1.2420745,0.33425975,0.58345586,-8.275786,-65.52593,1.7347002
1.2257769,0.399254,0.5902117,-8.00326,-62.379528,0.63589585
1.201634,0.46532685,0.578269,-7.718868,-59.399353,-0.5527672
1.1748546,0.53478056,0.5540042,-7.440039,-56.609863,-1.7425077
1.1523207,0.61227643,0.52646035,-7.3496747,-53.924908,-2.9800944
1.1280612,0.6876193,0.48919708,-7.631408,-51.277836,-4.3076577
1.0935215,0.7561961,0.43402565,-8.199441,-48.70965,-5.663228
1.0449187,0.8178279,0.36513078,-8.8816185,-46.32563,-7.184652
0.98272824,0.8675477,0.2825957,-9.588691,-44.302074,-8.840302
0.91571444,0.9042795,0.19296576,-10.2153,-42.706642,-10.58386
0.85201657,0.93273306,0.104838796,-10.807899,-41.595966,-12.442606
0.7915112,0.9496061,0.028439756,-11.587347,-40.768658,-14.330976
0.7383575,0.9512755,-0.035743073,-12.628968,-40.17227,-16.169329
0.69725895,0.93440276,-0.08508863,-13.859856,-39.668335,-17.952085
0.67038476,0.90114444,-0.11911994,-15.126131,-39.208878,-19.643766
0.65185547,0.85765016,-0.13746881,-16.46067,-38.78801,-21.312338
0.64196134,0.7850699,-0.14313799,-17.918884,-38.402184,-22.813457
0.6353829,0.68451536,-0.14160258,-19.37499,-37.968407,-23.996813
0.62874407,0.5670102,-0.13963407,-20.623123,-37.48252,-24.829178
0.62062055,0.44075668,-0.13511026,-21.548748,-36.920734,-25.377306
0.60644513,0.31362477,-0.12935406,-22.006285,-36.260094,-25.701221
0.5825703,0.19675279,-0.11715446,-22.176428,-35.545532,-25.886036
0.5544317,0.095572606,-0.103539765,-22.134523,-34.875134,-25.989895
0.5330973,0.0038506642,-0.08470651,-22.01567,-34.22566,-25.911873
0.52014685,-0.08369971,-0.058981363,-21.873451,-33.520004,-25.644789
0.506866,-0.17181192,-0.031693824,-21.49198,-32.717133,-25.273478
0.48655823,-0.2511498,-0.010497337,-20.8777,-31.923712,-24.862017
0.45943657,-0.31469557,0.0060040415,-20.147757,-31.170458,-24.339773
0.42866546,-0.36408877,0.02042733,-19.403254,-30.481144,-23.65809
0.38963106,-0.39922008,0.031637594,-18.559263,-29.902046,-22.925262
0.34807652,-0.41813862,0.04279483,-17.717958,-29.522327,-22.150768
0.31746873,-0.42355755,0.05843703,-16.888887,-29.253845,-21.450182
0.2867886,-0.42864022,0.06612118,-16.071573,-29.156597,-20.828667
0.25999206,-0.4412779,0.06931348,-15.304167,-29.244076,-20.200462
0.24933879,-0.45638007,0.08150615,-14.540584,-29.176294,-19.449959
0.24917017,-0.4690328,0.0994924,-13.85967,-28.675066,-18.49063
0.2545922,-0.48111722,0.118251935,-13.158471,-27.885784,-17.381367
0.26526165,-0.4887434,0.14015618,-12.518462,-26.781448,-16.073244
0.25690496,-0.47334623,0.13574076,-12.124086,-25.937737,-15.566879
0.2488175,-0.45844513,0.1314676,-11.742415,-25.121208,-15.076829
0.24099006,-0.4440231,0.12733181,-11.373016,-24.33093,-14.602533
0.23341379,-0.43006384,0.12332874,-11.01547,-23.566011,-14.143456
0.22608016,-0.41655168,0.11945388,-10.669375,-22.825592,-13.699084
0.21898103,-0.40347156,0.11570291,-10.334346,-22.108847,-13.268919
0.21210851,-0.39080897,0.11207168,-10.010012,-21.41498,-12.852487
0.20545503,-0.37854996,0.10855618,-9.696015,-20.743229,-12.4493265
0.19901331,-0.36668113,0.10515258,-9.392013,-20.09286,-12.058997
0.19277634,-0.35518953,0.10185715,-9.0976715,-19.46316,-11.681075
0.18673736,-0.34406275,0.09866633,-8.8126745,-18.853449,-11.315149
0.18088984,-0.3332887,0.09557669,-8.536714,-18.26307,-10.960825
0.17522752,-0.32285592,0.092584886,-8.269492,-17.691387,-10.6177225
0.16974433,-0.31275317,0.08968774,-8.010725,-17.137793,-10.285475
0.16443445,-0.30296972,0.08688216,-7.760136,-16.601694,-9.963728
0.15929224,-0.2934952,0.08416517,-7.51746,-16.082523,-9.652142
0.15431224,-0.2843196,0.081533894,-7.2824397,-15.579732,-9.350385
0.14948924,-0.27543324,0.078985564,-7.0548286,-15.092791,-9.05814
0.14481816,-0.2668268,0.07651751,-6.8343863,-14.621186,-8.775101
0.1402941,-0.25849125,0.07412713,-6.620883,-14.164427,-8.50097
0.13591234,-0.2504179,0.071811944,-6.4140954,-13.722034,-8.235462
0.13166833,-0.2425983,0.069569536,-6.213808,-13.293548,-7.9783
0.12755764,-0.23502436,0.06739757,-6.0198126,-12.878523,-7.7292175
0.12357601,-0.22768824,0.065293804,-5.831908,-12.476528,-7.487955
0.11971933,-0.22058232,0.06325605,-5.6499004,-12.087149,-7.254264
0.11598362,-0.2136993,0.061282214,-5.4736013,-11.709983,-7.0279026
0.11236503,-0.20703205,0.05937026,-5.3028297,-11.344641,-6.8086376
0.10885983,-0.20057374,0.05751822,-5.137409,-10.990748,-6.5962443
0.105464436,-0.19431774,0.055724196,-4.977171,-10.647941,-6.390504
0.102175355,-0.18825762,0.053986344,-4.8219495,-10.315867,-6.1912055
0.09898922,-0.18238719,0.052302893,-4.671587,-9.994187,-5.998145
0.095902786,-0.17670046,0.050672114,-4.525929,-9.682574,-5.811126
0.0929129,-0.17119159,0.049092345,-4.3848276,-9.380708,-5.6299567
0.0900165,-0.16585499,0.047561977,-4.2481384,-9.088281,-5.454453
0.08721065,-0.16068523,0.046079453,-4.115722,-8.804996,-5.2844353
0.0844925,-0.15567704,0.04464326,-3.9874444,-8.530563,-5.1197314
0.08185927,-0.15082534,0.043251947,-3.863175,-8.264707,-4.960174
0.0793083,-0.14612518,0.04190409,-3.7427876,-8.007155,-4.805601
0.076837,-0.14157183,0.040598337,-3.62616,-7.757647,-4.6558557
0.07444288,-0.13716066,0.03933335,-3.513174,-7.51593,-4.510786
0.07212349,-0.1328872,0.038107857,-3.4037156,-7.2817593,-4.370245
0.0698765,-0.12874714,0.036920615,-3.2976735,-7.054898,-4.2340913
0.06769963,-0.12473627,0.035770427,-3.194941,-6.8351164,-4.102186
0.065590695,-0.120850556,0.034656126,-3.095414,-6.622193,-3.9743974
0.06354755,-0.117086075,0.03357659,-2.9989922,-6.415912,-3.8505952
0.061568137,-0.113439016,0.032530732,-2.9055781,-6.216066,-3.730655
0.059650466,-0.10990571,0.03151749,-2.8150775,-6.0224533,-3.6144557
0.057792597,-0.1064826,0.03053585,-2.7273993,-5.8348784,-3.5018802
0.055992663,-0.10316623,0.02958482,-2.6424553,-5.653153,-3.392815
0.054248847,-0.09995326,0.02866344,-2.5601597,-5.477093,-3.2871506
0.052559398,-0.096840456,0.027770787,-2.4804296,-5.3065224,-3.1847801
0.050922614,-0.093824685,0.02690596,-2.4031851,-5.1412683,-3.0856009
0.049336847,-0.09090292,0.02606809,-2.3283482,-4.981166,-2.9895132
0.047800504,-0.08807222,0.025256332,-2.2558436,-4.826053,-2.8964202
0.04631204,-0.085329734,0.024469875,-2.1855989,-4.675774,-2.8062284
0.044869967,-0.08267271,0.023707924,-2.117543,-4.5301785,-2.7188473
0.043472823,-0.08009848,0.022969717,-2.0516078,-4.38912,-2.634189
0.042119212,-0.07760446,0.02225451,-1.9877272,-4.252456,-2.5521684
0.040807776,-0.075188145,0.021561587,-1.9258367,-4.1200504,-2.4727032
0.0395372,-0.07284711,0.020890253,-1.8658744,-3.9917698,-2.395714
0.038306203,-0.070579,0.020239832,-1.8077801,-3.8674855,-2.3211231
0.03711355,-0.06838155,0.019609671,-1.7514956,-3.7470727,-2.2488556
0.03595805,-0.06625255,0.01899914,-1.6969643,-3.6304107,-2.1788394
0.034838546,-0.064189866,0.018407628,-1.6441314,-3.5173826,-2.111004
0.03375391,-0.062191423,0.017834537,-1.5929443,-3.407875,-2.0452816
0.032703053,-0.060255226,0.017279297,-1.5433513,-3.301778,-1.9816061
0.031684924,-0.05837933,0.01674135,-1.4953029,-3.1989853,-1.9199139
0.030698504,-0.056561857,0.016220156,-1.448751,-3.099394,-1.8601428
0.029742803,-0.054800984,0.015715193,-1.4036487,-3.0029044,-1.8022332
0.028816866,-0.053094946,0.015225955,-1.359951,-2.9094195,-1.746127
0.027919762,-0.051442035,0.014751953,-1.3176141,-2.8188457,-1.6917679
0.027050594,-0.0498406,0.01429271,-1.2765956,-2.7310925,-1.6391016
0.02620849,-0.048289027,0.013847769,-1.2368543,-2.6460717,-1.5880753
0.025392609,-0.046785768,0.013416682,-1.1983504,-2.5636983,-1.5386378
0.024602132,-0.045329317,0.012999018,-1.1610456,-2.4838898,-1.4907397
0.023836268,-0.043918215,0.012594359,-1.1249022,-2.4065664,-1.444333
0.02309425,-0.04255105,0.012202299,-1.0898843,-2.3316505,-1.3993711
0.022375336,-0.041226454,0.011822446,-1.0559566,-2.259067,-1.3558093
0.021678803,-0.0399431,0.01145442,-1.0230852,-2.1887436,-1.3136038
0.021003958,-0.038699698,0.011097852,-0.9912374,-2.1206098,-1.2727122
0.020350125,-0.037495013,0.010752386,-0.96038103,-2.0545971,-1.2330939
0.019716647,-0.03632783,0.010417676,-0.93048537,-1.9906396,-1.194709
0.01910289,-0.03519699,0.010093385,-0.9015205,-1.9286733,-1.157519
0.018508242,-0.034101352,0.009779192,-0.8734573,-1.8686363,-1.121487
0.017932106,-0.033039827,0.0094747795,-0.8462678,-1.8104682,-1.0865767
0.017373908,-0.032011345,0.009179844,-0.81992483,-1.7541112,-1.0527532
0.016833086,-0.031014886,0.008894091,-0.7944019,-1.6995085,-1.0199827
0.016309101,-0.030049447,0.008617233,-0.7696735,-1.6466057,-0.98823243
0.01580143,-0.029114062,0.008348994,-0.745715,-1.59535,-0.9574706
0.015309561,-0.028207798,0.0080891065,-0.72250235,-1.5456898,-0.92766637
0.014833005,-0.027329745,0.007837309,-0.7000123,-1.4975755,-0.89879
0.014371285,-0.026479028,0.0075933496,-0.67822236,-1.4509592,-0.87081254
0.013923937,-0.025654793,0.007356985,-0.65711075,-1.4057939,-0.843706
0.013490517,-0.024856215,0.0071279784,-0.6366564,-1.3620347,-0.8174433
0.013070588,-0.024082499,0.0069061005,-0.61683875,-1.3196377,-0.7919982
0.012663731,-0.023332868,0.00669113,-0.597638,-1.2785605,-0.76734513
0.01226954,-0.02260657,0.006482851,-0.579035,-1.2387619,-0.7434595
0.011887619,-0.021902883,0.006281056,-0.561011,-1.2002023,-0.7203175
0.011517587,-0.021221103,0.0060855425,-0.54354817,-1.1628431,-0.69789577
0.0111590745,-0.020560544,0.005896115,-0.5266289,-1.1266468,-0.6761721
