ax,ay,az,gx,gy,gz
-0.27363884,2.392749,-3.8063982,0.16636515,-23.914762,-2.2745662
0.009686928,2.4905443,-4.012995,-12.185262,-24.647205,-4.157294
0.054385,2.2609205,-4.2624807,-19.88493,-24.98614,-6.738971
-0.1334767,1.900828,-4.6667852,-21.113146,-28.282684,-8.929273
-0.4139544,1.5437348,-5.045067,-19.70513,-34.08261,-10.117998
-0.62893337,1.2541713,-5.3536944,-17.716745,-42.957073,-9.9586315
-0.72357106,1.0157924,-5.539569,-15.29256,-51.800728,-9.408471
-0.75466436,0.83046156,-5.6593823,-13.06406,-60.2323,-8.463908
-0.7677434,0.67796105,-5.74883,-11.094363,-68.39209,-7.3476486
-0.7635929,0.53239197,-5.7959113,-9.429456,-76.223076,-6.195019
-0.75616884,0.40690014,-5.8114033,-7.844013,-84.171524,-5.3040514
-0.76149577,0.3124849,-5.827738,-6.7054977,-91.95886,-4.726132
-0.77291983,0.23909375,-5.842349,-5.9869266,-99.994835,-4.2102504
-0.7555089,0.17159608,-5.8366175,-5.3633757,-108.06707,-3.8346412
-0.68520206,0.08304378,-5.7889957,-4.1083,-115.45597,-3.8483107
-0.597083,-0.03677475,-5.7202244,-2.0817842,-122.15387,-4.0196176
-0.55975527,-0.16223559,-5.630369,0.9688474,-128.08992,-4.004637
-0.5524905,-0.20723386,-5.520727,4.583087,-133.52675,-3.876476
-0.49925864,-0.16516872,-5.352653,8.400771,-138.1612,-3.7860143
-0.37132624,-0.05531611,-5.151507,12.048704,-142.63654,-3.4964826
-0.16082919,0.075706504,-4.8919406,14.77281,-147.04459,-3.0888777
0.13952698,0.19793315,-4.523597,16.410246,-150.69917,-2.4376607
0.4870915,0.31056827,-4.0908237,17.217093,-153.26236,-1.5793253
0.86311525,0.4068993,-3.6066504,17.469706,-154.63661,-0.8657088
1.2450646,0.4739985,-3.0888648,17.124914,-154.58002,-0.30413866
1.5972335,0.4967506,-2.5726814,16.686676,-152.3924,0.107065745
1.8704927,0.48667574,-2.1023874,16.421751,-149.0154,0.56944644
2.0762236,0.5052588,-1.6864649,16.05637,-144.87823,1.073468
2.220306,0.55541706,-1.31855,15.654052,-140.23465,1.6002485
2.3136065,0.6363894,-0.9953269,15.068086,-135.2332,1.9989412
2.3644388,0.72359306,-0.71907586,14.067415,-129.87518,2.1360683
2.3719893,0.8031975,-0.49979925,12.84933,-124.47146,2.1931932
2.3504183,0.87694764,-0.32851884,11.555888,-118.99417,2.0516722
2.309658,0.9463013,-0.19960698,10.237111,-113.60544,1.7230929
2.2586029,1.0117656,-0.110650875,8.775273,-108.297585,1.2579606
2.2039893,1.0683188,-0.051400043,7.199838,-103.0522,0.63222086
2.146689,1.1279905,-0.024493217,5.413154,-98.034904,-0.047303904
2.0877283,1.1831138,-0.012478532,3.4202754,-93.17598,-0.8484255
2.026839,1.2357684,-0.017671298,1.4443963,-88.47198,-1.789173
1.9598929,1.2904792,-0.03750195,-0.4876058,-83.987114,-2.8284748
1.8930974,1.3603388,-0.06159674,-2.7261794,-79.66021,-3.9812455
1.8262303,1.4421843,-0.0954376,-5.246903,-75.54163,-5.395094
1.7556711,1.5031986,-0.14257449,-7.7473016,-71.65516,-7.16313
1.6792165,1.5299971,-0.1986342,-10.012112,-68.05577,-9.181617
1.6010169,1.5352474,-0.25314346,-12.105583,-64.78078,-11.193064
1.52825,1.5367678,-0.30220535,-14.141004,-61.795803,-13.183814
1.4581739,1.5359129,-0.35090026,-16.048218,-59.058247,-15.246252
1.392076,1.5347841,-0.39106646,-17.800522,-56.503048,-17.377752
1.3274987,1.5358143,-0.42372662,-19.682446,-54.195812,-19.4926
1.2639786,1.5314468,-0.45187664,-21.771524,-52.132763,-21.519833
1.2081269,1.5193237,-0.47714254,-23.894505,-50.333286,-23.638958
1.1635526,1.4874291,-0.49388507,-26.005457,-48.67475,-25.690893
1.1256504,1.4399766,-0.50665045,-28.07899,-47.130215,-27.642376
1.0937631,1.3799715,-0.5155765,-30.102993,-45.686375,-29.421053
1.0645193,1.3118951,-0.5227461,-32.061832,-44.362946,-31.020355
1.035692,1.2360615,-0.5285627,-33.906284,-43.182915,-32.500355
1.0123221,1.1489843,-0.5266041,-35.65938,-42.05795,-33.86017
0.99120575,1.0507973,-0.52268434,-37.333145,-40.977623,-35.08682
0.97228336,0.93469656,-0.51717347,-38.85721,-39.908104,-36.098045
0.9541637,0.801842,-0.50827545,-40.205845,-38.814957,-36.731388
0.93281746,0.665454,-0.4998536,-40.914158,-37.681034,-37.261127
0.9108255,0.5282357,-0.48906997,-41.10332,-36.5789,-37.92456
0.8917634,0.39317036,-0.47837037,-40.808537,-35.580173,-38.703022
0.87071574,0.26044902,-0.47697195,-40.19134,-34.848167,-39.602177
0.85392994,0.12658955,-0.47549284,-39.50502,-34.40837,-40.41351
0.8486342,-0.008833415,-0.45823443,-38.873466,-34.126667,-40.911022
0.8708231,-0.15148444,-0.40015593,-38.079494,-33.55132,-40.883076
0.90908974,-0.28503045,-0.3173908,-37.28502,-32.452618,-40.065292
0.951723,-0.39987546,-0.23284069,-36.562057,-31.02242,-38.73309
0.9973619,-0.5015667,-0.14697438,-35.896385,-29.427937,-37.159374
1.0515417,-0.60595125,-0.050437015,-35.27814,-27.354086,-35.138653
1.0181073,-0.5866847,-0.04883334,-34.15645,-26.484346,-34.021397
0.9857781,-0.568055,-0.047282673,-33.07184,-25.643356,-32.941074
0.9545137,-0.5500389,-0.045783084,-32.022953,-24.830067,-31.896334
0.9242757,-0.5326142,-0.044332724,-31.008495,-24.043476,-30.88589
0.8950271,-0.5157597,-0.04292982,-30.027235,-23.282623,-29.90851
0.8667327,-0.49945503,-0.041572683,-29.077988,-22.54659,-28.963015
0.8393588,-0.4836808,-0.0402597,-28.159622,-21.834505,-28.04828
0.81287307,-0.4684184,-0.038989313,-27.271051,-21.145523,-27.163223
0.7872445,-0.45364994,-0.037760045,-26.411242,-20.47884,-26.306812
0.7624435,-0.43935832,-0.03657047,-25.579193,-19.833683,-25.478054
0.7384415,-0.4255272,-0.03541922,-24.77395,-19.209312,-24.675995
0.7152112,-0.4121407,-0.03430498,-23.994598,-18.605015,-23.899725
0.69272625,-0.39918378,-0.033226497,-23.240252,-18.020107,-23.148361
0.67096156,-0.38664183,-0.032182556,-22.510067,-17.453936,-22.421064
0.6498927,-0.3745009,-0.03117199,-21.80323,-16.905865,-21.71702
0.6294964,-0.36274752,-0.030193686,-21.118956,-16.37529,-21.035452
0.6097502,-0.35136876,-0.029246563,-20.45649,-15.861625,-20.375607
0.59063244,-0.34035215,-0.028329583,-19.81511,-15.364308,-19.736761
0.57212234,-0.3296857,-0.02744175,-19.194115,-14.882799,-19.118221
0.5541998,-0.31935784,-0.026582098,-18.592833,-14.4165745,-18.519318
0.5368455,-0.30935743,-0.025749702,-18.010614,-13.965133,-17.939402
0.52004087,-0.29967374,-0.02494367,-17.446835,-13.5279875,-17.377851
0.50376785,-0.2902964,-0.024163138,-16.900892,-13.104672,-16.834066
0.48800915,-0.28121546,-0.023407275,-16.372204,-12.6947365,-16.307468
0.47274807,-0.27242124,-0.02267528,-15.86021,-12.297745,-15.7975
0.45796844,-0.26390448,-0.021966377,-15.364369,-11.913279,-15.303619
0.44365472,-0.25565618,-0.021279821,-14.884158,-11.540931,-14.825307
0.42979187,-0.24766771,-0.020614892,-14.419074,-11.180311,-14.3620615
0.41636536,-0.23993067,-0.019970892,-13.968628,-10.831043,-13.913397
0.40336114,-0.23243701,-0.019347148,-13.532351,-10.492762,-13.478845
0.39076573,-0.2251789,-0.01874301,-13.109788,-10.1651125,-13.057952
0.378566,-0.2181488,-0.018157853,-12.7005,-9.847757,-12.650282
0.36674932,-0.21133943,-0.017591069,-12.304062,-9.540366,-12.255412
0.35530347,-0.20474376,-0.017042069,-11.920065,-9.242621,-11.872933
0.34421661,-0.19835494,-0.016510291,-11.548113,-8.954216,-11.502452
0.33347735,-0.19216643,-0.015995182,-11.187821,-8.674851,-11.143585
0.3230746,-0.18617186,-0.015496218,-10.83882,-8.404242,-10.795963
0.31299773,-0.18036506,-0.015012882,-10.5007515,-8.142109,-10.459231
0.3032364,-0.17474008,-0.014544681,-10.173268,-7.888184,-10.133043
0.29378057,-0.16929117,-0.014091134,-9.856035,-7.642207,-9.817065
0.28462064,-0.16401275,-0.01365178,-9.548729,-7.403927,-9.510974
0.27574724,-0.15889944,-0.013226168,-9.251036,-7.1731,-9.2144575
0.2671513,-0.15394603,-0.012813865,-8.96265,-6.949491,-8.927213
0.25882408,-0.14914748,-0.012414453,-8.683281,-6.732873,-8.648948
0.25075713,-0.14449888,-0.012027523,-8.412643,-6.5230246,-8.37938
0.24294224,-0.13999556,-0.011652682,-8.150461,-6.319733,-8.118235
0.23537147,-0.13563289,-0.011289552,-7.89647,-6.1227927,-7.8652477
0.22803715,-0.13140649,-0.010937762,-7.650411,-5.9320025,-7.620162
0.22093184,-0.12731205,-0.010596958,-7.4120355,-5.74717,-7.3827286
0.21404836,-0.12334544,-0.010266792,-7.181102,-5.5681076,-7.152708
0.20737973,-0.11950265,-0.009946933,-6.9573765,-5.3946347,-6.9298673
0.20091923,-0.11577977,-0.009637056,-6.740633,-5.2265754,-6.7139807
0.1946603,-0.11217307,-0.009336848,-6.5306525,-5.06376,-6.5048304
0.18859665,-0.108678885,-0.009046006,-6.3272233,-4.9060245,-6.3022056
0.18272215,-0.105293706,-0.008764236,-6.13014,-4.753209,-6.1059012
0.17703088,-0.1020141,-0.008491255,-5.9392033,-4.60516,-5.91572
0.17151709,-0.09883678,-0.008226788,-5.7542214,-4.461728,-5.7314696
0.16617523,-0.095758535,-0.007970566,-5.575008,-4.3227687,-5.552964
0.16099994,-0.09277627,-0.007722334,-5.4013815,-4.1881423,-5.380025
0.15598598,-0.08988698,-0.0074818404,-5.2331686,-4.0577126,-5.2124767
0.15112832,-0.08708775,-0.0072488436,-5.0701995,-3.9313488,-5.050152
0.14642207,-0.08437578,-0.0070231096,-4.9123096,-3.8089237,-4.8928866
0.14186251,-0.08174833,-0.006804411,-4.7593412,-3.6903145,-4.740523
0.13744505,-0.079202764,-0.006592528,-4.61114,-3.5754015,-4.5929074
0.13316526,-0.076736525,-0.006387248,-4.467557,-3.4640698,-4.449892
0.1290188,-0.07434713,-0.0061883647,-4.328448,-3.356207,-4.311333
0.12500156,-0.07203219,-0.005995678,-4.193673,-3.251705,-4.1770916
0.12110947,-0.06978938,-0.0058089946,-4.063098,-3.150459,-4.047033
0.11733864,-0.06761643,-0.0056281276,-3.9365904,-3.0523672,-3.9210253
0.11368529,-0.06551119,-0.005452895,-3.8140242,-2.9573314,-3.7989438
0.11014573,-0.06347152,-0.005283121,-3.6952758,-2.8652558,-3.680665
0.10671644,-0.061495386,-0.0051186355,-3.5802267,-2.7760484,-3.5660706
0.103393964,-0.05958081,-0.0049592736,-3.468761,-2.6896198,-3.4550455
0.10017497,-0.05772586,-0.0048048752,-3.360767,-2.6058831,-3.3474786
0.09705624,-0.055928692,-0.0046552857,-3.2561367,-2.5247545,-3.243262
0.094034635,-0.05418749,-0.0045103547,-3.154765,-2.4461527,-3.1422913
0.09110714,-0.05250052,-0.004369938,-3.0565505,-2.3699987,-3.044465
0.088270806,-0.050866082,-0.004233894,-2.9613945,-2.2962162,-2.9496853
0.0855228,-0.049282547,-0.004102086,-2.869202,-2.2247317,-2.8578572
0.08286037,-0.04774832,-0.003974383,-2.77988,-2.155473,-2.7688885
0.080280855,-0.04626187,-0.0038506573,-2.6933398,-2.0883713,-2.6826904
0.077781655,-0.044821706,-0.0037307837,-2.6094944,-2.0233588,-2.5991766
0.07536028,-0.043426387,-0.0036146427,-2.5282598,-1.9603708,-2.518263
0.0730143,-0.042074516,-0.0035021182,-2.4495544,-1.8993441,-2.439869
0.07074136,-0.040764738,-0.0033930973,-2.3732998,-1.8402175,-2.363916
0.0685392,-0.03949574,-0.003287471,-2.2994194,-1.7829319,-2.2903278
0.0664056,-0.038266253,-0.0031851332,-2.2278395,-1.7274299,-2.2190306
0.06433843,-0.037075046,-0.0030859818,-2.158488,-1.673656,-2.1499536
0.062335625,-0.035920925,-0.0029899175,-2.091296,-1.6215563,-2.0830271
0.060395174,-0.03480274,-0.002896844,-2.0261958,-1.5710788,-2.0181842
0.058515135,-0.03371937,-0.0028066682,-1.9631224,-1.5221727,-1.9553603
0.05669363,-0.032669723,-0.0027192999,-1.9020127,-1.4747893,-1.8944923
0.054928828,-0.031652756,-0.0026346517,-1.8428055,-1.4288809,-1.8355192
0.053218972,-0.030667452,-0.0025526388,-1.7854416,-1.3844019,-1.7783821
0.051562347,-0.02971282,-0.002473179,-1.7298635,-1.3413076,-1.7230238
0.049957298,-0.02878791,-0.002396193,-1.6760157,-1.299555,-1.6693889
0.048402213,-0.027891792,-0.0023216037,-1.6238443,-1.2591021,-1.6174237
0.04689554,-0.027023572,-0.0022493366,-1.573297,-1.2199085,-1.5670763
0.04543577,-0.02618238,-0.002179319,-1.5243233,-1.1819351,-1.5182962
0.044021446,-0.025367375,-0.002111481,-1.4768742,-1.1451439,-1.4710346
0.04265115,-0.024577742,-0.002045755,-1.4309021,-1.1094979,-1.4252445
0.041323513,-0.023812689,-0.0019820752,-1.3863612,-1.0749617,-1.3808796
0.040037204,-0.023071453,-0.0019203776,-1.3432069,-1.0415004,-1.337896
0.038790938,-0.022353292,-0.0018606007,-1.301396,-1.0090809,-1.2962503
0.037583467,-0.021657487,-0.0018026845,-1.2608865,-0.9776706,-1.2559011
0.036413584,-0.02098334,-0.0017465713,-1.2216382,-0.9472381,-1.216808
0.03528012,-0.020330181,-0.0016922049,-1.1836116,-0.9177529,-1.1789317
0.034181938,-0.019697353,-0.0016395308,-1.1467688,-0.88918555,-1.1422344
0.033117943,-0.019084226,-0.0015884963,-1.1110728,-0.8615075,-1.1066797
