ax,ay,az,gx,gy,gz
-0.64364225,-2.2972937,-4.0191274,-15.25923,-53.045937,-2.4418404
-0.43940836,-2.2604659,-4.2792177,-0.57297856,-55.36922,-2.8488193
-0.40566713,-1.720305,-4.3793287,6.949671,-59.21224,-2.6184604
-0.45740303,-1.1586416,-4.4353094,9.671033,-64.03636,-1.2153552
-0.5494663,-0.68181926,-4.4751043,7.3053055,-69.99538,0.9393167
-0.6453732,-0.39157987,-4.489981,2.1166496,-75.865906,3.4201236
-0.71382904,-0.25576347,-4.504114,-3.5865386,-81.65907,5.475664
-0.75155026,-0.24523728,-4.5093775,-7.185662,-86.33848,5.968693
-0.74294406,-0.26398563,-4.5285597,-8.951001,-89.95076,5.3319507
-0.7077026,-0.2712199,-4.573224,-11.079586,-93.210335,4.838495
-0.71314025,-0.32268733,-4.63719,-13.672585,-96.7391,4.7856545
-0.753534,-0.43591952,-4.709284,-14.808291,-101.00376,4.6678267
-0.73954225,-0.546716,-4.7475805,-14.795442,-105.19287,4.733978
-0.6836472,-0.5962104,-4.764053,-14.591961,-109.28706,4.7955394
-0.63263035,-0.6247563,-4.764544,-14.501049,-113.577965,4.849159
-0.59766704,-0.6652463,-4.7259073,-14.547674,-117.874,4.957591
-0.54599637,-0.70814824,-4.659979,-14.317339,-122.02931,5.4456697
-0.4356491,-0.7313735,-4.5514526,-13.770919,-125.88624,6.0002174
-0.28779203,-0.73611456,-4.423297,-13.481558,-129.46136,6.5096445
-0.15319133,-0.7759396,-4.28599,-13.229986,-132.85918,6.9670563
-0.04006913,-0.8566526,-4.144399,-12.587963,-135.93634,7.6225114
0.075243905,-0.92195386,-3.978991,-11.025682,-138.61221,8.661775
0.22750053,-0.904976,-3.7548332,-9.75736,-141.12648,9.842561
0.40625402,-0.8422002,-3.4827266,-8.799849,-143.30342,10.761036
0.58473396,-0.7768969,-3.1875432,-8.301907,-144.97536,11.211316
0.75342506,-0.74238133,-2.8951106,-8.031425,-146.14635,11.338953
0.9286966,-0.7505591,-2.6018438,-7.8566556,-146.57932,11.474216
1.12113,-0.79713243,-2.278701,-7.290719,-146.17766,11.968391
1.3096151,-0.8058687,-1.949792,-6.5746217,-144.945,12.709375
1.4621574,-0.7720687,-1.6374896,-5.939084,-143.14757,13.324444
1.5807632,-0.709198,-1.3485174,-5.6400237,-141.03352,13.682623
1.6807866,-0.648197,-1.0759609,-5.7433324,-138.35957,13.806374
1.7575147,-0.5990837,-0.82663363,-5.8627806,-135.4018,13.771661
1.8136456,-0.55585396,-0.59589666,-5.891515,-132.22372,13.611417
1.8558344,-0.5087914,-0.38265675,-5.819145,-128.84993,13.362506
1.8826188,-0.44934362,-0.18890236,-5.8300576,-125.31906,13.000236
1.8908784,-0.38147733,-0.017608605,-5.962736,-121.5903,12.353881
1.8831471,-0.31463924,0.12913467,-6.1436243,-117.812706,11.545502
1.8786334,-0.25031644,0.26777938,-6.399283,-113.851555,10.633913
1.8732716,-0.19516374,0.39130652,-6.7522416,-109.708565,9.68935
1.8610604,-0.14790943,0.4940833,-7.115484,-105.44699,8.748534
1.8382443,-0.10192601,0.57059324,-7.3944716,-101.15,7.6530848
1.8023201,-0.062741615,0.6158044,-7.55259,-96.94322,6.4715323
1.7627001,-0.027445024,0.6460733,-7.6349607,-92.82222,5.2939043
1.7170694,0.008866518,0.6601411,-7.675353,-88.827805,4.089596
1.6670618,0.049146295,0.6603099,-7.7098126,-84.95205,2.774604
1.6139742,0.09073298,0.64742476,-7.7618003,-81.19823,1.3958777
1.5577952,0.13930787,0.6216183,-7.9100766,-77.62202,0.03964244
1.4960232,0.18692723,0.5826273,-8.166873,-74.2493,-1.2456695
1.4294,0.2349385,0.5339869,-8.579088,-71.04487,-2.4740417
1.3592337,0.29190597,0.47304216,-9.024656,-68.08672,-3.7760148
1.285994,0.36030802,0.40527952,-9.487888,-65.4964,-5.4273543
1.214269,0.4342612,0.33945805,-9.935548,-63.20028,-7.35233
1.1504955,0.5067319,0.28056785,-10.674993,-61.0676,-9.367373
1.0870066,0.56855696,0.21800403,-11.862089,-59.169926,-11.329743
1.0290229,0.6139155,0.15348618,-13.3619995,-57.539528,-13.233965
0.9795985,0.6431516,0.09398428,-14.809227,-56.155224,-15.454116
0.93871117,0.6564196,0.045120467,-15.950141,-54.86295,-17.950092
0.8989618,0.6595095,0.0059784516,-16.854755,-53.65483,-20.645782
0.8583122,0.6582877,-0.031609863,-17.852468,-52.670586,-23.22181
0.81831634,0.6620788,-0.067580424,-19.374086,-52.044178,-25.42746
0.7827984,0.67101794,-0.09778853,-21.623508,-51.72444,-27.506493
0.7523935,0.6872088,-0.11750946,-23.051085,-51.411877,-30.994612
0.7340018,0.7208969,-0.11110874,-23.33905,-51.082573,-36.20627
0.7445549,0.77884614,-0.09106066,-25.192095,-50.896137,-40.77163
0.7441518,0.7859472,-0.10704904,-29.933321,-51.04531,-43.170414
0.7081891,0.6909906,-0.18473184,-35.904335,-51.90339,-43.967884
0.6827823,0.472174,-0.27892128,-40.6134,-52.951168,-44.74232
0.6958196,0.21028383,-0.34199965,-43.312363,-53.84093,-45.83185
0.74276286,-0.051707845,-0.36176953,-44.6112,-54.305813,-46.696144
0.8064181,-0.27937153,-0.348436,-45.09917,-54.21304,-46.886448
0.8667529,-0.45000675,-0.31986967,-45.295376,-53.578014,-46.47274
0.915821,-0.57324463,-0.2832612,-45.237,-52.611225,-45.983543
0.9443071,-0.6807204,-0.2551531,-44.826317,-51.4014,-45.611122
0.9515202,-0.7995255,-0.23585571,-44.170013,-50.037956,-45.190994
0.9422951,-0.91792405,-0.22247449,-43.28215,-48.63606,-44.469772
0.9291348,-1.0145986,-0.20576788,-42.477283,-47.268326,-43.03696
0.9218665,-1.0815355,-0.17766646,-41.65618,-45.867992,-41.427116
0.9241742,-1.1327319,-0.14066328,-40.852097,-44.312786,-39.79441
0.9346992,-1.1811994,-0.09609283,-39.89316,-42.51735,-37.900867
0.94352967,-1.2201315,-0.060648378,-38.401806,-40.824116,-35.71468
0.95012385,-1.2499708,-0.01913686,-36.614548,-39.23728,-32.980244
0.9202343,-1.2106485,-0.018534841,-35.462708,-38.002934,-31.942734
0.89130384,-1.172588,-0.01795214,-34.347824,-36.808193,-30.938513
0.8633,-1.1357465,-0.017388102,-33.268654,-35.65172,-29.966457
0.83619153,-1.1000829,-0.016842099,-32.223984,-34.53222,-29.025482
0.80994844,-1.0655578,-0.016313525,-31.212664,-33.448456,-28.114542
0.7845418,-1.0321331,-0.015801799,-30.233578,-32.399235,-27.23264
0.7599437,-0.99977225,-0.015306358,-29.285652,-31.38341,-26.378803
0.7361275,-0.9684399,-0.014826665,-28.367855,-30.39987,-25.552105
0.71306723,-0.9381022,-0.014362199,-27.479193,-29.447552,-24.75165
0.6907382,-0.90872633,-0.013912459,-26.618706,-28.525427,-23.976574
0.66911626,-0.8802808,-0.013476963,-25.785471,-27.632507,-23.226044
0.6481784,-0.8527353,-0.013055244,-24.978598,-26.767838,-22.49926
0.6279023,-0.8260603,-0.012646855,-24.197226,-25.930494,-21.795446
0.6082665,-0.8002276,-0.012251361,-23.440525,-25.119593,-21.113855
0.58925015,-0.7752099,-0.011868344,-22.7077,-24.334274,-20.453768
0.5708332,-0.75098085,-0.011497401,-21.997974,-23.57371,-19.81449
0.5529964,-0.727515,-0.011138142,-21.310604,-22.837103,-19.195347
0.535721,-0.70478773,-0.010790192,-20.64487,-22.123682,-18.595692
0.518989,-0.6827754,-0.010453185,-20.000076,-21.432701,-18.0149
0.502783,-0.6614549,-0.010126772,-19.375551,-20.76344,-17.452364
0.48708612,-0.64080423,-0.0098106135,-18.770645,-20.115204,-16.9075
0.47188205,-0.620802,-0.0095043825,-18.184732,-19.487322,-16.379744
0.4571551,-0.6014274,-0.00920776,-17.617207,-18.879143,-15.868549
0.44289008,-0.5826605,-0.008920442,-17.06748,-18.29004,-15.373388
0.42907226,-0.564482,-0.008642132,-16.534988,-17.719406,-14.893751
0.41568747,-0.54687315,-0.008372543,-16.019184,-17.166655,-14.429145
0.40272197,-0.52981585,-0.008111399,-15.519538,-16.631216,-13.979092
0.3901624,-0.5132927,-0.007858432,-15.035536,-16.112545,-13.543131
0.377996,-0.4972867,-0.0076133823,-14.566683,-15.610107,-13.120816
0.36621025,-0.48178154,-0.0073760008,-14.112501,-15.123392,-12.711716
0.3547932,-0.46676138,-0.0071460446,-13.672525,-14.651901,-12.315412
0.34373313,-0.45221093,-0.0069232793,-13.246308,-14.195154,-11.9315
0.33301884,-0.43811533,-0.006707478,-12.833416,-13.752686,-11.559591
0.3226394,-0.4244603,-0.006498421,-12.433428,-13.324046,-11.199305
0.31258428,-0.4112319,-0.0062958966,-12.045938,-12.908799,-10.850276
0.30284327,-0.39841676,-0.0060996986,-11.670552,-12.506525,-10.512151
0.2934065,-0.38600183,-0.0059096282,-11.3068905,-12.116814,-10.184586
0.2842644,-0.3739746,-0.0057254927,-10.954584,-11.739271,-9.8672495
0.27540767,-0.3623228,-0.0055471063,-10.6132765,-11.373515,-9.559819
0.2668274,-0.35103473,-0.0053742873,-10.282622,-11.0191765,-9.261985
0.2585149,-0.34009892,-0.005206862,-9.962288,-10.675896,-8.973446
0.25046182,-0.32950437,-0.0050446605,-9.651948,-10.343327,-8.693911
0.24265994,-0.31924033,-0.00488752,-9.351291,-10.021132,-8.423096
0.23510146,-0.30929646,-0.004735281,-9.060012,-9.708989,-8.160729
0.22777872,-0.29966277,-0.0045877905,-8.777819,-9.406582,-7.9065456
0.22068433,-0.2903295,-0.0044448995,-8.504425,-9.1136055,-7.6602893
0.21381119,-0.28128725,-0.0043064645,-8.239557,-8.829764,-7.4217114
0.20715232,-0.27252695,-0.0041723456,-7.982948,-8.554773,-7.1905723
0.20070107,-0.26403975,-0.004042408,-7.734338,-8.288356,-6.9666395
0.19445091,-0.25581715,-0.0039165206,-7.4934783,-8.030243,-6.7496867
0.18839557,-0.2478508,-0.0037945574,-7.260126,-7.780175,-6.539497
0.18252896,-0.24013276,-0.0036763954,-7.0340466,-7.537902,-6.335858
0.17684518,-0.23265526,-0.003561916,-6.815013,-7.303179,-6.1385655
0.17133853,-0.22541077,-0.0034510042,-6.602805,-7.0757704,-5.947421
0.16600347,-0.21839203,-0.0033435482,-6.39721,-6.855448,-5.762233
0.16083463,-0.21159197,-0.0032394403,-6.1980205,-6.6419907,-5.5828147
0.15582682,-0.20500378,-0.0031385762,-6.0050373,-6.4351835,-5.4089866
0.15097505,-0.19862084,-0.0030408544,-5.818066,-6.2348194,-5.240574
0.14627442,-0.19243675,-0.002946177,-5.6369195,-6.0406976,-5.077408
0.14172022,-0.18644531,-0.0028544487,-5.4614162,-5.8526225,-4.9193244
0.13730788,-0.18064049,-0.002765578,-5.2913795,-5.670406,-4.7661653
0.13303298,-0.17501648,-0.0026794754,-5.1266394,-5.4938655,-4.617777
0.12889123,-0.16956764,-0.0025960545,-4.9670305,-5.3228235,-4.4740105
0.124878466,-0.16428852,-0.0025152317,-4.812392,-5.1571083,-4.3347216
0.12099069,-0.1591738,-0.0024369264,-4.6625705,-4.996555,-4.199771
0.11722399,-0.15421839,-0.0023610597,-4.517415,-4.8410015,-4.069023
0.113574594,-0.14941728,-0.0022875555,-4.3767796,-4.6902924,-3.942347
0.11003885,-0.1447657,-0.0022163405,-4.240524,-4.544276,-3.8196158
0.106613204,-0.14025897,-0.0021473432,-4.108511,-4.4028077,-3.7007067
0.10329424,-0.13589258,-0.0020804943,-3.9806094,-4.265744,-3.5855002
0.10007862,-0.13166216,-0.002015727,-3.8566904,-4.132949,-3.4738812
0.09696313,-0.12756345,-0.0019529767,-3.73663,-4.004288,-3.3657377
0.09394465,-0.12359238,-0.0018921802,-3.620308,-3.879634,-3.2609615
0.09102015,-0.11974495,-0.0018332766,-3.5076077,-3.7588608,-3.159448
0.08818671,-0.11601731,-0.0017762071,-3.3984165,-3.6418483,-3.061095
0.08544149,-0.11240574,-0.0017209145,-3.2926252,-3.528479,-2.9658043
0.08278175,-0.10890661,-0.0016673433,-3.1901276,-3.4186394,-2.8734806
0.080204815,-0.105516426,-0.0016154402,-3.0908213,-3.3122199,-2.7840312
0.07770811,-0.1022318,-0.001565153,-2.994607,-3.2091134,-2.6973667
0.07528914,-0.09904943,-0.0015164315,-2.901388,-3.109217,-2.6134005
0.072945476,-0.09596614,-0.0014692267,-2.8110712,-3.0124307,-2.5320485
0.07067478,-0.092978835,-0.0014234915,-2.723566,-2.9186575,-2.4532292
0.06847477,-0.09008454,-0.0013791802,-2.6387854,-2.827804,-2.3768635
0.066343255,-0.08728034,-0.0013362485,-2.556644,-2.7397788,-2.3028755
0.0642781,-0.08456345,-0.0012946533,-2.4770598,-2.654494,-2.2311907
0.062277235,-0.08193114,-0.001254353,-2.3999534,-2.5718641,-2.1617377
0.06033866,-0.07938077,-0.0012153073,-2.3252473,-2.4918067,-2.0944467
0.058460433,-0.0769098,-0.0011774771,-2.2528667,-2.4142416,-2.0292506
0.056640677,-0.07451575,-0.0011408246,-2.1827395,-2.339091,-1.9660841
0.05487757,-0.07219623,-0.0011053132,-2.1147954,-2.2662802,-1.904884
0.05316935,-0.06994892,-0.0010709071,-2.0489664,-2.1957357,-1.845589
0.05151431,-0.06777156,-0.0010375722,-1.9851866,-2.1273873,-1.78814
0.049910784,-0.06566199,-0.001005275,-1.9233923,-2.0611665,-1.7324793
0.04835718,-0.06361809,-0.0009739831,-1.8635216,-1.9970074,-1.6785513
0.046851937,-0.06163781,-0.00094366533,-1.8055147,-1.9348453,-1.626302
0.045393553,-0.059719175,-0.00091429136,-1.7493135,-1.8746184,-1.5756793
0.043980565,-0.057860266,-0.0008858318,-1.6948617,-1.8162662,-1.5266323
0.04261156,-0.056059226,-0.00085825805,-1.642105,-1.7597305,-1.4791121
