ax,ay,az,gx,gy,gz
-0.05636415,1.3700124,-3.436395,28.132074,-13.761034,-10.265548
-0.30300054,1.3261715,-3.7187514,29.327017,-21.861433,-14.447714
-0.543759,1.123491,-3.910146,27.542166,-31.641264,-15.301611
-0.65667427,0.953964,-3.9404664,23.040848,-39.046383,-13.1395645
-0.6885051,0.9064199,-3.9070294,16.965374,-44.011166,-10.294077
-0.73211086,0.85140777,-3.9462457,11.854818,-48.07077,-7.984487
-0.8181596,0.76813954,-4.0298486,8.612224,-51.976963,-7.3675504
-0.92520666,0.63076943,-4.1109223,6.9854536,-56.43634,-7.6304994
-0.96318316,0.48126978,-4.1818714,6.83138,-61.063614,-8.007742
-0.93229777,0.39760655,-4.2296615,6.813208,-65.81103,-8.124614
-0.88861716,0.3386933,-4.287244,5.9670887,-70.70564,-7.554645
-0.87676096,0.24808659,-4.3643303,4.4328656,-75.80921,-6.3673987
-0.87629914,0.11123558,-4.436053,4.5717244,-81.46029,-5.3431606
-0.82019717,0.0151995225,-4.433496,6.405028,-86.84127,-4.557134
-0.71046454,0.043534122,-4.3612814,7.6393614,-91.644554,-3.4366794
-0.6149021,0.13120261,-4.269946,7.144621,-96.02371,-2.1573968
-0.56817585,0.16304411,-4.212662,6.220804,-100.279884,-1.1509383
-0.5337081,0.12209334,-4.207648,5.902695,-105.1933,-0.45166993
-0.47018307,0.044664264,-4.233979,6.417786,-111.17564,0.19494072
-0.32864305,0.03229844,-4.1843867,6.3900166,-117.73863,1.1306474
-0.12403982,0.06656525,-4.0279436,5.4989305,-123.209076,2.480164
0.07783163,0.09165283,-3.8400366,3.3036432,-127.0997,4.1695275
0.2164947,0.053891916,-3.6805317,1.2366023,-129.7845,5.306117
0.29830486,-0.03617412,-3.5429132,0.078610875,-131.97879,5.770407
0.3852857,-0.123113774,-3.3900123,-0.63078976,-133.9704,6.0956254
0.516339,-0.17968863,-3.185197,-1.1453277,-135.5028,6.560744
0.6895881,-0.19573231,-2.9209242,-1.6956345,-136.26935,7.1255307
0.86517364,-0.19407202,-2.6197348,-2.348858,-136.03397,7.491471
1.0284214,-0.19312151,-2.3024945,-2.8732533,-135.10147,7.726063
1.1892016,-0.18374705,-1.986786,-3.269751,-133.45671,7.9821553
1.345866,-0.16483091,-1.6768042,-3.705612,-131.57718,8.225379
1.499432,-0.14778906,-1.3737599,-4.289923,-129.37993,8.519016
1.6318831,-0.14207454,-1.0866612,-4.7167068,-126.664246,8.774108
1.7365454,-0.1364762,-0.8292464,-4.8098307,-123.59717,8.863669
1.8253791,-0.11517603,-0.5913326,-4.615933,-120.16254,8.763604
1.8978838,-0.07521288,-0.37583107,-4.188904,-116.39864,8.44891
1.956059,-0.021156682,-0.18260303,-3.725735,-112.45787,8.078556
2.0009773,0.043838225,-0.015006662,-3.5522664,-108.37833,7.8473554
2.0327952,0.114905864,0.12242381,-3.6533244,-104.29443,7.706217
2.047356,0.18734604,0.23027726,-3.908066,-100.181755,7.4467382
2.0430346,0.26043272,0.30423537,-4.290287,-96.176735,6.9804554
2.0219412,0.32986355,0.34842005,-4.7450495,-92.2692,6.4169765
1.9886591,0.3943741,0.36255795,-5.3793654,-88.49326,5.7438636
1.938446,0.44712546,0.34419766,-6.1066995,-84.801605,5.0267854
1.8739587,0.48373204,0.30015957,-6.7303915,-81.1947,4.2911434
1.8003598,0.5126533,0.23934169,-7.107345,-77.6563,3.4633262
1.7220308,0.5446615,0.1701254,-7.1253505,-74.23228,2.383138
1.6416355,0.59049505,0.096174955,-6.8035216,-71.12735,0.8883647
1.5611852,0.6628606,0.027980223,-6.6339865,-68.39226,-0.8732703
1.4847242,0.74098134,-0.031691067,-6.785676,-65.9617,-2.7391965
1.4154577,0.81379914,-0.08421487,-7.2526073,-63.796688,-4.7032986
1.3526818,0.87770754,-0.13166402,-7.922816,-61.829674,-6.806941
1.2929604,0.9335741,-0.17473708,-8.881541,-60.149506,-9.056949
1.236914,0.9765304,-0.21286488,-10.076285,-58.660385,-11.358397
1.1848402,1.0026836,-0.24593075,-11.418674,-57.307507,-13.778491
1.1403596,1.0166537,-0.27444622,-12.782138,-56.0407,-16.278692
1.1012825,1.0222552,-0.29784447,-14.24041,-54.890316,-18.725845
1.0667634,1.0235578,-0.31443265,-16.008034,-53.86753,-21.122597
1.035343,1.0123012,-0.3296425,-18.003454,-52.915264,-23.495298
1.0017818,0.992878,-0.350403,-20.156599,-52.181747,-25.93281
0.9765502,0.97323024,-0.36916468,-22.547081,-51.630695,-28.532177
0.962893,0.9502205,-0.38587648,-25.211775,-51.21757,-31.4024
0.96053725,0.8939797,-0.39706257,-28.229624,-50.799095,-34.091972
0.9684519,0.7762902,-0.40309015,-31.454185,-50.231728,-35.991974
0.97284526,0.62538344,-0.41598916,-34.51109,-49.512997,-37.076572
0.96803385,0.45779383,-0.43230093,-37.067772,-48.71884,-37.865475
0.95694417,0.2825619,-0.44943696,-38.723927,-47.781475,-38.692135
0.94347787,0.10681859,-0.4635309,-39.492348,-46.799633,-39.350277
0.92771757,-0.05643832,-0.47089145,-39.84703,-45.887836,-39.76408
0.9111135,-0.20217928,-0.47067168,-39.8726,-45.074665,-39.979153
0.9000933,-0.33577326,-0.46116206,-39.64859,-44.2847,-39.944126
0.89293635,-0.45867053,-0.44042617,-39.274815,-43.474365,-39.603653
0.8910331,-0.56474006,-0.40773755,-38.771927,-42.485367,-38.84998
0.8896366,-0.65259993,-0.36946538,-38.078472,-41.325684,-37.888844
0.88464284,-0.72471404,-0.33032706,-37.229904,-39.991405,-36.781384
0.8711734,-0.7883926,-0.29534912,-36.260372,-38.596485,-35.53244
0.85242146,-0.8368428,-0.26242906,-35.13336,-37.198833,-34.27411
0.83895385,-0.8663461,-0.22634786,-34.07194,-35.71555,-32.97766
0.83270746,-0.88249123,-0.18689346,-33.154743,-34.266914,-31.615421
0.8355858,-0.9000686,-0.14584693,-32.33265,-32.84978,-30.15101
0.8535874,-0.922812,-0.09465844,-31.5044,-31.37265,-28.508919
0.88457704,-0.9377396,-0.03022891,-30.625992,-29.766344,-26.48165
0.8567495,-0.90823966,-0.02927795,-29.662542,-28.829937,-25.648575
0.8298149,-0.8796863,-0.028357506,-28.730007,-27.923578,-24.842232
0.803743,-0.85204744,-0.027466543,-27.82734,-27.04625,-24.061714
0.77850467,-0.82529235,-0.026604068,-26.953535,-26.19697,-23.306152
0.754072,-0.79939127,-0.025769122,-26.107622,-25.374802,-22.57471
0.7304181,-0.7743158,-0.02496079,-25.288671,-24.578838,-21.866581
0.70751697,-0.7500383,-0.024178185,-24.495785,-23.808208,-21.180988
0.68534374,-0.7265325,-0.023420453,-23.7281,-23.06207,-20.517187
0.66387445,-0.7037729,-0.022686774,-22.984785,-22.33962,-19.874458
0.6430858,-0.68173486,-0.021976357,-22.265036,-21.640074,-19.252108
0.6229555,-0.6603948,-0.021288441,-21.568083,-20.962685,-18.649466
0.6034621,-0.63972986,-0.020622287,-20.893179,-20.306725,-18.065891
0.58458483,-0.619718,-0.019977188,-20.239605,-19.671495,-17.50076
0.5663036,-0.6003381,-0.019352458,-19.60667,-19.056326,-16.953474
0.5485991,-0.5815696,-0.018747438,-18.993702,-18.460564,-16.423454
0.5314528,-0.56339276,-0.01816149,-18.400057,-17.883583,-15.910141
0.5148465,-0.54578847,-0.017593998,-17.825111,-17.324776,-15.412998
0.4987629,-0.52873826,-0.01704437,-17.268263,-16.783556,-14.931502
0.4831852,-0.5122244,-0.016512029,-16.72893,-16.259361,-14.465152
0.4680972,-0.49622956,-0.015996423,-16.206549,-15.751644,-14.013461
0.45348316,-0.48073724,-0.015497013,-15.70058,-15.259877,-13.57596
0.439328,-0.46573135,-0.015013284,-15.210497,-14.78355,-13.152196
0.42561704,-0.45119637,-0.014544736,-14.735793,-14.322171,-12.74173
0.41233614,-0.43711728,-0.014090883,-14.275979,-13.875263,-12.344137
0.39947158,-0.4234796,-0.013651259,-13.83058,-13.442367,-11.959011
0.3870102,-0.41026926,-0.013225412,-13.399139,-13.023036,-11.585953
0.3749391,-0.39747274,-0.012812904,-12.981213,-12.61684,-11.224581
0.36324602,-0.3850769,-0.012413313,-12.576372,-12.223363,-10.874523
0.35191894,-0.37306905,-0.012026229,-12.184203,-11.842202,-10.535423
0.3409463,-0.36143696,-0.011651257,-11.804306,-11.472968,-10.206934
0.33031684,-0.3501687,-0.011288014,-11.436292,-11.115284,-9.8887205
0.3200198,-0.3392528,-0.01093613,-11.079785,-10.7687845,-9.580457
0.31004468,-0.32867816,-0.010595246,-10.734425,-10.433118,-9.28183
0.30038127,-0.31843403,-0.010265017,-10.399857,-10.107942,-8.992537
0.29101983,-0.30850995,-0.009945106,-10.075744,-9.792925,-8.712283
0.28195083,-0.29889593,-0.009635188,-9.761755,-9.48775,-8.4407835
0.27316508,-0.28958213,-0.00933495,-9.457572,-9.192105,-8.177763
0.26465365,-0.28055918,-0.009044087,-9.162889,-8.905693,-7.922956
0.25640795,-0.2718179,-0.008762303,-8.877404,-8.628222,-7.6761036
0.24841961,-0.26334947,-0.008489315,-8.60083,-8.359412,-7.4369564
0.24068059,-0.25514534,-0.008224848,-8.332889,-8.09899,-7.2052727
0.23318304,-0.2471972,-0.007968632,-8.073307,-7.8466954,-6.9808183
0.22591941,-0.23949704,-0.00772041,-7.821824,-7.6022716,-6.763366
0.21888235,-0.23203705,-0.0074799308,-7.578186,-7.3654723,-6.5526977
0.21206479,-0.22480977,-0.007246952,-7.342147,-7.136059,-6.3485994
0.20545985,-0.21780786,-0.007021239,-7.113469,-6.9138,-6.1508665
0.19906086,-0.21102428,-0.0068025645,-6.891922,-6.6984715,-5.9592996
0.19286138,-0.20445223,-0.006590708,-6.677283,-6.4898567,-5.7737055
0.18685517,-0.19808505,-0.0063854563,-6.4693346,-6.2877455,-5.5938973
0.1810362,-0.19191636,-0.0061866026,-6.267869,-6.091935,-5.4196944
0.1753986,-0.18593995,-0.0059939474,-6.0726833,-5.902228,-5.2509212
0.16993672,-0.18014981,-0.005807297,-5.8835807,-5.7184334,-5.087408
0.16464505,-0.17454012,-0.0056264633,-5.7003717,-5.5403666,-4.9289913
0.15951829,-0.16910523,-0.005451265,-5.522872,-5.3678493,-4.775511
0.15455127,-0.16383971,-0.0052815257,-5.350903,-5.2007074,-4.626813
0.14973903,-0.15873824,-0.005117075,-5.1842923,-5.0387735,-4.482748
0.1450767,-0.15379572,-0.0049577486,-5.022873,-4.8818846,-4.343172
0.14055964,-0.14900719,-0.0048033856,-4.8664823,-4.7298837,-4.2079444
0.13618329,-0.14436783,-0.0046538315,-4.7149634,-4.582618,-4.0769296
0.13194327,-0.13987298,-0.004508936,-4.568165,-4.43994,-3.9499958
0.12783533,-0.13551816,-0.004368554,-4.4259386,-4.3017063,-3.8270159
0.123855345,-0.13129897,-0.004232545,-4.288143,-4.167778,-3.7078667
0.11999932,-0.12721121,-0.0041007716,-4.1546392,-4.0380216,-3.5924287
0.1162634,-0.12325076,-0.003973103,-4.0252934,-3.9123063,-3.480586
0.11264383,-0.11941366,-0.0038494105,-3.8999758,-3.7905066,-3.3722267
0.109136984,-0.11569605,-0.00372957,-3.778561,-3.6725,-3.2672422
0.105739355,-0.11209422,-0.0036134617,-3.6609278,-3.5581684,-3.1655269
0.10244753,-0.108604565,-0.0035009691,-3.5469575,-3.4473972,-3.0669794
0.099258214,-0.105223574,-0.00339198,-3.4365366,-3.3400755,-2.9715006
0.09616821,-0.10194787,-0.0032863843,-3.3295538,-3.236096,-2.878995
0.09317443,-0.09877416,-0.003184077,-3.2259026,-3.135354,-2.7893698
0.09027387,-0.09569927,-0.0030849553,-3.125479,-3.037749,-2.7025356
0.087463625,-0.092720136,-0.00298892,-3.028182,-2.9431834,-2.618405
0.084740885,-0.08983376,-0.002895875,-2.933915,-2.851562,-2.5368943
0.08210292,-0.08703726,-0.002805727,-2.8425827,-2.7627935,-2.4579213
0.079547085,-0.08432782,-0.0027183858,-2.7540941,-2.6767888,-2.381407
0.07707083,-0.08170275,-0.002633764,-2.6683607,-2.593462,-2.3072753
0.07467167,-0.079159394,-0.0025517768,-2.5852966,-2.5127294,-2.2354515
0.07234721,-0.07669523,-0.0024723422,-2.5048187,-2.4345105,-2.165864
0.070095114,-0.07430779,-0.002395381,-2.4268463,-2.3587267,-2.0984428
0.06791314,-0.07199468,-0.0023208156,-2.3513014,-2.2853022,-2.0331206
0.065799095,-0.06975358,-0.0022485715,-2.2781084,-2.2141638,-1.9698323
0.06375086,-0.06758225,-0.0021785768,-2.207194,-2.14524,-1.9085143
0.061766393,-0.06547852,-0.002110761,-2.1384876,-2.078462,-1.8491051
0.059843708,-0.06344028,-0.0020450563,-2.07192,-2.013763,-1.7915455
0.057980876,-0.061465494,-0.0019813974,-2.0074248,-1.9510779,-1.7357779
0.056176037,-0.059552185,-0.0019197201,-1.9449373,-1.8903445,-1.6817462
0.054427385,-0.05769844,-0.0018599629,-1.8843951,-1.8315017,-1.6293968
0.05273317,-0.055902403,-0.001802066,-1.8257377,-1.7744907,-1.5786769
0.051091697,-0.05416228,-0.0017459715,-1.7689064,-1.7192545,-1.529536
0.049501322,-0.052476324,-0.0016916231,-1.7138441,-1.6657379,-1.4819248
0.047960456,-0.05084285,-0.0016389667,-1.6604959,-1.6138871,-1.4357958
0.046467558,-0.04926023,-0.0015879493,-1.6088085,-1.5636505,-1.3911028
0.04502113,-0.047726873,-0.0015385202,-1.5587301,-1.5149777,-1.347801
0.043619733,-0.046241254,-0.0014906299,-1.5102105,-1.4678202,-1.3058472
0.042261958,-0.044801876,-0.0014442302,-1.4632014,-1.4221305,-1.2651994
0.04094645,-0.043407306,-0.0013992749,-1.4176556,-1.3778632,-1.2258168
0.03967189,-0.042056147,-0.001355719,-1.3735276,-1.3349738,-1.1876603
