ax,ay,az,gx,gy,gz
-1.9354721,0.60455096,-4.040946,-25.412958,-4.716407,-13.039209
-2.055317,0.46706596,-4.105771,-22.95965,-11.164717,-13.92248
-1.8302909,0.24955398,-4.113601,-22.423632,-15.84102,-11.08008
-1.5122147,0.16030839,-4.0588617,-23.418865,-17.581106,-6.75382
-1.240282,0.050347064,-3.9718764,-22.1942,-17.556423,-3.6991355
-1.1260474,-0.0015087145,-3.952038,-19.238354,-18.317606,-1.8951076
-1.0977806,0.010981165,-3.9357617,-15.595189,-20.085054,-0.8057978
-1.118543,0.075198695,-3.889798,-12.385161,-22.638573,-0.029586354
-1.141754,0.1528622,-3.8220284,-9.915385,-25.727057,0.14530084
-1.137093,0.17773266,-3.7446039,-7.947818,-29.193298,-0.13691126
-1.1091018,0.15714376,-3.6716063,-6.4891963,-32.544838,-0.21527077
-1.0733395,0.10811022,-3.6289942,-5.3779755,-35.877514,-0.038978066
-1.0122254,0.048056748,-3.6000547,-4.5358295,-39.225224,0.66383904
-0.93082935,0.0221523,-3.5797808,-3.902076,-42.62211,1.5304188
-0.87753737,0.022636399,-3.565516,-3.587407,-46.01652,2.3585813
-0.8450555,0.011823132,-3.5696292,-3.257569,-49.552822,3.0337512
-0.8001634,0.007701573,-3.577219,-2.992207,-53.038185,3.6441505
-0.7472546,0.020277092,-3.5834541,-2.9291646,-56.29285,4.1414027
-0.7183148,0.040764038,-3.587087,-3.3900378,-59.365353,4.577984
-0.71506166,0.055058487,-3.6032043,-4.0249395,-62.42761,4.9525337
-0.71210295,0.060590036,-3.6148,-4.5924907,-65.68171,5.2701855
-0.6773802,0.06787653,-3.6023037,-5.1935062,-68.9944,5.722021
-0.6188348,0.08993686,-3.5516496,-6.226558,-72.053276,6.2532277
-0.55650455,0.097445875,-3.4823098,-7.5503063,-74.81832,6.7784376
-0.49066558,0.067905106,-3.407098,-8.3493595,-77.51421,7.1021852
-0.4152255,0.03629662,-3.3075016,-8.893592,-80.18173,7.4279046
-0.33209527,0.013094293,-3.1723526,-9.463248,-82.669716,7.8189697
-0.2404352,-0.0047306055,-3.008342,-9.941186,-84.870705,8.186606
-0.14270447,-0.0068092737,-2.8291385,-10.485592,-86.759155,8.383382
-0.041173607,-0.0052979714,-2.636006,-11.307832,-88.455505,8.632329
0.06042437,-0.014769646,-2.4241686,-12.14384,-89.86537,8.873888
0.16094984,-0.03268222,-2.2001276,-12.628209,-91.00192,8.949901
0.27421033,-0.044581078,-1.9650011,-12.757908,-91.78121,8.823759
0.4010444,-0.04696184,-1.7195518,-12.885305,-91.86119,8.673284
0.53265506,-0.051274028,-1.4698979,-13.240597,-91.34907,8.684884
0.6563301,-0.061032355,-1.2284395,-13.663966,-90.1457,8.81514
0.75458014,-0.07320993,-1.0100366,-13.969005,-88.65683,8.897246
0.8283298,-0.08691742,-0.8126015,-13.919114,-87.03607,8.779143
0.885263,-0.08987676,-0.6296223,-13.578435,-85.276825,8.531402
0.9279622,-0.07993539,-0.46556562,-13.099773,-83.32583,8.228367
0.9692018,-0.059698764,-0.31634164,-12.521613,-81.15089,7.8553267
1.0070385,-0.026995176,-0.18518485,-11.908233,-78.74348,7.4816103
1.0334938,0.01581879,-0.07394686,-11.352387,-76.197296,7.1374397
1.0473375,0.06573284,0.018777223,-10.891706,-73.55501,6.7199283
1.0498809,0.12289871,0.088296875,-10.4229145,-70.8801,6.168561
1.0446725,0.18496557,0.13978592,-9.907993,-68.21978,5.4218354
1.0328794,0.25109932,0.17227282,-9.334269,-65.65442,4.474171
1.0171407,0.32257262,0.19116157,-8.779664,-63.20585,3.3577704
1.0010775,0.39691296,0.20162304,-8.478247,-60.75123,2.1487234
0.9715101,0.46879348,0.18844697,-8.248738,-58.43076,0.8673452
0.9382715,0.5372331,0.16448551,-7.9375796,-56.34477,-0.6049638
0.91174865,0.60898036,0.14064035,-7.636343,-54.363594,-2.1865304
0.88529855,0.68264383,0.114695,-7.519874,-52.469986,-3.8425727
0.85029626,0.7513099,0.08317211,-7.6575193,-50.690166,-5.6069064
0.8070549,0.8093393,0.043810762,-8.107475,-49.14032,-7.5057864
0.7673194,0.855266,0.0016082285,-8.675842,-47.832825,-9.514028
0.73705626,0.88301075,-0.036687948,-9.339893,-46.679382,-11.605602
0.7154243,0.8896633,-0.068258435,-9.987947,-45.61963,-13.725626
0.69985974,0.8851332,-0.09213141,-10.762315,-44.603813,-15.727822
0.68064636,0.88170874,-0.112354845,-11.564833,-43.659893,-17.742392
0.6561987,0.8791846,-0.13154034,-12.531382,-42.812695,-19.72357
0.6265809,0.8702369,-0.15254885,-13.725089,-42.06633,-21.589941
0.5903981,0.8450534,-0.18071257,-15.044961,-41.48401,-23.417053
0.55285335,0.79591197,-0.21609338,-16.130323,-41.2347,-25.306993
0.5258317,0.7251957,-0.24115415,-17.101849,-41.1118,-27.073137
0.5086266,0.64289385,-0.25691476,-18.202873,-41.020523,-28.58499
0.4987678,0.541946,-0.26601914,-19.368208,-40.949936,-29.820568
0.4950643,0.4269409,-0.2657626,-20.34971,-40.803646,-30.844543
0.49011198,0.30570936,-0.25832883,-20.974632,-40.601845,-31.72104
0.48287007,0.18639791,-0.24460697,-21.304228,-40.34841,-32.287956
0.47953105,0.07717483,-0.2170144,-21.533434,-40.027615,-32.548344
0.48329782,-0.0158011,-0.17434423,-21.691,-39.544746,-32.625435
0.48801976,-0.10052766,-0.12625742,-21.777466,-38.884045,-32.62247
0.48573563,-0.18186092,-0.08295774,-21.822361,-38.078632,-32.424076
0.4738327,-0.2582751,-0.044247326,-21.871578,-37.247448,-32.046585
0.45839527,-0.33066988,-0.010885789,-21.870928,-36.404827,-31.559774
0.44434667,-0.40234673,0.02107123,-21.820127,-35.551094,-30.96726
0.43258688,-0.4736815,0.05243078,-21.6341,-34.649967,-30.286074
0.41969404,-0.5410294,0.084161244,-21.197948,-33.697205,-29.49026
0.40977225,-0.58914065,0.12164336,-20.620068,-32.679054,-28.69517
0.4015255,-0.6216794,0.15775768,-20.045439,-31.595709,-27.833479
0.3903964,-0.6436943,0.18940307,-19.550806,-30.491543,-26.922674
0.37811506,-0.6639318,0.21943332,-19.095135,-29.367197,-25.966282
0.3692459,-0.68053323,0.24953744,-18.707813,-28.194487,-24.93504
0.36304864,-0.6919216,0.2795885,-18.311813,-26.999891,-23.92916
0.36022103,-0.6971052,0.31332606,-17.976364,-25.812843,-22.984173
0.36693028,-0.6926454,0.35634342,-17.808699,-24.529583,-21.971685
0.38468692,-0.6812698,0.41047427,-17.847416,-23.01153,-20.889992
0.41178608,-0.67009956,0.4760821,-18.298265,-20.952377,-19.718348
0.44147125,-0.6687488,0.54020005,-19.052284,-18.606731,-18.48256
0.46977556,-0.67702687,0.59282213,-19.996515,-16.113754,-17.136852
0.49655616,-0.69402957,0.6322522,-20.842012,-13.70173,-15.617841
0.5222069,-0.72188795,0.66999525,-21.5461,-11.280107,-13.791558
0.5058661,-0.6992988,0.6490299,-20.871885,-10.927132,-13.359996
0.49004176,-0.6774236,0.62872714,-20.218977,-10.585313,-12.942073
0.4747171,-0.6562391,0.60906553,-19.586687,-10.254288,-12.537347
0.4598759,-0.63572294,0.5900242,-18.974344,-9.933705,-12.145389
0.44550258,-0.61585355,0.5715831,-18.381304,-9.623229,-11.765787
0.43158197,-0.59661,0.55372286,-17.806944,-9.322533,-11.398142
0.41809952,-0.5779721,0.53642476,-17.250664,-9.031301,-11.0420685
0.4050412,-0.55992055,0.5196708,-16.71188,-8.749229,-10.697196
0.3923933,-0.54243636,0.5034435,-16.190031,-8.476025,-10.363163
0.38014275,-0.5255015,0.48772594,-15.684578,-8.211403,-10.039625
0.36827686,-0.5090983,0.4725019,-15.194995,-7.955089,-9.726245
0.35678333,-0.4932099,0.45775563,-14.720775,-7.706819,-9.422699
0.3456503,-0.47781983,0.44347185,-14.261429,-7.4663363,-9.128674
0.3348663,-0.46291223,0.4296359,-13.816484,-7.2333927,-8.843867
0.32442024,-0.4484718,0.41623354,-13.385483,-7.007749,-8.567985
0.3143014,-0.43448374,0.403251,-12.967982,-6.7891736,-8.300745
0.3044994,-0.42093363,0.39067495,-12.563555,-6.577442,-8.041872
0.2950042,-0.40780768,0.37849253,-12.171785,-6.372338,-7.791103
0.28580612,-0.39509246,0.36669132,-11.792275,-6.1736517,-7.54818
0.27689573,-0.38277492,0.35525927,-11.424636,-5.98118,-7.312856
0.268264,-0.3708426,0.34418467,-11.068493,-5.7947273,-7.084891
0.25990212,-0.3592833,0.3334563,-10.723484,-5.6141033,-6.864052
0.25180155,-0.34808525,0.32306322,-10.389257,-5.4391246,-6.650115
0.2439541,-0.33723712,0.3129949,-10.0654745,-5.2696133,-6.442863
0.2363518,-0.32672784,0.3032411,-9.751805,-5.105397,-6.242085
0.22898693,-0.3165468,0.29379192,-9.447933,-4.94631,-6.047578
0.22185203,-0.30668366,0.28463778,-9.153549,-4.79219,-5.859144
0.21493989,-0.29712844,0.27576944,-8.868356,-4.642882,-5.6765933
0.20824349,-0.28787148,0.2671779,-8.592065,-4.498234,-5.49974
0.20175606,-0.2789034,0.2588545,-8.324395,-4.3581004,-5.328407
0.19547108,-0.27021515,0.25079083,-8.065079,-4.222339,-5.1624193
0.18938217,-0.261798,0.2429787,-7.8138523,-4.0908136,-5.0016103
0.1834832,-0.25364336,0.23541029,-7.5704627,-3.963391,-4.8458176
0.17776822,-0.24574311,0.22807792,-7.3346643,-3.8399427,-4.6948843
0.17223147,-0.23808922,0.22097424,-7.1062193,-3.720344,-4.548658
0.16686736,-0.23067398,0.21409205,-6.884898,-3.604475,-4.406991
0.1616705,-0.22348997,0.20742445,-6.6704774,-3.4922185,-4.269741
0.15663567,-0.2165299,0.2009647,-6.4627414,-3.3834617,-4.1367702
0.15175778,-0.20978682,0.19470634,-6.2614813,-3.2780952,-4.0079446
0.14703193,-0.20325391,0.18864305,-6.066494,-3.176013,-3.8831346
0.14245339,-0.19692461,0.18276873,-5.8775845,-3.0771124,-3.7622142
0.13801752,-0.19079256,0.17707749,-5.694562,-2.9812942,-3.6450624
0.13371989,-0.1848516,0.1715636,-5.5172434,-2.8884618,-3.5315614
0.12955618,-0.17909577,0.16622153,-5.3454494,-2.798522,-3.4215972
0.1255222,-0.17351928,0.1610459,-5.179009,-2.7113848,-3.3150592
0.121613905,-0.16811654,0.15603152,-5.0177536,-2.6269622,-3.2118406
0.11782736,-0.1628821,0.15117337,-4.861522,-2.5451698,-3.1118376
0.114158794,-0.15781075,0.14646657,-4.710158,-2.4659257,-3.01495
0.1106045,-0.15289737,0.14190638,-4.563509,-2.38915,-2.9210806
0.107160926,-0.14813705,0.13748825,-4.421428,-2.3147657,-2.8301353
0.10382461,-0.14352499,0.13320772,-4.2837725,-2.2426987,-2.7420228
0.1005922,-0.13905658,0.12906054,-4.150405,-2.1728761,-2.6566546
0.097460486,-0.13472736,0.12504251,-4.0211906,-2.1052282,-2.5739453
0.0944263,-0.13053295,0.12114963,-3.896001,-2.0396872,-2.493812
0.0914866,-0.12646918,0.11737798,-3.7747102,-1.9761873,-2.4161742
0.088638455,-0.12253197,0.11372379,-3.6571965,-1.914665,-2.3409543
0.08587901,-0.118717365,0.110183395,-3.5433426,-1.8550587,-2.268077
0.08320549,-0.11502155,0.10675325,-3.433034,-1.7973084,-2.197469
0.08061523,-0.11144082,0.10342993,-3.3261604,-1.7413565,-2.1290598
0.07810562,-0.107971594,0.100210086,-3.2226148,-1.6871469,-2.0627806
0.07567416,-0.10461039,0.0970905,-3.1222935,-1.6346253,-1.9985654
0.07331841,-0.10135385,0.09406805,-3.025096,-1.583739,-1.9363496
0.071036,-0.098198704,0.09113972,-2.9309247,-1.5344373,-1.8760711
0.06882467,-0.0951418,0.08830255,-2.8396854,-1.4866706,-1.8176694
0.06668218,-0.09218007,0.085553735,-2.7512872,-1.4403912,-1.7610861
0.064606406,-0.08931056,0.082890496,-2.6656413,-1.3955525,-1.7062645
0.062595256,-0.08653039,0.08031017,-2.5826619,-1.35211,-1.6531497
0.060646724,-0.08383677,0.07781019,-2.502266,-1.3100201,-1.6016886
0.058758855,-0.08122702,0.07538804,-2.424373,-1.2692405,-1.5518297
0.05692976,-0.07869852,0.0730413,-2.348905,-1.2297305,-1.5035231
0.05515761,-0.076248735,0.07076762,-2.2757866,-1.1914506,-1.4567204
0.05344063,-0.073875226,0.06856472,-2.2049446,-1.1543624,-1.4113748
0.051777106,-0.071575604,0.066430405,-2.1363082,-1.118429,-1.3674408
0.05016537,-0.06934757,0.06436254,-2.0698085,-1.0836141,-1.3248746
0.04860381,-0.0671889,0.062359046,-2.005379,-1.049883,-1.2836336
0.047090862,-0.06509744,0.06041792,-1.9429551,-1.0172021,-1.2436764
0.045625016,-0.06307108,0.05853723,-1.8824747,-0.9855386,-1.2049632
0.0442048,-0.0611078,0.056715082,-1.823877,-0.95486075,-1.1674551
0.0428288,-0.059205644,0.05494966,-1.7671036,-0.92513794,-1.1311147
0.04149563,-0.057362698,0.053239197,-1.7120974,-0.89634037,-1.0959055
0.040203962,-0.055577125,0.05158198,-1.6588036,-0.8684393,-1.0617924
0.038952503,-0.053847138,0.04997635,-1.6071688,-0.84140676,-1.0287412
0.037740003,-0.052171003,0.0484207,-1.5571414,-0.81521577,-0.99671894
0.036565248,-0.050547045,0.046913482,-1.5086714,-0.78984004,-0.9656935
0.035427064,-0.04897364,0.04545318,-1.4617101,-0.76525426,-0.93563384
0.034324307,-0.047449213,0.044038337,-1.4162108,-0.7414338,-0.9065099
0.03325588,-0.04597224,0.042667538,-1.3721278,-0.7183549,-0.87829256
