ax,ay,az,gx,gy,gz
-0.20000182,5.363685,1.9354721,4.0509458,2.9409356,-1.7200156
-0.50160456,5.9408364,1.863777,5.0291586,1.539677,-3.8669682
-0.84978205,6.374578,1.9527197,0.07044944,-1.0684909,-12.597953
-0.90295863,6.7421374,2.0791092,-12.931394,-0.7322498,-25.262598
-0.697372,7.0179467,1.8624436,-26.264196,0.4960409,-33.428658
-0.45685363,7.159284,1.4908453,-40.422157,2.484561,-39.178993
-0.2660482,7.1332674,1.0220083,-53.112156,5.17018,-44.18886
-0.16224228,6.969868,0.4780006,-63.549553,7.7112427,-49.251198
-0.08003218,6.743571,-0.1266225,-72.35205,9.280222,-54.933258
0.013386403,6.416814,-0.8473952,-80.23968,9.379421,-59.186024
0.075938076,5.983008,-1.6003697,-87.92736,7.718896,-61.134727
0.06612195,5.4151716,-2.3645165,-94.60756,4.750756,-61.962254
-0.045399304,4.6692095,-3.1040902,-99.113754,1.3901196,-63.018185
-0.22989878,3.7855847,-3.7964818,-100.003235,-2.4486723,-65.242805
-0.4463741,2.7188969,-4.376854,-98.20629,-6.611996,-67.87515
-0.610184,1.6003572,-4.822275,-93.80052,-11.281795,-69.61023
-0.70039463,0.5143606,-5.119311,-87.440674,-16.50974,-69.701454
-0.7063764,-0.49219564,-5.274349,-79.673965,-22.265482,-68.29451
-0.60389745,-1.404947,-5.2884426,-70.38812,-28.058811,-65.143166
-0.33289337,-2.1415522,-5.138632,-60.587917,-32.78922,-61.20604
0.0046096686,-2.7217517,-4.8949103,-50.34315,-36.264996,-56.677425
0.37759528,-3.105472,-4.577061,-40.081383,-38.453125,-51.376488
0.74876785,-3.31127,-4.2240415,-30.25502,-39.507847,-45.244766
1.0670018,-3.3660893,-3.8829093,-20.852415,-39.387955,-38.315475
1.2912657,-3.246964,-3.5651627,-11.804269,-38.85774,-31.51409
1.4575787,-2.9303756,-3.2062914,-3.5133328,-37.85597,-25.372606
1.5580533,-2.4569435,-2.8128314,3.4082975,-36.34932,-20.091303
1.5956285,-1.8805656,-2.4077578,8.48997,-34.599483,-15.522532
1.5798831,-1.2353579,-1.9935365,11.018253,-32.652157,-11.886582
1.5134164,-0.5525208,-1.5951483,11.80514,-30.717676,-9.148981
1.4253924,0.09738362,-1.2419143,11.151938,-28.896967,-7.3519883
1.327275,0.6895978,-0.9526591,9.466395,-27.145018,-6.4915776
1.2270523,1.202999,-0.7467664,7.072343,-25.567682,-6.610376
1.150803,1.6335695,-0.6198544,4.0038,-24.088814,-7.819363
1.1155871,1.9741318,-0.57516074,0.548837,-22.619997,-9.554154
1.0975976,2.2374637,-0.58998024,-3.4494796,-21.236692,-11.414095
1.0750707,2.415249,-0.65961194,-7.6474404,-20.00638,-13.281646
1.0390046,2.5068746,-0.77749616,-11.640757,-18.914297,-15.305775
0.9910757,2.525467,-0.93035465,-14.839648,-18.014614,-17.933918
0.94975364,2.485447,-1.103517,-17.41038,-17.393852,-20.855707
0.9332166,2.4067197,-1.2802905,-19.730135,-17.16406,-23.583271
0.93457186,2.2659717,-1.4527122,-21.879559,-17.113228,-25.892244
0.9084861,2.0574493,-1.6186806,-23.430378,-17.021227,-27.884195
0.83122677,1.7982311,-1.7870729,-24.291739,-17.462805,-29.62824
0.7279311,1.4869248,-1.9648751,-24.650648,-18.584137,-31.246641
0.6249695,1.1397759,-2.1227481,-24.500332,-20.239582,-32.848103
0.5277391,0.761178,-2.2509837,-23.93488,-22.233341,-34.27606
0.45023492,0.3654777,-2.3562787,-22.873228,-24.51455,-35.336205
0.4019152,-0.028567351,-2.4250715,-21.150703,-26.918797,-35.879456
0.38438943,-0.41648367,-2.4405296,-18.995403,-29.259165,-35.805256
0.38289228,-0.796068,-2.4295504,-16.617313,-31.617474,-34.933197
0.39813295,-1.184644,-2.4141607,-13.933333,-34.03461,-33.328568
0.4526156,-1.5592505,-2.381316,-10.556158,-36.345566,-31.269062
0.5749353,-1.8722107,-2.3140483,-5.959881,-37.814426,-28.893106
0.7721132,-2.0546377,-2.1982324,-0.81473017,-38.22175,-26.14248
0.96566266,-2.1215436,-2.0566819,4.2981334,-37.915142,-22.94321
1.13328,-2.0530298,-1.8758998,8.835204,-37.20223,-19.380922
1.2662958,-1.8965056,-1.6831659,12.9203005,-36.273045,-15.64731
1.3681171,-1.6843005,-1.4965522,16.416388,-34.998276,-11.937774
1.4356366,-1.4109071,-1.3196964,19.571539,-33.408978,-8.513109
1.466864,-1.0804679,-1.1456338,22.341839,-31.415766,-5.827763
1.457635,-0.7287451,-0.98589337,24.6098,-29.17001,-3.9680548
1.4207395,-0.39219165,-0.85197026,26.146019,-26.874125,-2.6681182
1.3678356,-0.08532043,-0.7488875,26.544779,-24.988174,-1.6000358
1.3141421,0.16638932,-0.68383473,26.114906,-23.54599,-0.5215204
1.267483,0.36156797,-0.64790994,25.13921,-22.39016,0.56917787
1.2273114,0.49996513,-0.63820225,23.905163,-21.361572,1.5602568
1.1975499,0.5896044,-0.64241856,22.626902,-20.244724,2.3089287
1.1733559,0.6395348,-0.6533916,21.438396,-18.9432,2.6640403
1.1577519,0.6472025,-0.66138273,20.207901,-17.48086,2.7892907
1.1449603,0.6275191,-0.675985,19.028112,-15.878751,2.883145
1.1085556,0.6075667,-0.65449166,18.423101,-15.373877,2.7914736
1.0733542,0.5882739,-0.6337088,17.83809,-14.885691,2.7028327
1.0393124,0.56961656,-0.61361045,17.272348,-14.413585,2.6171112
1.006388,0.55157167,-0.5941719,16.725178,-13.956977,2.5342038
0.97454095,0.5341172,-0.57536936,16.195911,-13.51531,2.454009
0.9437329,0.51723224,-0.5571803,15.683912,-13.088052,2.3764307
0.91392714,0.5008966,-0.5395829,15.188569,-12.674694,2.3013763
0.8850884,0.4850909,-0.52255654,14.709298,-12.274747,2.228757
0.85718304,0.4697968,-0.50608116,14.245538,-11.887745,2.158488
0.8301787,0.45499653,-0.49013782,13.796753,-11.513238,2.090488
0.80404437,0.44067308,-0.4747081,13.362426,-11.150798,2.0246785
0.7787503,0.42681015,-0.45977446,12.942063,-10.80001,1.9609851
0.7542678,0.413392,-0.44532,12.535189,-10.460477,1.8993354
0.73056954,0.40040368,-0.43132854,12.141346,-10.13182,1.8396603
0.7076289,0.38783062,-0.4177844,11.760097,-9.813671,1.7818931
0.68542063,0.3756589,-0.40467262,11.391016,-9.505678,1.72597
0.66392016,0.36387512,-0.39197874,11.0337,-9.207501,1.6718293
0.643104,0.3524664,-0.37968886,10.687756,-8.918815,1.6194118
0.6229495,0.3414203,-0.36778963,10.352807,-8.639304,1.5686603
0.60343474,0.33072484,-0.3562681,10.028491,-8.368666,1.5195198
0.5845387,0.32036847,-0.34511188,9.7144575,-8.106608,1.4719374
0.5662411,0.3103401,-0.33430898,9.41037,-7.85285,1.425862
0.5485224,0.300629,-0.32384783,9.115903,-7.6071205,1.3812442
0.5313637,0.29122484,-0.31371734,8.830742,-7.369157,1.3380365
0.51474684,0.2821176,-0.30390674,8.554585,-7.1387076,1.2961932
0.4986542,0.2732977,-0.29440564,8.287142,-6.915529,1.2556701
0.48306885,0.26475585,-0.28520405,8.028129,-6.699385,1.2164243
0.46797442,0.25648302,-0.27629226,7.777274,-6.49005,1.1784148
0.4533551,0.24847059,-0.26766104,7.5343156,-6.2873034,1.1416016
0.4391956,0.2407102,-0.25930125,7.298999,-6.0909343,1.1059463
0.42548123,0.23319374,-0.25120428,7.0710793,-5.900738,1.0714118
0.41219768,0.22591342,-0.24336167,6.85032,-5.7165165,1.0379623
0.3993312,0.21886168,-0.2357653,6.636492,-5.5380793,1.0055631
0.3868685,0.21203125,-0.22840731,6.4293737,-5.3652415,0.9741805
0.3747967,0.20541504,-0.22128011,6.228752,-5.197825,0.94378227
0.36310336,0.19900627,-0.21437636,6.03442,-5.0356574,0.91433704
0.35177645,0.19279832,-0.20768894,5.846178,-4.8785715,0.88581455
0.34080434,0.18678483,-0.20121102,5.6638327,-4.726406,0.8581855
0.3301758,0.18095964,-0.19493592,5.487197,-4.5790052,0.8314216
0.31987995,0.17531678,-0.18885724,5.3160896,-4.4362183,0.80549544
0.30990624,0.1698505,-0.18296877,5.1503367,-4.2978992,0.7803805
0.3002445,0.16455519,-0.17726448,4.9897685,-4.1639066,0.7560511
0.2908849,0.15942547,-0.17173856,4.834221,-4.0341043,0.73248255
0.2818179,0.15445612,-0.16638541,4.6835365,-3.9083598,0.70965075
0.2730343,0.14964208,-0.16119955,4.5375614,-3.786545,0.6875326
0.26452515,0.14497845,-0.15617575,4.3961473,-3.6685367,0.6661055
0.2562818,0.1404605,-0.15130886,4.259151,-3.5542147,0.6453478
0.24829589,0.13608368,-0.14659399,4.1264334,-3.443463,0.62523836
0.24055935,0.1318435,-0.14202634,3.9978595,-3.33617,0.6057568
0.23306434,0.1277357,-0.13760127,3.8732998,-3.2322261,0.5868835
0.22580327,0.12375613,-0.13331434,3.752628,-3.131527,0.5685993
0.21876882,0.119900756,-0.1291612,3.6357224,-3.0339704,0.5508857
0.21195385,0.116165675,-0.12513764,3.5224645,-2.939458,0.5337248
0.2053515,0.11254712,-0.12123961,3.41274,-2.847894,0.5170993
0.19895512,0.10904145,-0.11746318,3.3064382,-2.7591863,0.5009925
0.19275823,0.10564512,-0.113804534,3.203452,-2.6732454,0.48538795
0.1867546,0.102354705,-0.11025999,3.1036777,-2.589985,0.47027013
0.18093818,0.09916689,-0.10682597,3.0070145,-2.5093205,0.4556237
0.1753031,0.09607848,-0.103499025,2.9133651,-2.4311712,0.4414339
0.16984372,0.09308635,-0.10027579,2.8226354,-2.3554583,0.4276865
0.1645545,0.09018748,-0.097153045,2.7347338,-2.2821054,0.41436765
0.15943016,0.087378986,-0.09412763,2.6495724,-2.211039,0.40146396
0.15446553,0.08465801,-0.09119651,2.567065,-2.1421876,0.38896242
0.14965563,0.08202185,-0.08835674,2.4871292,-2.075482,0.37685052
0.1449956,0.079467826,-0.08560546,2.4096842,-2.010855,0.36511603
0.14048079,0.07699339,-0.082939915,2.3346524,-1.9482418,0.3537472
0.13610666,0.074596055,-0.08035742,2.2619586,-1.8875796,0.3427326
0.1318688,0.07227341,-0.077855386,2.1915295,-1.8288074,0.33206117
0.12776296,0.07002313,-0.0754313,2.1232948,-1.7718661,0.3217222
0.12378505,0.067842945,-0.07308274,2.0571856,-1.7166988,0.31170535
0.11993104,0.065730676,-0.07080734,1.9931359,-1.66325,0.30200052
0.116197094,0.06368421,-0.06860281,1.9310813,-1.611466,0.29259798
0.11257944,0.061701484,-0.06646695,1.8709596,-1.5612952,0.28348833
0.10907448,0.059780516,-0.06439762,1.8127105,-1.512687,0.2746624
0.10567868,0.057919376,-0.062392734,1.7562757,-1.4655926,0.26611137
0.102388635,0.0561162,-0.06045029,1.7015984,-1.4199651,0.25782666
0.09920106,0.054369185,-0.058568344,1.648624,-1.3757585,0.24979997
0.09611275,0.052676573,-0.056745004,1.5972993,-1.3329287,0.24202324
0.09312062,0.05103667,-0.05497845,1.547573,-1.2914326,0.2344887
0.09022166,0.04944784,-0.0532669,1.4993951,-1.2512288,0.22718878
0.087412976,0.04790848,-0.051608656,1.4527177,-1.2122768,0.22011618
0.08469175,0.046417058,-0.050002042,1.4074935,-1.1745379,0.21326382
0.082055256,0.044972073,-0.048445456,1.3636776,-1.137974,0.20662482
0.07950086,0.043572083,-0.04693734,1.3212261,-1.1025486,0.20019256
0.077026,0.042215686,-0.04547618,1.2800963,-1.0682263,0.19396056
0.0746282,0.04090152,-0.044060517,1.2402472,-1.0349727,0.18792261
0.07230505,0.03962827,-0.042688932,1.2016388,-1.0027543,0.18207265
0.07005423,0.038394667,-0.04136005,1.1642325,-0.9715392,0.17640483
0.0678735,0.037199467,-0.04007254,1.1279907,-0.94129586,0.17091347
0.06576066,0.036041483,-0.038825117,1.0928774,-0.91199416,0.16559309
0.063713595,0.03491955,-0.037616532,1.0588573,-0.88360476,0.16043836
0.06173027,0.033832546,-0.036445573,1.0258963,-0.8560992,0.1554441
0.059808686,0.03277938,-0.03531107,0.99396145,-0.8294499,0.15060532
0.057946924,0.031759005,-0.03421189,0.96302086,-0.8036303,0.14591719
0.056143127,0.030770397,-0.033146925,0.93304354,-0.7786145,0.14137502
0.054395482,0.029812565,-0.032115117,0.9039994,-0.75437754,0.13697425
0.052702248,0.028884552,-0.031115428,0.8758595,-0.7308951,0.13271047
0.051061723,0.02798543,-0.030146861,0.84859556,-0.70814365,0.12857944
0.04947227,0.027114296,-0.029208448,0.82218045,-0.68610054,0.12457701
0.047932297,0.026270283,-0.028299248,0.7965876,-0.6647436,0.12069918
0.046440266,0.025452543,-0.02741835,0.7717915,-0.6440515,0.11694206
0.04499468,0.024660261,-0.026564876,0.74776727,-0.6240036,0.11330191
0.043594096,0.023892641,-0.025737971,0.72449094,-0.60457975,0.109775074
0.04223711,0.023148919,-0.024936806,0.7019392,-0.58576053,0.10635803
0.04092237,0.022428347,-0.024160583,0.6800895,-0.5675272,0.103047356
0.039648555,0.021730207,-0.023408521,0.65891993,-0.54986143,0.09983974
0.038414393,0.021053798,-0.022679873,0.6384094,-0.5327456,0.09673197
0.03721865,0.020398447,-0.021973904,0.6185373,-0.5161626,0.09372095
0.03606013,0.019763496,-0.021289913,0.5992838,-0.5000957,0.09080365
