ax,ay,az,gx,gy,gz
-1.3872854,-5.1118646,-7.0646095,6.9909725,23.082937,43.279484
-1.6654061,-4.2357063,-7.8981366,18.665855,24.531427,49.064037
-2.0427327,-3.109568,-8.633295,19.971169,17.944843,53.800667
-2.6905591,-2.2464821,-9.284411,16.217737,6.5290127,58.156612
-3.2435026,-1.9798241,-9.560759,8.345206,-15.3040905,52.799583
-2.9165769,-2.3126533,-9.141116,9.3781595,-29.3871,43.536522
-2.3916864,-2.45386,-8.646407,15.017434,-35.864193,35.223297
-1.9691122,-2.3486955,-8.295246,19.005505,-39.011967,30.81227
-1.7315451,-2.1099386,-8.116349,20.512508,-42.22216,29.880234
-1.6165795,-1.8160483,-7.990504,19.200058,-47.670284,29.534767
-1.4755865,-1.7296708,-7.746915,18.075247,-53.038715,28.32277
-1.3179618,-1.8044801,-7.4410787,18.142855,-57.17711,26.671406
-1.143603,-1.8773129,-7.1146345,18.821716,-60.104137,25.223167
-0.9420618,-1.884046,-6.831637,20.377926,-61.87397,24.351406
-0.80377793,-1.8067024,-6.628768,20.95664,-64.17057,24.58453
-0.7410418,-1.6749318,-6.397849,20.003826,-66.96195,24.96508
-0.7079131,-1.69897,-6.1084986,18.658195,-69.60434,25.147364
-0.7244796,-1.902135,-5.8218317,18.60747,-71.91331,24.791853
-0.7121383,-2.1740682,-5.5373545,20.075586,-74.13168,24.418972
-0.5741711,-2.2930567,-5.232184,21.386755,-75.055855,27.009857
-0.43842763,-1.9769851,-4.9672074,19.939096,-75.771774,31.740736
-0.3938281,-1.5915658,-4.6652226,16.376799,-77.471275,35.867706
-0.3649001,-1.3385429,-4.2781844,13.150125,-79.21816,37.613464
-0.31889454,-1.3362745,-3.8537,12.48243,-80.28044,36.220455
-0.20536974,-1.4080942,-3.4468358,14.100494,-80.259285,35.53087
0.019444782,-1.14568,-3.077319,14.083534,-79.28477,37.820522
0.24933329,-0.6978545,-2.7588277,12.336368,-77.94639,40.95448
0.44217873,-0.23381743,-2.467939,10.010282,-76.533516,42.114697
0.61106765,0.13355282,-2.1904378,7.991649,-74.88307,40.608593
0.75190026,0.33311322,-1.9441156,6.6548877,-72.75306,37.217796
0.8535366,0.35182807,-1.7577851,6.068374,-70.47557,34.38726
0.9328992,0.39687788,-1.6116793,5.4191236,-68.25368,33.040237
0.9987772,0.49189183,-1.4927908,4.186082,-66.130356,32.680363
1.0661279,0.61601955,-1.3847525,2.3736792,-63.72416,32.373863
1.1102009,0.7292233,-1.3027422,0.48478782,-61.09536,31.11425
1.1279685,0.80376434,-1.2533716,-1.3716257,-58.336327,29.487366
1.1269486,0.8631165,-1.2381908,-3.455122,-55.458145,28.203548
1.0701832,0.92133695,-1.2636337,-5.805412,-53.041176,27.658203
0.97723824,0.97960025,-1.3025223,-8.56808,-51.16005,27.714254
0.87937963,1.0218117,-1.3481373,-11.232001,-49.85622,27.444061
0.8309227,1.0735202,-1.3900946,-13.52132,-48.65223,25.844927
0.81844234,1.1132826,-1.4226263,-15.337353,-47.37335,22.901423
0.806194,1.1519617,-1.4596574,-17.142504,-46.222687,19.606285
0.7996974,1.1749593,-1.4853112,-19.478518,-45.27696,16.802946
0.80117804,1.1767108,-1.4946105,-22.39425,-44.2263,15.076176
0.7784802,1.1680682,-1.5091842,-25.397747,-43.306633,13.686938
0.7575469,1.1607829,-1.5092814,-27.839138,-42.45652,11.784076
0.72566545,1.1679243,-1.5031325,-29.896694,-41.686996,9.309552
0.6896732,1.1587896,-1.4823986,-31.884373,-41.12096,6.6468987
0.6534743,1.110754,-1.4420387,-34.22401,-40.780087,4.656368
0.63433486,1.0114692,-1.3764715,-36.482796,-40.35984,3.1118476
0.6340887,0.9059017,-1.2984917,-38.47852,-39.763218,1.6656758
0.64855105,0.79666346,-1.2148237,-39.941635,-38.852833,-0.09660831
0.645273,0.6808872,-1.143847,-40.57221,-37.903587,-2.2433624
0.61581343,0.55497277,-1.0760067,-40.716305,-37.456707,-4.184929
0.61476356,0.42184606,-0.9849226,-40.86718,-37.048424,-5.4930406
0.627267,0.27723032,-0.88597924,-41.0306,-36.462364,-6.1392946
0.6474791,0.13672553,-0.784974,-40.864098,-35.527443,-6.386163
0.6665098,0.03908531,-0.69006985,-40.430374,-34.30098,-6.5643697
0.67675364,-0.018310755,-0.61287004,-39.75558,-32.913315,-6.7163424
0.6529196,-0.065270044,-0.5589212,-39.181927,-31.780777,-6.678587
0.63053554,-0.12270214,-0.5028436,-38.458298,-30.6701,-6.495846
0.60644114,-0.19125865,-0.45349878,-37.63356,-29.509258,-6.2227945
0.57453775,-0.275826,-0.4112432,-36.463413,-28.217302,-6.0398493
0.53587914,-0.3627022,-0.37600455,-34.80713,-26.83026,-5.947643
0.51729184,-0.4080498,-0.3328819,-33.160378,-25.294601,-5.80175
0.5174427,-0.41583586,-0.285711,-31.90793,-23.513771,-5.7136264
0.5162129,-0.41142637,-0.25545698,-30.865705,-21.564611,-5.718277
0.49330717,-0.41233894,-0.25173765,-29.803932,-19.692692,-5.5726986
0.4589552,-0.42055494,-0.26096135,-28.512995,-17.965134,-4.83644
0.41829723,-0.4396093,-0.27185178,-27.026045,-16.271828,-3.5280979
0.40499723,-0.42563164,-0.2632081,-26.166735,-15.754455,-3.4159198
0.39213687,-0.41211605,-0.25485012,-25.33583,-15.254185,-3.30745
0.3797001,-0.39904562,-0.24676745,-24.532295,-14.770391,-3.202553
0.36767155,-0.38640425,-0.23895009,-23.755136,-14.302481,-3.1010993
0.35603663,-0.37417653,-0.23138854,-23.003408,-13.84988,-3.0029652
0.34478128,-0.36234775,-0.2240737,-22.276203,-13.4120455,-2.908033
0.3338921,-0.35090375,-0.21699679,-21.572657,-12.988455,-2.8161888
0.32335624,-0.33983108,-0.21014951,-20.891937,-12.578608,-2.7273247
0.31316134,-0.32911676,-0.20352386,-20.23325,-12.182025,-2.6413367
0.30329564,-0.3187484,-0.19711213,-19.59583,-11.798247,-2.5581253
0.29374778,-0.3087141,-0.19090697,-18.978947,-11.426834,-2.4775946
0.2845069,-0.2990024,-0.18490131,-18.381895,-11.067363,-2.399653
0.27556252,-0.28960234,-0.17908835,-17.804003,-10.719425,-2.3242123
0.26690465,-0.28050333,-0.17346159,-17.24462,-10.382632,-2.251188
0.25852358,-0.27169526,-0.16801472,-16.703123,-10.056607,-2.1804986
0.25041005,-0.26316833,-0.16274174,-16.17891,-9.74099,-2.1120656
0.24255513,-0.2549132,-0.1576368,-15.671406,-9.4354315,-2.0458138
0.2349502,-0.24692081,-0.15269436,-15.180054,-9.139599,-1.9816705
0.22758698,-0.23918244,-0.147909,-14.704319,-8.8531685,-1.9195659
0.2204575,-0.2316897,-0.14327554,-14.243686,-8.57583,-1.8594329
0.21355407,-0.22443455,-0.138789,-13.797657,-8.307286,-1.8012064
0.20686927,-0.21740916,-0.13444453,-13.365754,-8.047247,-1.7448239
0.20039596,-0.21060604,-0.13023752,-12.947516,-7.795434,-1.6902252
0.19412725,-0.20401794,-0.12616348,-12.542497,-7.55158,-1.6373522
0.18805647,-0.19763786,-0.12221808,-12.150266,-7.315426,-1.5861487
0.18217722,-0.19145907,-0.11839715,-11.77041,-7.086722,-1.5365607
0.1764833,-0.18547505,-0.11469667,-11.402527,-6.8652277,-1.4885356
0.17096874,-0.17967951,-0.11111274,-11.046233,-6.65071,-1.4420235
0.16562775,-0.17406641,-0.10764163,-10.701153,-6.442945,-1.3969753
0.16045475,-0.16862985,-0.1042797,-10.366928,-6.2417145,-1.353344
0.15544437,-0.16336419,-0.10102344,-10.043208,-6.0468097,-1.3110843
0.15059139,-0.15826395,-0.097869486,-9.729659,-5.8580284,-1.2701522
0.14589077,-0.15332384,-0.094814554,-9.425955,-5.6751738,-1.2305052
0.14133768,-0.14853877,-0.09185549,-9.131781,-5.4980574,-1.1921024
0.1369274,-0.14390378,-0.08898924,-8.846833,-5.3264966,-1.1549042
0.13265537,-0.1394141,-0.08621285,-8.570819,-5.1603146,-1.1188722
0.12851723,-0.13506512,-0.08352347,-8.303455,-4.99934,-1.0839692
0.1245087,-0.13085236,-0.08091832,-8.044466,-4.8434076,-1.0501597
0.12062569,-0.12677152,-0.078394756,-7.793586,-4.692358,-1.0174087
0.11686423,-0.12281841,-0.07595017,-7.5505586,-4.5460367,-0.9856829
0.11322045,-0.11898899,-0.07358208,-7.315136,-4.4042935,-0.9549498
0.109690666,-0.115279354,-0.071288064,-7.087077,-4.266984,-0.925178
0.10627125,-0.11168572,-0.06906579,-6.86615,-4.1339684,-0.8963372
0.10295874,-0.10820444,-0.06691298,-6.6521297,-4.0051107,-0.868398
0.09974975,-0.10483196,-0.06482746,-6.444798,-3.8802807,-0.8413321
0.09664103,-0.10156485,-0.0628071,-6.2439446,-3.759351,-0.81511176
0.09362942,-0.098399796,-0.06084985,-6.0493655,-3.6421988,-0.7897106
0.09071187,-0.0953336,-0.05895373,-5.8608637,-3.5287056,-0.7651027
0.08788542,-0.09236314,-0.057116818,-5.6782475,-3.4187565,-0.7412632
0.08514721,-0.08948542,-0.05533725,-5.5013328,-3.3122396,-0.71816796
0.08249447,-0.08669753,-0.05361323,-5.32994,-3.2090476,-0.6957936
0.07992452,-0.08399663,-0.051943015,-5.163896,-3.109076,-0.67411757
0.07743475,-0.08138002,-0.050324917,-5.003033,-3.0122237,-0.65311784
0.07502267,-0.07884504,-0.0487573,-4.8471894,-2.9183934,-0.6327733
0.07268582,-0.076389134,-0.047238585,-4.6962066,-2.8274896,-0.61306334
0.07042187,-0.07400983,-0.045767237,-4.549933,-2.7394214,-0.59396815
0.06822851,-0.07170472,-0.044341773,-4.4082212,-2.6540997,-0.5754685
0.066103555,-0.0694715,-0.042960763,-4.2709284,-2.5714386,-0.55754566
0.06404485,-0.067307904,-0.041622806,-4.137916,-2.4913545,-0.54018164
0.062050328,-0.065211765,-0.040326566,-4.009051,-2.4137673,-0.523359
0.06011798,-0.06318096,-0.03907073,-3.8842025,-2.3385987,-0.50706077
0.05824586,-0.061213464,-0.037854042,-3.7632456,-2.265773,-0.4912705
0.056432094,-0.059307285,-0.03667527,-3.6460588,-2.1952171,-0.4759724
0.054674853,-0.057460513,-0.03553324,-3.5325239,-2.1268601,-0.4611511
0.052972373,-0.05567129,-0.034426793,-3.4225273,-2.0606334,-0.44679165
0.05132294,-0.05393782,-0.033354826,-3.315958,-1.9964703,-0.43287963
0.049724903,-0.052258365,-0.03231626,-3.2127092,-1.9343064,-0.4194011
0.048176654,-0.050631233,-0.03131005,-3.1126773,-1.8740792,-0.4063425
0.04667664,-0.049054794,-0.030335192,-3.015762,-1.8157284,-0.39369074
0.045223355,-0.047527462,-0.0293907,-2.9218657,-1.7591954,-0.38143313
0.04381534,-0.046047714,-0.028475631,-2.8308945,-1.7044235,-0.36955732
0.042451188,-0.044614058,-0.027589068,-2.742757,-1.6513578,-0.35805148
0.041129526,-0.043225057,-0.026730116,-2.6573648,-1.5999448,-0.346904
0.039849028,-0.04187932,-0.025897922,-2.5746324,-1.5501333,-0.33610377
0.038608413,-0.040575497,-0.025091644,-2.4944768,-1.5018733,-0.32563987
0.037406437,-0.039312277,-0.024310479,-2.4168174,-1.4551162,-0.3155019
0.036241896,-0.038088404,-0.023553642,-2.3415768,-1.4098153,-0.30567965
0.035113618,-0.036902644,-0.022820374,-2.2686791,-1.3659252,-0.2961633
0.03402048,-0.03575381,-0.022109943,-2.198052,-1.3234019,-0.2869433
0.03296138,-0.034640748,-0.021421632,-2.129624,-1.2822028,-0.2780104
0.031935263,-0.03356235,-0.020754756,-2.0633266,-1.2422867,-0.26935565
0.030941095,-0.03251753,-0.020108648,-1.9990939,-1.2036134,-0.26097044
0.029977886,-0.031505246,-0.019482657,-1.9368613,-1.1661444,-0.25284633
0.02904467,-0.030524481,-0.018876158,-1.8765663,-1.1298422,-0.24497516
0.028140508,-0.029574255,-0.018288543,-1.8181489,-1.0946702,-0.2373491
0.0272645,-0.028653614,-0.017719224,-1.7615503,-1.0605932,-0.22996046
0.026415767,-0.027761638,-0.017167632,-1.7067139,-1.0275774,-0.22280188
0.02559346,-0.026897434,-0.016633213,-1.6535848,-0.99558955,-0.2158662
0.024796754,-0.026060138,-0.016115434,-1.60211,-0.9645976,-0.20914643
0.024024853,-0.02524891,-0.015613775,-1.5522377,-0.9345705,-0.20263588
0.023276985,-0.024462936,-0.015127734,-1.5039182,-0.9054783,-0.19632804
0.022552399,-0.023701433,-0.014656826,-1.457103,-0.8772918,-0.19021659
0.021850372,-0.02296364,-0.0142005775,-1.4117453,-0.84998286,-0.18429539
0.0211702,-0.022248814,-0.013758534,-1.3677996,-0.8235241,-0.17855853
0.020511206,-0.021556241,-0.013330252,-1.3252221,-0.79788905,-0.17300028
0.019872725,-0.020885231,-0.012915303,-1.2839701,-0.7730521,-0.16761507
0.019254122,-0.02023511,-0.012513272,-1.2440023,-0.74898833,-0.1623975
0.018654777,-0.019605229,-0.012123757,-1.2052789,-0.7256737,-0.15734237
0.01807409,-0.018994955,-0.011746367,-1.1677608,-0.7030849,-0.1524446
0.01751148,-0.018403681,-0.0113807265,-1.1314108,-0.68119925,-0.14769931
0.016966384,-0.017830813,-0.011026469,-1.0961924,-0.65999496,-0.14310174
0.016438257,-0.017275779,-0.0106832385,-1.0620703,-0.6394507,-0.13864729
0.01592657,-0.016738022,-0.010350693,-1.0290104,-0.61954606,-0.13433151
0.015430813,-0.016217005,-0.010028499,-0.99697965,-0.600261,-0.13015008
0.014950488,-0.015712209,-0.009716336,-0.965946,-0.5815763,-0.12609881
0.014485115,-0.015223125,-0.00941389,-0.93587846,-0.5634732,-0.12217365
0.014034228,-0.014749266,-0.009120858,-0.90674686,-0.54593366,-0.11837069
0.0135973785,-0.014290159,-0.008836949,-0.8785221,-0.52894014,-0.11468611
0.013174127,-0.013845343,-0.0085618775,-0.85117596,-0.51247555,-0.11111622
