ax,ay,az,gx,gy,gz
-0.5563687,1.5745598,-4.650042,13.483759,3.8836715,14.315584
-1.6615964,0.73523474,-5.5672207,-3.613667,-3.1721716,25.030573
-2.709754,-0.32805705,-6.01021,-3.7672784,-19.0903,29.249641
-2.865267,-0.7420128,-5.948222,-2.6658208,-29.971436,28.290083
-2.4331102,-1.0156763,-5.723445,4.218807,-32.849083,24.659208
-2.0066245,-0.9980224,-5.70434,8.368995,-34.099514,23.952034
-1.6881108,-0.9402147,-5.689305,8.263377,-35.112804,24.645256
-1.5120393,-1.1208949,-5.6670237,8.314099,-36.6369,23.69582
-1.4007338,-1.5016911,-5.563028,10.55641,-39.11229,20.414259
-1.2492795,-1.8113072,-5.3731384,14.0821085,-41.712406,17.644474
-1.0434881,-2.0003476,-5.141989,15.62655,-43.497658,18.47514
-0.86579823,-2.1421256,-4.918681,15.526479,-44.38808,22.909517
-0.79334396,-2.2048059,-4.7134805,14.056669,-45.208817,29.449692
-0.8156899,-2.2160063,-4.4976096,11.576357,-45.824203,35.578224
-0.9210474,-2.2890337,-4.2912784,11.603691,-46.93403,38.87514
-1.0377156,-2.2901688,-4.143481,13.510057,-48.74304,40.814926
-1.0496235,-2.1530762,-4.0038886,14.70011,-51.10401,42.674885
-0.98158145,-1.9946175,-3.826332,15.407869,-53.213413,44.803223
-0.91150045,-1.8278855,-3.6001985,14.810733,-54.784397,47.210136
-0.8849183,-1.7718267,-3.3588002,14.726789,-55.824287,48.767906
-0.8949711,-1.803647,-3.138713,15.909828,-57.29811,50.086296
-0.8132907,-1.6847234,-2.9477563,16.740719,-58.961685,52.15583
-0.6301114,-1.4472159,-2.7691252,16.353504,-60.181965,54.59802
-0.41165382,-1.2073563,-2.5989194,15.856918,-60.830402,56.152287
-0.21052915,-0.9694292,-2.423606,15.568312,-60.733105,56.56583
-0.03476489,-0.68641657,-2.2627447,14.818865,-60.493534,57.138287
0.15276253,-0.29632774,-2.1043956,12.972624,-60.116676,57.654552
0.3574256,0.08769083,-1.9509438,10.473511,-59.31379,57.225906
0.5571807,0.41051114,-1.8147782,7.6674023,-58.050045,55.40026
0.7388622,0.62260795,-1.6921421,5.0795493,-56.11785,52.22497
0.84402037,0.74090517,-1.6059932,2.5360708,-54.253773,49.62478
0.9262929,0.82155484,-1.5013005,-0.1449362,-52.518105,47.851437
1.0380188,0.9039752,-1.376664,-2.4132702,-50.372314,46.126926
1.1476014,1.0191942,-1.2792305,-4.4466386,-47.79337,43.83313
1.2295979,1.1617118,-1.2212018,-6.5115185,-45.19303,40.51194
1.2693782,1.2752328,-1.2127278,-8.560538,-42.895863,36.75738
1.2760206,1.3582063,-1.2305524,-10.7391615,-41.02873,33.10017
1.2710868,1.4326426,-1.2492923,-13.132015,-39.445232,29.700815
1.2702706,1.514434,-1.2781053,-15.727706,-37.93571,26.553045
1.2637155,1.6027243,-1.323772,-18.890873,-36.637817,23.461922
1.2359922,1.6334006,-1.3898555,-21.764736,-35.810745,19.66236
1.1810023,1.5763512,-1.4527786,-23.884977,-35.852936,15.130004
1.126062,1.4925596,-1.4756514,-26.061172,-36.296974,11.0238285
1.0908953,1.382355,-1.4396527,-28.670332,-36.616245,7.924728
1.056738,1.2172432,-1.3700129,-31.1319,-36.355793,5.9255195
1.0042052,1.013496,-1.280323,-33.063965,-35.902626,4.048277
0.9502152,0.8110428,-1.1793182,-34.43601,-35.246975,2.2611344
0.8872713,0.60762084,-1.0758306,-35.35248,-34.500725,0.8731304
0.82896066,0.41346627,-0.96230215,-36.03875,-33.728153,0.031778876
0.78658134,0.22958621,-0.840439,-36.199196,-32.710846,-0.37903473
0.7500351,0.073375374,-0.7176906,-35.925224,-31.477915,-0.85000145
0.71892214,-0.060448036,-0.6070478,-35.323788,-30.01996,-1.2291152
0.6987468,-0.15130056,-0.5142077,-34.708534,-28.309547,-1.2512604
0.6771012,-0.19752571,-0.44681057,-34.303177,-26.41981,-0.8421871
0.6353239,-0.22695878,-0.40235955,-33.80977,-24.608429,-0.5534403
0.57030046,-0.26652882,-0.3818208,-32.953854,-23.000687,-0.67615795
0.51284343,-0.2933113,-0.36581254,-31.984623,-21.634197,-1.0372772
0.49603608,-0.28369865,-0.3538238,-30.936394,-20.925182,-1.0032827
0.47983083,-0.27443036,-0.34226456,-29.925718,-20.241568,-0.97050595
0.4642014,-0.2654914,-0.33111605,-28.950953,-19.582243,-0.93889385
0.44912308,-0.25686762,-0.32036063,-28.01056,-18.946167,-0.9083964
0.43457258,-0.24854575,-0.30998173,-27.103086,-18.332357,-0.8789666
0.420528,-0.2405132,-0.29996368,-26.227163,-17.73989,-0.85056
0.40696853,-0.23275812,-0.2902917,-25.381498,-17.167887,-0.82313466
0.39387462,-0.22526929,-0.28095177,-24.564867,-16.615522,-0.7966509
0.38122764,-0.2180361,-0.27193066,-23.776112,-16.082012,-0.77107114
0.36901006,-0.21104848,-0.2632158,-23.014133,-15.566616,-0.7463599
0.35720515,-0.20429687,-0.25479534,-22.277895,-15.068627,-0.7224832
0.34579703,-0.19777222,-0.24665791,-21.566402,-14.5873785,-0.6994092
0.33477065,-0.19146587,-0.23879276,-20.878716,-14.122232,-0.6771072
0.3241116,-0.18536964,-0.23118965,-20.213943,-13.672584,-0.6555483
0.3138063,-0.17947571,-0.22383884,-19.571228,-13.237856,-0.6347047
0.30384162,-0.1737766,-0.21673101,-18.949759,-12.817498,-0.6145502
0.29420516,-0.1682652,-0.2098573,-18.34876,-12.410986,-0.59505945
0.28488505,-0.16293472,-0.20320922,-17.767488,-12.017818,-0.57620853
0.27586988,-0.15777868,-0.1967787,-17.205238,-11.637516,-0.5579745
0.26714885,-0.15279083,-0.19055796,-16.661331,-11.26962,-0.5403353
0.25871152,-0.14796527,-0.18453959,-16.135118,-10.913693,-0.52326995
0.25054795,-0.14329626,-0.17871648,-15.625979,-10.569315,-0.50675833
0.24264859,-0.13877836,-0.17308185,-15.133319,-10.236082,-0.49078107
0.23500428,-0.13440634,-0.16762915,-14.656565,-9.913609,-0.4753197
0.22760627,-0.13017519,-0.16235213,-14.195171,-9.601524,-0.46035647
0.2204461,-0.12608007,-0.15724476,-13.748611,-9.299475,-0.44587433
0.21351568,-0.12211634,-0.15230128,-13.3163805,-9.007116,-0.43185687
0.20680724,-0.11827958,-0.14751613,-12.897994,-8.724122,-0.41828838
0.2003133,-0.114565484,-0.14288399,-12.492985,-8.450176,-0.40515372
0.19402665,-0.110969946,-0.1383997,-12.1009035,-8.184975,-0.39243832
0.18794036,-0.10748901,-0.13405834,-11.721319,-7.9282265,-0.38012823
0.18204778,-0.10411887,-0.12985516,-11.353816,-7.67965,-0.3682099
0.17634252,-0.100855835,-0.12578556,-10.997993,-7.4389734,-0.3566704
0.17081833,-0.09769639,-0.121845156,-10.653465,-7.2059374,-0.34549722
0.1654693,-0.09463711,-0.118029684,-10.319861,-6.98029,-0.33467826
0.16028969,-0.09167472,-0.114335045,-9.996823,-6.7617884,-0.32420197
0.15527394,-0.088806055,-0.1107573,-9.684005,-6.5502,-0.3140571
0.15041672,-0.086028054,-0.10729262,-9.381073,-6.345299,-0.3042329
0.14571285,-0.08333778,-0.10393736,-9.087707,-6.1468678,-0.29471886
0.1411574,-0.08073237,-0.100687936,-8.803596,-5.954697,-0.285505
0.13674556,-0.07820909,-0.09754095,-8.528441,-5.768584,-0.27658162
0.13247268,-0.0757653,-0.0944931,-8.261953,-5.588333,-0.26793927
0.12833428,-0.07339842,-0.09154117,-8.003853,-5.413756,-0.25956896
0.124326065,-0.071105994,-0.0886821,-7.7538714,-5.24467,-0.25146192
0.120443836,-0.068885624,-0.0859129,-7.511748,-5.0808992,-0.24360974
0.11668358,-0.066735014,-0.08323069,-7.2772307,-4.922273,-0.23600423
0.11304138,-0.06465192,-0.0806327,-7.050077,-4.768628,-0.22863752
0.10951348,-0.06263421,-0.07811624,-6.8300514,-4.619804,-0.22150198
0.10609623,-0.060679775,-0.075678706,-6.616927,-4.475648,-0.21459025
0.10278612,-0.058786616,-0.073317595,-6.410485,-4.3360114,-0.20789522
0.09957973,-0.056952782,-0.071030475,-6.210511,-4.200751,-0.20140998
0.09647378,-0.055176396,-0.06881499,-6.0168023,-4.0697274,-0.1951279
0.09346509,-0.05345563,-0.06666889,-5.8291583,-3.942806,-0.18904251
0.09055057,-0.051788725,-0.064589955,-5.647388,-3.8198578,-0.18314761
0.08772725,-0.050173976,-0.06257607,-5.471305,-3.7007563,-0.17743716
0.08499224,-0.048609737,-0.06062518,-5.30073,-3.5853806,-0.17190532
0.08234276,-0.047094416,-0.0587353,-5.1354895,-3.4736128,-0.16654648
0.0797761,-0.045626465,-0.056904495,-4.9754143,-3.3653388,-0.16135517
0.07728966,-0.04420439,-0.055130914,-4.8203416,-3.260449,-0.15632609
0.07488091,-0.042826753,-0.053412747,-4.670115,-3.1588364,-0.15145417
0.07254741,-0.04149215,-0.051748257,-4.524581,-3.060398,-0.14673442
0.07028679,-0.040199228,-0.050135747,-4.383592,-2.9650342,-0.14216208
0.06809676,-0.03894668,-0.04857359,-4.247006,-2.872648,-0.13773252
0.06597509,-0.037733234,-0.047060203,-4.1146836,-2.7831461,-0.13344124
0.063919656,-0.036557663,-0.045594055,-3.9864917,-2.6964378,-0.1292839
0.061928365,-0.035418782,-0.04417366,-3.8623002,-2.6124356,-0.12525633
0.059999205,-0.034315437,-0.042797588,-3.7419841,-2.5310545,-0.12135441
0.05813024,-0.033246513,-0.041464444,-3.6254215,-2.4522123,-0.11757423
0.05631957,-0.032210935,-0.04017289,-3.512495,-2.3758297,-0.11391197
0.054565374,-0.031207655,-0.03892162,-3.403091,-2.3018293,-0.11036394
0.052865885,-0.030235665,-0.03770937,-3.2970986,-2.2301369,-0.10692655
0.051219393,-0.029293982,-0.03653492,-3.1944113,-2.1606798,-0.10359635
0.049624234,-0.028381662,-0.035397094,-3.0949256,-2.0933883,-0.10036999
0.048078805,-0.027497783,-0.034294736,-2.9985418,-2.028195,-0.0972442
0.046581555,-0.026641458,-0.03322674,-2.9051623,-1.9650335,-0.09421586
0.04513097,-0.025811823,-0.032192037,-2.8146935,-1.903841,-0.09128191
0.0437256,-0.025008047,-0.031189581,-2.7270443,-1.8445556,-0.08843941
0.042364027,-0.024229322,-0.030218368,-2.6421268,-1.787118,-0.08568549
0.041044883,-0.023474861,-0.02927742,-2.5598555,-1.7314701,-0.083017394
0.039766844,-0.02274391,-0.02836579,-2.4801478,-1.6775564,-0.08043243
0.03852863,-0.022035735,-0.02748257,-2.4029236,-1.6253225,-0.077928014
0.03732899,-0.021349624,-0.026626863,-2.3281054,-1.574716,-0.07550162
0.036166724,-0.020684889,-0.025797816,-2.2556183,-1.525686,-0.07315083
0.03504067,-0.020040862,-0.024994597,-2.1853893,-1.4781835,-0.07087326
0.033949688,-0.019416897,-0.0242164,-2.117348,-1.4321609,-0.06866665
0.032892693,-0.018812368,-0.023462443,-2.0514262,-1.3875717,-0.066528775
0.03186862,-0.018226668,-0.022731971,-1.9875576,-1.3443714,-0.06445748
0.030876448,-0.017659213,-0.02202425,-1.9256784,-1.3025168,-0.062450714
0.029915176,-0.017109431,-0.02133857,-1.8657265,-1.2619658,-0.060506444
0.028983843,-0.016576773,-0.02067425,-1.8076417,-1.2226776,-0.058622725
0.028081512,-0.0160607,-0.020030614,-1.751366,-1.184613,-0.056797676
0.027207285,-0.015560702,-0.019407025,-1.6968428,-1.1477338,-0.05502946
0.02636028,-0.015076275,-0.018802855,-1.6440176,-1.1120032,-0.05331631
0.025539653,-0.014606932,-0.0182175,-1.5928373,-1.0773852,-0.05165651
0.02474458,-0.014152205,-0.017650373,-1.5432508,-1.0438452,-0.050048396
0.023974264,-0.013711637,-0.017100904,-1.4952084,-1.0113496,-0.048490353
0.023227936,-0.013284788,-0.016568545,-1.4486619,-0.9798658,-0.046980828
0.022504846,-0.01287123,-0.016052764,-1.4035648,-0.9493624,-0.045518305
0.02180427,-0.012470548,-0.015553041,-1.3598717,-0.91980875,-0.04410132
0.021125507,-0.012082343,-0.015068878,-1.3175392,-0.89117527,-0.042728458
0.02046788,-0.011706225,-0.01459979,-1.2765248,-0.86343336,-0.041398335
0.019830726,-0.011341816,-0.014145307,-1.2367873,-0.8365552,-0.04010963
0.01921341,-0.010988754,-0.013704974,-1.198287,-0.81051385,-0.038861047
0.018615313,-0.010646684,-0.01327835,-1.1609855,-0.78528327,-0.037651338
0.018035838,-0.010315264,-0.012865009,-1.1248451,-0.7608382,-0.03647929
0.017474404,-0.009994161,-0.012464536,-1.08983,-0.7371542,-0.035343733
0.016930448,-0.009683057,-0.012076532,-1.0559051,-0.71420753,-0.034243528
0.016403427,-0.009381637,-0.011700606,-1.0230362,-0.6919753,-0.033177577
0.015892813,-0.0090896,-0.011336384,-0.9911907,-0.6704352,-0.032144807
0.015398096,-0.008806656,-0.010983502,-0.96033657,-0.64956564,-0.031144194
0.014918781,-0.00853252,-0.010641605,-0.9304429,-0.6293458,-0.03017473
0.014454386,-0.008266918,-0.010310351,-0.90147996,-0.6097554,-0.029235445
0.014004449,-0.008009586,-0.00998941,-0.8734186,-0.5907749,-0.028325403
0.013568519,-0.007760263,-0.009678459,-0.84623086,-0.57238525,-0.02744369
0.013146159,-0.007518702,-0.009377189,-0.8198895,-0.5545681,-0.026589425
0.012736947,-0.0072846613,-0.009085297,-0.7943681,-0.5373056,-0.025761753
0.012340475,-0.007057906,-0.008802492,-0.76964116,-0.5205805,-0.024959847
0.011956343,-0.0068382095,-0.008528491,-0.74568397,-0.504376,-0.024182905
0.011584171,-0.0066253524,-0.008263019,-0.7224726,-0.48867592,-0.023430148
0.0112235835,-0.006419121,-0.008005811,-0.6999838,-0.47346464,-0.022700824
0.010874221,-0.0062193093,-0.0077566095,-0.678195,-0.45872682,-0.021994201
0.010535734,-0.006025718,-0.007515166,-0.65708447,-0.44444782,-0.021309579
0.010207783,-0.005838153,-0.0072812377,-0.63663113,-0.4306133,-0.020646265
