ax,ay,az,gx,gy,gz
-0.8790989,3.3536668,-2.2754753,30.573006,20.086546,40.949463
-0.8685695,4.218137,-2.0236742,22.316784,21.072573,32.780216
-0.7656187,4.974947,-1.6944734,14.828776,23.020432,22.383898
-0.58626807,5.6359406,-1.4096463,6.342574,26.693665,12.675587
-0.2657872,6.345274,-1.1409827,-3.5675232,31.09705,3.9244733
-0.016760124,6.790231,-1.0400368,-12.61328,35.597046,-4.472232
0.09967109,6.997153,-1.147077,-20.683039,39.619804,-12.423391
0.09254947,7.004799,-1.429815,-27.778748,42.51039,-20.733488
0.0035593235,6.835397,-1.8188273,-34.070206,43.165787,-29.35409
-0.15185025,6.4866533,-2.2881625,-39.521786,41.86492,-37.070675
-0.36798304,5.974418,-2.792487,-44.705208,38.660175,-43.319588
-0.63350856,5.2560368,-3.316256,-48.55727,33.6731,-48.479336
-0.92334956,4.3428583,-3.846376,-50.169235,26.863516,-52.132973
-1.2025198,3.3338878,-4.3440065,-48.542686,16.77314,-53.933075
-1.3245734,2.2088552,-4.6925325,-45.102333,5.568182,-53.55061
-1.2874731,1.1142012,-4.859744,-40.063904,-5.68192,-50.327457
-1.1228303,0.18659626,-4.8565173,-33.981247,-16.05857,-44.632233
-0.87794065,-0.47382644,-4.7030067,-27.076777,-25.081493,-37.83696
-0.5884621,-0.8518359,-4.4156733,-19.551943,-32.047794,-31.261177
-0.27910137,-0.8550249,-3.925107,-12.975859,-37.41712,-25.101023
0.0441731,-0.5979559,-3.2979076,-8.405231,-41.17227,-19.701796
0.3637301,-0.16640396,-2.5735178,-6.1351485,-42.87455,-14.856369
0.6603942,0.36959678,-1.8346035,-6.170357,-42.275246,-10.838331
0.8922306,0.8931315,-1.1742462,-7.4522476,-39.099194,-8.64117
1.0286355,1.3593745,-0.68012404,-8.802558,-34.721798,-7.818166
1.1019387,1.7599406,-0.3408684,-10.415942,-29.657564,-8.395358
1.1270666,2.0769343,-0.14581682,-12.30767,-24.364689,-9.946617
1.107351,2.3272638,-0.0703177,-14.3524065,-19.183529,-12.041518
1.0476923,2.5423136,-0.095324144,-16.601917,-14.751241,-15.018762
0.96751726,2.7076564,-0.20622315,-18.961475,-11.140575,-18.439423
0.8873994,2.8196566,-0.36872604,-21.406673,-8.58873,-22.162523
0.80299395,2.8599122,-0.56693375,-23.952888,-6.9999948,-25.959486
0.71550906,2.827979,-0.7780854,-26.511734,-6.2386417,-29.576294
0.6284843,2.7352223,-0.996697,-29.154,-6.4930496,-32.720703
0.53549415,2.5360668,-1.2380306,-31.501429,-7.4379077,-35.47479
0.44713438,2.2440338,-1.4974587,-33.215057,-9.10068,-37.793762
0.3818857,1.8673975,-1.7584534,-34.15184,-11.381229,-39.510796
0.3422388,1.4102545,-2.0056863,-34.196205,-14.1287365,-40.28783
0.31085643,0.9058292,-2.2268648,-32.964092,-17.3913,-39.38096
0.26782382,0.4007894,-2.4070292,-30.828064,-20.968992,-37.258026
0.21185625,-0.056190696,-2.5529008,-27.84019,-24.837168,-34.340103
0.16375834,-0.44244328,-2.663172,-24.120106,-29.034397,-30.938593
0.14260878,-0.7444023,-2.7180347,-19.857037,-33.60593,-27.092875
0.16223294,-0.91830665,-2.6928856,-15.28821,-38.588234,-22.850058
0.26491752,-0.88665503,-2.51155,-10.986833,-43.33029,-18.775352
0.4175072,-0.72980595,-2.2132723,-7.4914503,-47.31999,-14.820558
0.588896,-0.4984867,-1.8329661,-4.787006,-50.30034,-11.184799
0.76302963,-0.2284774,-1.4119955,-2.5901604,-52.12552,-8.270279
0.9394671,0.042316455,-0.9938281,-0.8745596,-52.30235,-6.4317636
1.1118896,0.27400923,-0.6270548,0.61193544,-51.110558,-5.2245336
1.2627218,0.46649057,-0.3323439,1.8469971,-48.690945,-4.3484154
1.2203426,0.4508343,-0.32118985,1.7850087,-47.05679,-4.202475
1.1795744,0.4357732,-0.31045982,1.7253766,-45.484756,-4.062082
1.1403387,0.4212782,-0.30013308,1.6679859,-43.97181,-3.9269662
1.1025618,0.40732226,-0.2901904,1.6127294,-42.51513,-3.796875
1.0661758,0.39388007,-0.2806137,1.5595071,-41.11207,-3.671573
1.0311164,0.38092798,-0.27138618,1.5082253,-39.76017,-3.5508394
0.99732375,0.36844388,-0.2624921,1.4587965,-38.457115,-3.4344683
0.9647417,0.356407,-0.2539166,1.4111383,-37.200737,-3.3222659
0.93331736,0.34479782,-0.24564582,1.3651736,-35.989006,-3.2140503
0.90300107,0.333598,-0.23766668,1.3208296,-34.82,-3.1096506
0.87374604,0.32279024,-0.22996686,1.278038,-33.691917,-3.0089056
0.84550816,0.31235826,-0.22253476,1.2367342,-32.603058,-2.9116633
0.8182457,0.3022866,-0.21535937,1.196857,-31.551807,-2.81778
0.79191923,0.29256076,-0.20843033,1.158349,-30.536652,-2.72712
0.7664914,0.2831669,-0.20173784,1.1211555,-29.556147,-2.6395545
0.7419269,0.27409196,-0.19527254,1.0852246,-28.60893,-2.5549622
0.7181921,0.26532355,-0.18902561,1.0505075,-27.693708,-2.4732268
0.69525504,0.25684986,-0.18298867,1.0169573,-26.809252,-2.394239
0.6730856,0.24865972,-0.17715374,0.9845297,-25.954388,-2.3178942
0.65165466,0.24074244,-0.1715132,0.95318246,-25.128006,-2.244093
0.6309349,0.2330879,-0.16605984,0.92287546,-24.329046,-2.1727407
0.61090004,0.22568637,-0.16078673,0.8935703,-23.556496,-2.103747
0.59152514,0.21852864,-0.15568732,0.8652303,-22.809393,-2.037026
0.5727862,0.21160588,-0.1507553,0.8378207,-22.086813,-1.9724948
0.55466044,0.20490962,-0.14598466,0.81130797,-21.387878,-1.9100754
0.537126,0.19843185,-0.14136967,0.78566015,-20.711746,-1.8496925
0.52016205,0.1921648,-0.1369048,0.76084673,-20.05761,-1.7912738
0.5037485,0.18610108,-0.13258481,0.73683846,-19.424696,-1.7347507
0.4878661,0.18023363,-0.12840463,0.71360713,-18.81227,-1.6800569
0.47249657,0.17455563,-0.12435943,0.691126,-18.219614,-1.6271291
0.45762223,0.16906056,-0.12044455,0.6693691,-17.646055,-1.5759065
0.44322607,0.16374215,-0.116655536,0.6483117,-17.090935,-1.5263307
0.42929187,0.1585944,-0.11298811,0.62793,-16.553629,-1.4783458
0.41580397,0.15361153,-0.109438136,0.6082011,-16.033531,-1.4318976
0.40274733,0.14878798,-0.106001675,0.589103,-15.530062,-1.3869346
0.39010745,0.1441184,-0.10267491,0.5706145,-15.042665,-1.343407
0.37787047,0.13959765,-0.09945417,0.5527153,-14.570803,-1.3012667
0.36602294,0.1352208,-0.09633595,0.5353858,-14.113958,-1.2604675
0.35455197,0.13098305,-0.09331682,0.5186071,-13.671635,-1.2209651
0.34344515,0.12687983,-0.09039355,0.502361,-13.243351,-1.1827167
0.33269048,0.12290669,-0.087562956,0.48663002,-12.828648,-1.1456809
0.32227638,0.11905939,-0.08482201,0.47139725,-12.427077,-1.1098181
0.31219178,0.11533381,-0.082167774,0.45664638,-12.038212,-1.0750899
0.3024259,0.11172598,-0.07959743,0.4423617,-11.661636,-1.0414593
0.2929684,0.108232066,-0.07710825,0.42852813,-11.296952,-1.0088907
0.28380927,0.104848385,-0.07469759,0.41513094,-10.943773,-0.9773495
0.27493885,0.101571366,-0.07236294,0.4021561,-10.6017275,-0.9468027
0.26634786,0.09839757,-0.07010181,0.38958997,-10.270455,-0.91721797
0.25802726,0.095323674,-0.06791186,0.37741932,-9.949611,-0.8885644
0.24996838,0.09234646,-0.065790795,0.36563152,-9.638859,-0.8608122
0.24216282,0.08946284,-0.0637364,0.35421425,-9.337873,-0.83393234
0.2346025,0.0866698,-0.06174655,0.34315565,-9.046345,-0.807897
0.22727954,0.08396446,-0.05981917,0.3324443,-8.763969,-0.782679
0.22018638,0.08134402,-0.057952277,0.32206905,-8.490456,-0.7582524
0.21331571,0.07880577,-0.05614394,0.31201926,-8.22552,-0.73459196
0.20666043,0.0763471,-0.054392297,0.3022845,-7.9688907,-0.7116733
0.20021372,0.07396547,-0.052695543,0.29285482,-7.720303,-0.68947285
0.19396894,0.07165845,-0.05105194,0.28372052,-7.4795027,-0.6679678
0.1879197,0.06942366,-0.0494598,0.27487224,-7.246242,-0.64713615
0.18205981,0.06725882,-0.0479175,0.26630092,-7.0202827,-0.6269565
0.17638327,0.06516173,-0.046423454,0.25799778,-6.801394,-0.60740834
0.1708843,0.06313023,-0.044976145,0.24995436,-6.5893517,-0.5884716
0.16555728,0.061162252,-0.04357409,0.24216248,-6.38394,-0.570127
0.1603968,0.0592558,-0.042215873,0.23461418,-6.1849504,-0.55235595
0.1553976,0.057408933,-0.0409001,0.22730179,-5.99218,-0.5351403
0.1505546,0.055619773,-0.03962544,0.22021788,-5.8054323,-0.51846254
0.14586289,0.053886503,-0.0383906,0.21335527,-5.6245184,-0.50230575
0.14131771,0.052207366,-0.037194323,0.20670699,-5.449255,-0.48665363
0.13691446,0.05058066,-0.036035404,0.2002663,-5.2794642,-0.4714902
0.13264868,0.04900474,-0.03491266,0.19402668,-5.114974,-0.45680016
0.12851603,0.04747801,-0.033824965,0.18798183,-4.9556184,-0.44256866
0.12451237,0.045998923,-0.032771215,0.18212563,-4.8012357,-0.4287813
0.12063363,0.04456599,-0.031750344,0.17645214,-4.6516705,-0.41542417
0.1168759,0.043177765,-0.030761324,0.17095567,-4.506771,-0.40248373
0.1132354,0.041832842,-0.029803155,0.16563067,-4.366392,-0.38994697
0.109708436,0.04052987,-0.028874872,0.16047174,-4.2303915,-0.37780124
0.106291465,0.03926753,-0.027975539,0.15547371,-4.098632,-0.36603427
0.102981046,0.038044553,-0.027104247,0.15063152,-3.9709811,-0.35463423
0.09977385,0.036859706,-0.026260123,0.1459403,-3.8473103,-0.34358963
0.09666663,0.0357118,-0.025442315,0.14139535,-3.7274952,-0.33288935
0.09365627,0.034599677,-0.02465,0.13699207,-3.611415,-0.32252264
0.09073975,0.03352222,-0.023882382,0.13272604,-3.4989529,-0.31247905
0.087914124,0.03247834,-0.023138687,0.12859297,-3.389996,-0.3027485
0.085176565,0.031467,-0.022418171,0.124588706,-3.2844348,-0.29332122
0.082524315,0.030487169,-0.021720108,0.120709226,-3.182163,-0.28418767
0.079954706,0.029537871,-0.021043796,0.11695063,-3.0830781,-0.27533877
0.07746516,0.028618153,-0.020388557,0.11330915,-2.9870806,-0.26676556
0.075053185,0.02772709,-0.019753732,0.10978112,-2.894074,-0.25845948
0.07271635,0.026863787,-0.019138686,0.10636301,-2.803965,-0.25041217
0.07045232,0.02602738,-0.0185428,0.10305138,-2.7166631,-0.24261554
0.06825881,0.025217026,-0.017965477,0.09984291,-2.6320808,-0.2350618
0.066133626,0.024431916,-0.017406138,0.09673439,-2.5501332,-0.22774334
0.06407464,0.02367126,-0.01686422,0.093722686,-2.4707382,-0.22065285
0.06207979,0.022934295,-0.016339181,0.09080479,-2.393816,-0.2137832
0.060147066,0.022220286,-0.015830496,0.08797778,-2.3192897,-0.20712751
0.058274537,0.021528512,-0.0153376525,0.085238814,-2.2470844,-0.20067912
0.05646033,0.020858284,-0.014860159,0.08258515,-2.1771278,-0.19443154
0.054702617,0.020208927,-0.014397535,0.080014125,-2.1093497,-0.18837854
0.05299964,0.019579794,-0.013949318,0.077523164,-2.0436826,-0.18251404
0.0513497,0.018970251,-0.013515059,0.07510977,-1.9800603,-0.17683215
0.049751133,0.01837969,-0.013094323,0.072771534,-1.9184192,-0.1713272
0.048202347,0.017807517,-0.0126866875,0.07050611,-1.8586975,-0.16599368
0.04670179,0.017253162,-0.012291745,0.06831122,-1.8008355,-0.16082622
0.045247953,0.016716067,-0.011909101,0.06618468,-1.744775,-0.15581967
0.043839384,0.016195696,-0.0115383705,0.06412435,-1.6904602,-0.150969
0.042474672,0.015691528,-0.011179184,0.062128175,-1.6378366,-0.14626937
0.04115245,0.015203056,-0.01083118,0.06019415,-1.5868514,-0.14171606
0.039871402,0.014729794,-0.010494011,0.05832034,-1.5374535,-0.13730451
0.038630232,0.014271266,-0.010167341,0.056504868,-1.4895937,-0.13303033
0.03742771,0.013827015,-0.00985084,0.054745924,-1.4432241,-0.12888922
0.036262624,0.013396594,-0.009544194,0.05304174,-1.398298,-0.12487703
0.03513381,0.012979574,-0.009247094,0.051390614,-1.3547707,-0.120989755
0.03404014,0.012575536,-0.008959245,0.04979089,-1.3125983,-0.1172235
0.03298052,0.012184078,-0.008680356,0.04824097,-1.271739,-0.1135745
0.031953886,0.011804806,-0.00841015,0.046739303,-1.2321517,-0.1100391
0.030959215,0.011437342,-0.008148355,0.045284387,-1.1937969,-0.10661376
0.029995508,0.011081317,-0.007894712,0.043874763,-1.1566361,-0.103295065
0.029061804,0.010736376,-0.007648964,0.04250902,-1.1206322,-0.10007968
0.028157165,0.010402174,-0.007410866,0.041185796,-1.085749,-0.09696439
0.027280688,0.010078375,-0.007180181,0.039903767,-1.0519519,-0.093946084
0.026431497,0.009764656,-0.006956677,0.038661644,-1.0192068,-0.09102174
0.025608743,0.0094607035,-0.0067401305,0.037458193,-0.98748106,-0.088188425
0.0248116,0.009166213,-0.0065303254,0.0362922,-0.95674294,-0.08544332
0.02403927,0.00888089,-0.006327051,0.03516251,-0.9269617,-0.08278366
0.023290984,0.008604448,-0.006130105,0.03406798,-0.8981076,-0.080206804
0.022565993,0.008336613,-0.0059392895,0.03300753,-0.8701517,-0.07771016
0.021863569,0.008077114,-0.005754414,0.031980082,-0.843066,-0.07529123
0.02118301,0.007825694,-0.0055752937,0.030984623,-0.8168235,-0.07294761
0.020523638,0.0075821,-0.0054017487,0.030020151,-0.7913978,-0.07067693
