ax,ay,az,gx,gy,gz
-0.5354594,4.7109523,-2.2536569,58.594173,27.688435,12.096474
-0.41040617,5.888801,-2.0598984,51.469,26.535654,1.4181467
-0.23124099,6.8528695,-1.6495105,37.558002,26.303732,-8.645934
0.06209755,7.669335,-1.2070181,21.29592,29.965141,-15.9277525
0.34541237,8.331433,-0.9668909,3.919427,36.31231,-24.671303
0.5401257,8.712982,-1.0412139,-11.850012,42.221737,-33.386116
0.6050487,8.802617,-1.3352015,-26.283447,47.23293,-42.742157
0.5687252,8.67235,-1.784431,-38.895824,50.51671,-51.19994
0.4315973,8.328963,-2.3692188,-50.401333,51.404224,-58.577404
0.18236104,7.6721063,-3.1091843,-61.72513,47.95833,-64.51071
-0.2676326,6.4569993,-4.0042367,-69.88726,41.486767,-69.03133
-0.75615275,5.0032506,-4.866351,-73.189316,32.112545,-72.49655
-1.1285936,3.4099233,-5.5737114,-70.54156,20.461758,-74.229706
-1.2863525,1.8861723,-6.0156126,-64.28816,7.4383364,-72.70304
-1.1913842,0.6053783,-6.119774,-56.835056,-5.4539847,-65.26345
-0.9423615,-0.2616543,-5.8544016,-48.190197,-16.71391,-55.75671
-0.6366381,-0.6645929,-5.3434343,-38.660892,-25.950605,-47.581913
-0.23949392,-0.70295715,-4.5893564,-29.56199,-32.592472,-40.33374
0.2129956,-0.41504586,-3.6518881,-22.495472,-36.261616,-32.79044
0.6495793,0.17991741,-2.6635845,-19.950085,-36.46894,-27.079573
0.97824436,0.8063631,-1.7688674,-19.8259,-34.174732,-22.771078
1.19541,1.3657144,-1.0632136,-20.646822,-29.632944,-19.967686
1.3129946,1.8420777,-0.5893658,-21.811127,-23.86994,-19.096437
1.3411177,2.2045035,-0.3420905,-22.982145,-17.75338,-19.548965
1.2905071,2.473047,-0.273286,-24.241533,-11.984143,-20.98259
1.1614016,2.6654449,-0.3653424,-25.793077,-7.1664743,-22.859213
0.99469316,2.8041985,-0.5374207,-27.632748,-3.5129063,-25.078365
0.80734676,2.8913574,-0.7683239,-29.341526,-1.1990732,-27.871763
0.6166018,2.91296,-1.0309566,-30.950802,-0.2248785,-31.22391
0.44353914,2.850795,-1.3081558,-32.32097,-0.8902753,-34.875126
0.31202444,2.6665485,-1.5901021,-33.76548,-2.6683307,-37.973164
0.20004708,2.3950891,-1.8711782,-35.120937,-5.2394204,-40.222816
0.09054865,2.0462656,-2.1545973,-35.842953,-8.471473,-41.70303
-0.021814562,1.6458287,-2.423981,-35.486385,-12.377757,-42.68845
-0.11370578,1.2156194,-2.650779,-34.12248,-17.218416,-42.692238
-0.1483868,0.7725507,-2.779123,-32.314884,-22.30608,-41.285862
-0.13986214,0.38280833,-2.8144445,-30.413975,-27.568378,-38.246918
-0.09188228,0.09740929,-2.7586322,-28.264591,-32.730938,-34.86278
-0.005193619,-0.09716625,-2.6167443,-25.972858,-37.372086,-31.783634
0.11957578,-0.23025948,-2.3896437,-23.329197,-40.841843,-28.619505
0.26510164,-0.25881633,-2.0829222,-20.53328,-43.28113,-25.488422
0.38433337,-0.21570593,-1.7553507,-17.881,-44.988586,-22.426346
0.4933482,-0.12567869,-1.4211818,-15.35038,-46.02802,-19.560453
0.6070831,-0.002419864,-1.0934073,-13.07172,-46.139683,-16.801762
0.714463,0.124438204,-0.8012402,-10.747073,-45.05456,-14.137218
0.7935724,0.25282386,-0.5688592,-8.11268,-43.47408,-11.749824
0.7661815,0.24409741,-0.5492245,-7.832663,-41.97353,-11.344267
0.73990315,0.2357254,-0.5303873,-7.5640197,-40.533928,-10.955183
0.7146766,0.22768849,-0.51230407,-7.306129,-39.15195,-10.581673
0.69044584,0.21996881,-0.49493465,-7.0584183,-37.824524,-10.222906
0.66715896,0.21254987,-0.47824183,-6.820357,-36.548805,-9.878116
0.64476794,0.2054163,-0.4621912,-6.5914536,-35.322163,-9.546588
0.6232281,0.19855393,-0.4467507,-6.371252,-34.142147,-9.227664
0.6024978,0.1919495,-0.43189055,-6.159327,-33.00649,-8.920727
0.5825385,0.18559065,-0.41758305,-5.9552827,-31.913061,-8.625204
0.5633139,0.1794659,-0.40380222,-5.7587504,-30.859884,-8.34056
0.54479027,0.17356448,-0.39052385,-5.5693836,-29.84511,-8.066295
0.52693594,0.16787627,-0.37772527,-5.386859,-28.867,-7.8019395
0.5097212,0.16239184,-0.36538517,-5.2108727,-27.92393,-7.547054
0.49311817,0.15710229,-0.35348356,-5.04114,-27.014368,-7.301225
0.47710055,0.15199924,-0.34200162,-4.8773923,-26.13688,-7.064065
0.46164367,0.14707483,-0.3309216,-4.719377,-25.29011,-6.8352065
0.44672418,0.14232165,-0.32022682,-4.566855,-24.472778,-6.614305
0.43232006,0.13773264,-0.30990145,-4.419602,-23.683681,-6.401034
0.41841045,0.1333012,-0.2999306,-4.2774043,-22.921677,-6.1950855
0.40497568,0.12902102,-0.2903001,-4.140061,-22.185682,-5.9961667
0.391997,0.12488615,-0.28099656,-4.00738,-21.474674,-5.8040013
0.37945673,0.12089094,-0.27200726,-3.879181,-20.787683,-5.618327
0.36733797,0.11703003,-0.26332012,-3.755291,-20.123783,-5.438894
0.3556247,0.113298304,-0.25492367,-3.6355464,-19.4821,-5.2654643
0.3443017,0.10969091,-0.24680695,-3.5197914,-18.861794,-5.097813
0.3333544,0.10620322,-0.23895957,-3.4078774,-18.262072,-4.935725
0.32276902,0.10283083,-0.2313716,-3.299663,-17.682173,-4.778995
0.31253225,0.09956951,-0.22403355,-3.1950128,-17.121376,-4.627427
0.30263156,0.09641524,-0.2169364,-3.0937982,-16.578989,-4.480835
0.2930548,0.093364194,-0.21007147,-2.9958951,-16.054348,-4.3390393
0.2837905,0.09041268,-0.2034305,-2.9011862,-15.5468235,-4.20187
0.27482757,0.08755719,-0.19700558,-2.8095584,-15.05581,-4.069163
0.26615545,0.08479434,-0.19078912,-2.7209036,-14.580729,-3.9407613
0.257764,0.08212092,-0.18477386,-2.635118,-14.121022,-3.8165157
0.24964353,0.079533815,-0.17895283,-2.5521023,-13.676159,-3.696282
0.24178466,0.07703006,-0.17331932,-2.4717612,-13.245629,-3.5799215
0.23417847,0.074606806,-0.16786695,-2.3940032,-12.82894,-3.4673023
0.22681634,0.07226131,-0.16258952,-2.3187404,-12.425623,-3.3582969
0.21969,0.06999093,-0.15748113,-2.2458878,-12.035222,-3.2527826
0.21279152,0.06779315,-0.15253606,-2.1753647,-11.657305,-3.1506422
0.20611325,0.06566552,-0.14774886,-2.1070929,-11.2914505,-3.051762
0.19964784,0.06360571,-0.14311424,-2.040997,-10.937258,-2.9560337
0.1933882,0.061611455,-0.13862711,-1.9770049,-10.594337,-2.8633518
0.18732752,0.059680585,-0.13428262,-1.9150466,-10.262317,-2.7736158
0.18145922,0.057811007,-0.13007602,-1.8550551,-9.940835,-2.6867285
0.17577699,0.056000706,-0.1260028,-1.7969657,-9.629546,-2.602596
0.1702747,0.054247737,-0.12205859,-1.740716,-9.328116,-2.521128
0.16494651,0.05255023,-0.118239164,-1.6862458,-9.036223,-2.4422374
0.1597867,0.05090637,-0.11454044,-1.6334972,-8.753555,-2.3658402
0.15478984,0.04931442,-0.110958524,-1.5824143,-8.479813,-2.2918553
0.14995061,0.047772694,-0.1074896,-1.532943,-8.214706,-2.2202046
0.14526393,0.046279564,-0.10413003,-1.4850311,-7.9579573,-2.1508124
0.14072487,0.04483347,-0.10087629,-1.4386284,-7.7092953,-2.083606
0.13632868,0.04343289,-0.09772495,-1.3936863,-7.46846,-2.018515
0.13207078,0.042076368,-0.09467274,-1.3501577,-7.2352004,-1.9554715
0.12794672,0.040762484,-0.091716476,-1.3079975,-7.009273,-1.8944097
0.12395221,0.039489876,-0.08885308,-1.2671617,-6.790443,-1.8352661
0.12008313,0.038257226,-0.0860796,-1.2276082,-6.578484,-1.7779795
0.11633546,0.03706326,-0.08339314,-1.1892958,-6.3731766,-1.7224907
0.11270534,0.03590674,-0.08079095,-1.1521851,-6.1743083,-1.6687422
0.109189026,0.03478648,-0.07827034,-1.1162379,-5.981675,-1.6166788
0.105782904,0.033701327,-0.075828716,-1.0814172,-5.7950783,-1.566247
0.10248348,0.03265016,-0.07346358,-1.0476872,-5.614327,-1.5173949
0.09928736,0.031631913,-0.0711725,-1.0150133,-5.4392347,-1.4700724
0.09619129,0.030645538,-0.06895313,-0.9833622,-5.2696233,-1.4242312
0.09319209,0.029690024,-0.0668032,-0.95270145,-5.105319,-1.3798244
0.09028671,0.0287644,-0.06472053,-0.9229998,-4.946154,-1.3368065
0.08747218,0.027867721,-0.062702976,-0.8942269,-4.7919664,-1.295134
0.08474564,0.026999073,-0.060748503,-0.8663535,-4.642599,-1.2547642
0.08210431,0.026157573,-0.058855113,-0.83935124,-4.4979,-1.215656
0.07954551,0.025342368,-0.05702088,-0.81319267,-4.357722,-1.1777699
0.07706665,0.024552628,-0.05524395,-0.7878513,-4.221923,-1.1410673
0.0746652,0.023787552,-0.053522512,-0.7633014,-4.0903654,-1.1055108
0.072338745,0.023046367,-0.05185483,-0.739518,-3.9629154,-1.0710648
0.070084915,0.02232832,-0.05023921,-0.71647716,-3.8394446,-1.0376941
0.06790144,0.021632688,-0.048674017,-0.69415545,-3.7198277,-1.0053649
0.0657861,0.020958763,-0.047157675,-0.6725304,-3.6039436,-0.97404474
0.063736774,0.020305868,-0.045688644,-0.65158015,-3.4916756,-0.94370186
0.061751377,0.019673342,-0.04426545,-0.63128346,-3.3829103,-0.9143056
0.059827913,0.019060547,-0.042886645,-0.61161995,-3.2775376,-0.8858264
0.057964444,0.018466866,-0.04155085,-0.5925697,-3.1754518,-0.8582354
0.05615909,0.017891698,-0.04025671,-0.5741136,-3.0765493,-0.8315049
0.05441003,0.017334465,-0.039002925,-0.556233,-2.980731,-0.8056079
0.052715503,0.016794607,-0.037788235,-0.53890985,-2.8879004,-0.78051835
0.051073804,0.01627158,-0.036611408,-0.5221268,-2.7979636,-0.756211
0.049483284,0.015764857,-0.03547127,-0.50586694,-2.7108305,-0.73266137
0.04794234,0.015273928,-0.03436667,-0.49011388,-2.6264133,-0.7098457
0.046449423,0.014798299,-0.033296496,-0.47485182,-2.5446272,-0.6877413
0.045003034,0.014337495,-0.032259677,-0.46006536,-2.46539,-0.6663256
0.043601714,0.01389105,-0.031255163,-0.44573972,-2.3886218,-0.64557743
0.04224406,0.013458516,-0.030281955,-0.43186048,-2.314246,-0.6254757
0.040928714,0.0130394595,-0.029339068,-0.41841367,-2.2421875,-0.6060003
0.039654344,0.012633459,-0.028425558,-0.40538582,-2.172374,-0.5871317
0.03841968,0.012240107,-0.027540509,-0.39276385,-2.1047356,-0.56885093
0.037223477,0.01185901,-0.02668303,-0.38053507,-2.0392044,-0.55113965
0.036064535,0.011489783,-0.025852263,-0.36868724,-1.9757144,-0.53398013
0.034941696,0.011132059,-0.025047375,-0.3572085,-1.9142023,-0.51735514
0.033853833,0.010785476,-0.024267558,-0.34608728,-1.854606,-0.50124794
0.03279985,0.01044969,-0.02351203,-0.33531243,-1.796866,-0.48564246
0.0317787,0.01012436,-0.022780033,-0.3248732,-1.7409245,-0.470523
0.03078935,0.009809164,-0.022070833,-0.31475908,-1.6867251,-0.45587444
0.02983081,0.009503784,-0.021383721,-0.30495995,-1.6342138,-0.4416821
0.028902123,0.009207914,-0.020718006,-0.295466,-1.5833378,-0.42793176
0.028002357,0.008921257,-0.020073025,-0.2862677,-1.534046,-0.41460958
0.02713061,0.008643528,-0.019448128,-0.27735585,-1.4862894,-0.40170228
0.026286008,0.008374447,-0.018842688,-0.2687215,-1.4400198,-0.38919693
0.025467707,0.008113745,-0.018256104,-0.260356,-1.3951911,-0.37708095
0.024674887,0.007861161,-0.017687783,-0.25225103,-1.3517581,-0.36534226
0.023906752,0.0076164408,-0.017137159,-0.2443984,-1.3096776,-0.3539691
0.023162534,0.007379341,-0.016603678,-0.23679028,-1.2689074,-0.34295005
0.02244149,0.0071496237,-0.01608681,-0.22941905,-1.2294066,-0.33227408
0.021742895,0.006927059,-0.015586033,-0.22227733,-1.1911356,-0.3219305
0.021066051,0.0067114234,-0.015100849,-0.21535796,-1.1540562,-0.311909
0.02041028,0.0065025017,-0.014630771,-0.20865402,-1.1181313,-0.3021995
0.019774927,0.0063000848,-0.014175328,-0.20215881,-1.0833249,-0.2927923
0.019159354,0.0061039696,-0.013734065,-0.19586581,-1.0496022,-0.28367797
0.018562946,0.0059139603,-0.0133065395,-0.18976875,-1.0169293,-0.27484742
0.017985106,0.005729866,-0.0128923245,-0.1838615,-0.98527354,-0.26629177
0.017425256,0.005551504,-0.012491005,-0.17813814,-0.9546034,-0.2580025
0.016882833,0.005378694,-0.012102179,-0.17259297,-0.9248881,-0.24997127
0.016357299,0.005211264,-0.011725458,-0.16722044,-0.8960978,-0.24219008
0.015848124,0.0050490466,-0.011360465,-0.16201515,-0.8682038,-0.23465112
0.015354802,0.004891879,-0.011006835,-0.15697192,-0.84117824,-0.22734687
0.014876836,0.004739604,-0.0106642125,-0.15208569,-0.814994,-0.22027
0.01441375,0.00459207,-0.0103322575,-0.14735156,-0.78962487,-0.21341343
0.0139650805,0.004449128,-0.0100106355,-0.14276482,-0.76504546,-0.20677032
0.013530377,0.0043106363,-0.009699026,-0.13832086,-0.74123126,-0.200334
0.013109207,0.004176456,-0.009397117,-0.13401523,-0.7181584,-0.19409804
0.012701147,0.004046452,-0.009104607,-0.12984365,-0.69580376,-0.18805622
0.012305791,0.003920496,-0.0088212015,-0.12580192,-0.67414504,-0.18220247
0.01192274,0.0037984604,-0.008546619,-0.121886015,-0.6531605,-0.17653094
0.011551615,0.0036802236,-0.008280584,-0.118092,-0.63282925,-0.17103598
0.011192042,0.0035656674,-0.00802283,-0.11441609,-0.61313087,-0.16571206
0.010843663,0.0034546773,-0.0077730995,-0.11085461,-0.59404564,-0.16055386
