ax,ay,az,gx,gy,gz
-0.90455365,2.4445677,-3.180029,53.87776,52.490475,21.80656
-0.8018495,3.311467,-3.1833503,50.773693,52.89763,19.64647
-0.6416078,4.086268,-2.9447408,43.24144,53.712772,14.283703
-0.42358023,4.818422,-2.6899595,36.16688,56.013287,9.322749
-0.33625567,5.4775443,-2.5198882,29.404179,58.01571,2.7264023
-0.260088,6.127995,-2.3522654,22.2856,60.020336,-4.92658
-0.15460001,6.733302,-2.2166364,13.668928,62.421387,-14.084735
-0.09609006,7.1361485,-2.2267354,3.337836,64.43312,-24.924313
-0.16004992,7.228995,-2.4223852,-6.8704705,65.45089,-34.597122
-0.28656805,7.145767,-2.7108433,-16.224585,65.05697,-43.663486
-0.4410722,6.90859,-3.0529916,-24.62854,62.928337,-51.88211
-0.6187138,6.5178347,-3.4594631,-32.581722,58.874027,-58.964928
-0.82155776,5.880204,-3.9382598,-39.24197,51.942677,-64.718636
-1.038627,4.835623,-4.4821444,-43.650185,43.016598,-68.19485
-1.2216121,3.6240077,-4.9842806,-45.01296,32.295017,-69.466446
-1.3159653,2.357815,-5.3624406,-43.438904,20.579914,-68.049034
-1.2876736,1.1652267,-5.571278,-39.42354,8.855598,-63.858177
-1.1773459,0.14963959,-5.6112385,-32.825768,-2.056406,-56.215008
-1.0141728,-0.48413315,-5.437094,-24.935131,-11.997859,-48.132164
-0.8008922,-0.8188434,-5.1025386,-15.55957,-20.811262,-41.207905
-0.5256679,-0.87511224,-4.5699434,-6.3274035,-28.049713,-34.552845
-0.18276666,-0.58185095,-3.847835,1.3556416,-33.356453,-28.455256
0.20791613,-0.011515773,-2.9982824,4.9210424,-35.96424,-24.03618
0.6220143,0.6413801,-2.091122,5.6004257,-35.564903,-20.344954
0.9564432,1.2215675,-1.3156925,4.571577,-32.0751,-17.425924
1.1662675,1.7290086,-0.75567436,2.4987156,-26.538645,-15.813302
1.2721143,2.1460946,-0.42280346,0.29203874,-20.127518,-15.656414
1.2967943,2.46814,-0.27765,-1.9015874,-13.405948,-17.046194
1.2518874,2.6962864,-0.3110396,-4.2615066,-7.156517,-19.061447
1.160689,2.8612084,-0.44351697,-6.8456492,-1.8648888,-21.389328
1.035546,2.969624,-0.6441508,-9.532249,2.062152,-24.006987
0.9011277,3.024407,-0.88001937,-12.385318,4.7423363,-26.792603
0.77217597,3.0241904,-1.1408733,-15.407105,5.961952,-29.657938
0.651986,2.9304795,-1.421949,-18.301739,6.066139,-32.38306
0.54546165,2.7672367,-1.7082827,-21.032677,5.382557,-34.842102
0.42775837,2.5411656,-2.0114884,-23.14268,3.9721856,-37.309242
0.30117607,2.2427032,-2.318928,-24.594315,1.8920623,-39.524754
0.15616806,1.8790147,-2.614427,-25.429256,-1.383403,-40.866924
0.0013264989,1.436828,-2.8718297,-25.951105,-5.7507424,-41.02579
-0.13028555,0.95420307,-3.0774086,-26.106907,-11.061927,-39.69305
-0.22068073,0.4707779,-3.2197907,-25.700901,-16.97931,-37.100216
-0.2635581,0.024083717,-3.2850475,-24.406784,-23.29748,-33.895275
-0.23665494,-0.3492628,-3.241236,-21.74179,-29.511986,-30.269966
-0.10341543,-0.56443846,-3.0482633,-18.215141,-35.127354,-26.748215
0.09396936,-0.674466,-2.7564862,-14.56328,-39.796154,-23.060474
0.3130338,-0.69092125,-2.3866608,-11.087863,-43.342373,-19.124336
0.52899903,-0.59952575,-1.9685117,-8.151836,-45.82168,-15.118816
0.73519766,-0.43717602,-1.5433725,-5.6888456,-46.787273,-11.594206
0.9135727,-0.23874073,-1.1654235,-3.2994828,-46.567596,-8.633101
1.0482559,-0.036949802,-0.85806465,-0.9278788,-45.352947,-6.3620715
1.1376584,0.1599147,-0.61674374,1.2772411,-43.56395,-4.6550636
1.1932818,0.35014573,-0.42531598,3.2889595,-41.632774,-3.2800016
1.2331939,0.5151054,-0.25907135,4.824555,-39.522182,-1.8695511
1.2708075,0.6427974,-0.10752414,6.0243216,-37.09909,-0.00050202705
1.2967197,0.74609613,0.024109375,7.3513384,-34.39607,1.8051041
1.2539262,0.72147393,0.023313733,7.108734,-33.260952,1.7455331
1.212693,0.6977495,0.0225471,6.874975,-32.16722,1.6881342
1.1729496,0.67488223,0.021808166,6.649663,-31.11301,1.6328093
1.1346298,0.6528342,0.021095704,6.4324217,-30.096563,1.5794662
1.0976717,0.6315695,0.020408558,6.2228994,-29.116234,1.5280185
1.0620168,0.6110547,0.01974564,6.0207653,-28.170471,1.478385
1.0276102,0.59125805,0.019105932,5.8257074,-27.257818,1.430489
0.9943996,0.57214963,0.018488461,5.637431,-26.376894,1.3842582
0.9623363,0.55370134,0.017892322,5.4556584,-25.526402,1.3396243
0.93137383,0.53588635,0.017316649,5.2801266,-24.705107,1.2965229
0.9014683,0.51867956,0.016760627,5.1105866,-23.911848,1.2548927
0.872578,0.5020569,0.016223483,4.9468026,-23.145521,1.2146759
0.84466356,0.4859957,0.01570448,4.7885504,-22.405079,1.1758174
0.8176874,0.4704744,0.015202925,4.6356177,-21.689524,1.1382651
0.79161394,0.45547244,0.014718151,4.4878025,-20.997913,1.1019695
0.7664091,0.4409703,0.014249528,4.3449116,-20.329344,1.066883
0.74204063,0.42694938,0.013796456,4.206763,-19.68296,1.0329608
0.7184777,0.41339192,0.01335836,4.07318,-19.057943,1.00016
0.69569093,0.40028104,0.012934694,3.9439976,-18.453512,0.96843946
0.6736521,0.38760054,0.012524936,3.8190556,-17.868923,0.93776023
0.6523345,0.37533495,0.012128586,3.6982021,-17.303463,0.9080849
0.6317123,0.36346954,0.011745166,3.5812912,-16.75645,0.8793778
0.61176103,0.35199013,0.01137422,3.4681838,-16.227234,0.85160446
0.59245706,0.34088317,0.01101531,3.358746,-15.715188,0.8247323
0.57377785,0.3301357,0.010668015,3.2528505,-15.219714,0.7987299
0.5557018,0.31973523,0.010331934,3.150374,-14.740239,0.773567
0.5382081,0.30966985,0.010006682,3.0511992,-14.276211,0.7492149
0.5212769,0.2999281,0.009691886,2.9552128,-13.827102,0.72564566
0.5048889,0.2904989,0.009387191,2.8623064,-13.392404,0.7028327
0.48902583,0.28137174,0.0090922555,2.7723758,-12.971628,0.6807504
0.47366992,0.2725364,0.008806749,2.6853204,-12.564306,0.6593742
0.45880422,0.26398307,0.008530358,2.6010442,-12.169987,0.63868034
0.44441232,0.25570238,0.008262775,2.5194538,-11.788236,0.618646
0.43047848,0.24768525,0.008003709,2.4404604,-11.418634,0.59924936
0.41698754,0.23992293,0.007752877,2.3639777,-11.060781,0.58046925
0.40392482,0.232407,0.0075100074,2.2899227,-10.714286,0.56228524
0.39127627,0.22512938,0.007274838,2.218216,-10.3787775,0.54467773
0.3790283,0.21808225,0.0070471168,2.1487799,-10.053895,0.52762794
0.36716783,0.21125807,0.0068265996,2.0815408,-9.73929,0.5111175
0.3556822,0.20464955,0.0066130525,2.0164268,-9.434629,0.4951289
0.34455925,0.19824973,0.006406248,1.9533687,-9.139588,0.47964516
0.33378723,0.19205181,0.006205968,1.8923001,-8.853855,0.46464992
0.32335478,0.18604927,0.006012002,1.8331566,-8.577129,0.45012736
0.31325093,0.18023579,0.005824145,1.775876,-8.30912,0.43606225
0.3034651,0.1746053,0.0056422013,1.7203984,-8.049547,0.42243984
0.29398707,0.16915192,0.00546598,1.6666658,-7.798138,0.40924594
0.284807,0.16386995,0.0052952985,1.6146222,-7.5546327,0.39646676
0.2759153,0.15875392,0.0051299795,1.5642136,-7.3187766,0.38408905
0.26730278,0.15379852,0.0049698506,1.5153878,-7.090326,0.37209997
0.25896055,0.14899863,0.004814747,1.4680941,-6.8690443,0.3604871
0.25087997,0.14434929,0.0046645077,1.4222839,-6.654703,0.3492385
0.24305272,0.13984571,0.0045189788,1.3779098,-6.447082,0.33834255
0.23547076,0.13548326,0.0043780105,1.3349262,-6.245967,0.32778805
0.2281263,0.13125747,0.004241458,1.2932892,-6.0511518,0.31756416
0.2210118,0.12716399,0.0041091815,1.2529559,-5.862437,0.3076604
0.21412,0.12319864,0.003981045,1.213885,-5.679629,0.29806665
0.20744385,0.11935737,0.0038569178,1.1760366,-5.5025406,0.28877306
0.20097652,0.11563625,0.0037366734,1.1393722,-5.3309917,0.2797702
0.19471143,0.1120315,0.0036201894,1.1038543,-5.164808,0.27104884
0.1886422,0.10853943,0.0035073466,1.0694467,-5.0038185,0.26260015
0.18276265,0.1051565,0.0033980305,1.0361146,-4.8478613,0.2544155
0.17706682,0.101879284,0.0032921303,1.0038238,-4.6967764,0.2464866
0.17154892,0.098704435,0.0031895381,0.9725418,-4.5504117,0.23880538
0.16620335,0.09562874,0.0030901502,0.9422368,-4.408618,0.23136406
0.16102469,0.09264909,0.0029938656,0.9128781,-4.2712517,0.2241551
0.1560077,0.08976246,0.002900587,0.8844359,-4.138174,0.21717118
0.15114732,0.08696593,0.00281022,0.8568815,-4.00925,0.21040526
0.14643863,0.08425668,0.002722673,0.830187,-3.88435,0.20385051
0.14187686,0.08163196,0.0026378578,0.8043255,-3.763347,0.19750027
0.1374574,0.079089135,0.0025556888,0.7792709,-3.646119,0.19134815
0.1331758,0.07662562,0.0024760829,0.75499773,-3.532548,0.18538794
0.12902777,0.074238956,0.00239896,0.73148173,-3.422519,0.17961363
0.12500907,0.07192671,0.0023242421,0.70869905,-3.3159215,0.17401941
0.1211157,0.06968658,0.0022518544,0.6866268,-3.2126482,0.16859962
0.117343724,0.06751628,0.0021817235,0.66524273,-3.1125946,0.16334881
0.11368933,0.065413654,0.0021137788,0.64452535,-3.0156603,0.15826172
0.11014886,0.06337657,0.0020479523,0.6244538,-2.9217477,0.15333319
0.10671875,0.061402973,0.0019841776,0.6050079,-2.8307624,0.14855827
0.103395544,0.059490893,0.0019223907,0.586168,-2.742613,0.1439322
0.1001759,0.057638403,0.0018625293,0.5679153,-2.6572106,0.13945028
0.0970566,0.055843644,0.0018045333,0.5502314,-2.5744696,0.13510804
0.09403449,0.05410481,0.0017483445,0.5330985,-2.4943068,0.1309011
0.09110655,0.05242015,0.0016939064,0.51649946,-2.416642,0.12682524
0.08826982,0.05078798,0.0016411644,0.5004176,-2.3413966,0.122876376
0.08552148,0.049206663,0.0015900657,0.48483673,-2.2684956,0.11905054
0.082858756,0.047674604,0.0015405586,0.46974128,-2.1978655,0.115343876
0.08027898,0.046190273,0.0014925939,0.45511603,-2.1294358,0.11175269
0.07777956,0.044752177,0.0014461234,0.4409464,-2.0631375,0.108273365
0.075357996,0.043358877,0.0014011002,0.4272181,-1.9989045,0.10490242
0.07301185,0.042008974,0.0013574793,0.4139174,-1.9366721,0.101636454
0.070738785,0.040701114,0.0013152171,0.40103096,-1.8763779,0.09847222
0.06853651,0.039433986,0.001274271,0.38854587,-1.8179616,0.09540654
0.06640282,0.03820632,0.0012346003,0.3764496,-1.7613646,0.09243633
0.064335585,0.03701689,0.001196165,0.36473006,-1.7065301,0.08955862
0.06233272,0.0358645,0.0011589265,0.35337546,-1.6534033,0.08677052
0.060392227,0.03474799,0.0011228478,0.34237444,-1.6019309,0.08406925
0.058512162,0.033666257,0.0010878925,0.33171603,-1.5520612,0.0814521
0.056690637,0.032618202,0.0010540256,0.32138947,-1.5037445,0.07891644
0.054925833,0.031602785,0.0010212134,0.31138447,-1.4569323,0.076459736
0.05321598,0.030618982,0.0009894228,0.30169103,-1.4115777,0.07407953
0.05155937,0.029665815,0.0009586221,0.2922994,-1.3676353,0.07177343
0.049954336,0.028742323,0.00092878036,0.28320014,-1.3250611,0.069539145
0.048399277,0.027847586,0.0008998678,0.27438426,-1.2838124,0.067374416
0.046892636,0.026980707,0.0008718554,0.26584283,-1.2438481,0.06527709
0.045432903,0.026140817,0.0008447152,0.25756735,-1.2051281,0.06324506
0.044018615,0.025327077,0.00081841997,0.2495495,-1.1676135,0.061276298
0.042648364,0.024538672,0.0007929434,0.24178128,-1.1312668,0.05936883
0.04132077,0.023774812,0.00076826004,0.23425491,-1.0960518,0.05752075
0.040034506,0.023034733,0.0007443451,0.22696286,-1.0619332,0.055730205
0.03878829,0.022317695,0.0007211747,0.21989782,-1.0288768,0.0539954
0.03758087,0.021622978,0.00069872563,0.21305275,-0.99684936,0.05231461
0.03641104,0.02094989,0.0006769754,0.20642076,-0.9658191,0.05068614
0.035277627,0.020297756,0.0006559024,0.19999525,-0.93575484,0.049108367
0.0341795,0.019665925,0.00063548534,0.19376977,-0.9066265,0.047579717
0.03311556,0.019053763,0.0006157039,0.18773808,-0.878405,0.04609865
0.032084737,0.018460657,0.0005965383,0.18189417,-0.851062,0.04466369
0.031086005,0.017886015,0.0005779693,0.17623219,-0.8245702,0.043273404
0.030118365,0.017329263,0.00055997836,0.17074646,-0.7989031,0.041926395
0.029180847,0.01678984,0.00054254744,0.1654315,-0.77403504,0.04062132
0.028272515,0.016267212,0.0005256592,0.160282,-0.7499411,0.039356872
0.027392458,0.015760852,0.00050929666,0.1552928,-0.7265972,0.038131785
0.026539797,0.015270255,0.0004934435,0.1504589,-0.70397997,0.036944836
0.025713678,0.014794929,0.0004780838,0.14577548,-0.6820668,0.03579483
0.024913276,0.0143344,0.00046320225,0.14123787,-0.66083574,0.03468063
0.02413779,0.013888206,0.00044878395,0.13684149,-0.64026564,0.03360111
