ax,ay,az,gx,gy,gz
-9.43554,1.3309212,-7.843708,75.51796,-209.57463,-118.63107
-10.25433,1.7659731,-8.549972,84.99014,-246.63393,-135.77003
-10.429056,1.9915515,-8.875086,89.6159,-275.6911,-147.59564
-10.071134,2.0734272,-9.10396,93.093414,-301.09354,-155.75076
-9.141393,2.1873868,-9.21959,94.58379,-319.03583,-159.46217
-7.8375983,2.3726714,-9.261858,95.07202,-327.29742,-163.092
-6.5202827,2.5359983,-9.304554,96.46875,-330.3252,-166.79349
-5.2973948,2.6875513,-9.376491,98.627464,-332.227,-169.77145
-3.8867507,2.8141925,-9.364968,101.221855,-331.84125,-172.75269
-2.2579677,2.9643302,-9.198718,103.899025,-327.58282,-175.15656
-0.6204298,3.1484249,-8.8785305,105.4972,-319.38983,-172.89206
0.93036413,3.3826387,-8.423251,105.862816,-310.6142,-167.7301
2.4554207,3.6228461,-7.871125,105.30768,-300.33356,-161.91682
3.9447625,3.839068,-7.2209086,103.72524,-287.77103,-154.16008
5.240619,4.032131,-6.554473,100.99201,-273.6707,-143.16678
6.2409143,4.207665,-5.9386387,96.78368,-258.1676,-128.80772
6.8965096,4.3651776,-5.376346,91.90292,-242.14099,-113.9353
7.300803,4.4847355,-4.89429,86.70543,-225.7597,-99.751595
7.5057287,4.5480604,-4.5038443,81.42126,-209.19418,-86.50962
7.545631,4.55782,-4.201324,76.273,-192.8218,-74.2983
7.451561,4.5217195,-3.9755664,71.49232,-176.88173,-62.9462
7.248884,4.4161806,-3.8288314,67.59856,-161.75104,-52.223606
7.012122,4.2739,-3.7179663,64.34979,-147.3424,-42.146046
6.7566705,4.117596,-3.621658,61.48707,-133.32178,-33.11883
6.5009127,3.9637625,-3.5364323,58.75292,-119.30887,-25.875395
6.2492595,3.7993865,-3.4641871,56.492165,-104.7017,-21.495447
5.9678736,3.628311,-3.308205,53.948486,-99.98728,-20.527569
5.705276,3.4686587,-3.1626377,51.57465,-95.587654,-19.62432
5.4595847,3.3192847,-3.026442,49.353645,-91.47128,-18.779219
5.229167,3.1791968,-2.8987136,47.270714,-87.61081,-17.986656
5.0126014,3.0475307,-2.7786636,45.313,-83.982414,-17.241741
4.8086433,2.9235294,-2.6656022,43.469257,-80.56525,-16.54019
4.616198,2.8065279,-2.558923,41.729588,-77.34097,-15.878241
4.4343004,2.6959386,-2.4580905,40.085262,-74.2934,-15.25257
4.2620935,2.5912414,-2.3626301,38.528545,-71.40821,-14.6602335
4.0988164,2.4919732,-2.27212,37.05255,-68.67262,-14.098613
3.9437895,2.3977208,-2.186183,35.651134,-66.075264,-13.565371
3.7964041,2.3081145,-2.104482,34.318798,-63.60593,-13.058413
3.6561136,2.2228215,-2.0267138,33.0506,-61.255466,-12.575857
3.5224252,2.1415424,-1.9526056,31.84208,-59.015614,-12.116012
3.3948934,2.0640063,-1.8819103,30.689215,-56.878914,-11.677343
3.273115,1.9899683,-1.8144042,29.588362,-54.838608,-11.258466
3.1567233,1.9192052,-1.7498841,28.536201,-52.888554,-10.858115
3.0453844,1.851514,-1.688165,27.529718,-51.02315,-10.475144
2.938793,1.7867093,-1.6290777,26.566153,-49.237293,-10.108505
2.8366702,1.7246213,-1.5724673,25.64298,-47.526302,-9.757236
2.7387598,1.6650944,-1.5181922,24.757889,-45.885887,-9.420455
2.6448264,1.6079853,-1.4661214,23.908747,-44.3121,-9.097354
2.5546527,1.553162,-1.416135,23.093592,-42.801304,-8.787185
2.4680383,1.5005028,-1.3681215,22.310616,-41.350147,-8.48926
2.384798,1.4498949,-1.3219784,21.558138,-39.95552,-8.20294
2.30476,1.4012338,-1.2776105,20.83461,-38.61454,-7.9276347
2.2277646,1.3544226,-1.2349292,20.138584,-37.32454,-7.662795
2.1536632,1.3093709,-1.1938522,19.46872,-36.083023,-7.40791
2.0823174,1.2659944,-1.1543026,18.823767,-34.887676,-7.1625032
2.013598,1.2242149,-1.116209,18.202557,-33.736336,-6.926131
1.9473841,1.1839586,-1.0795044,17.603996,-32.626972,-6.6983767
1.8835628,1.145157,-1.0441259,17.027063,-31.557695,-6.478852
1.8220277,1.1077452,-1.0100149,16.470797,-30.52672,-6.2671905
1.7626791,1.0716628,-0.9771158,15.934298,-29.53238,-6.0630507
1.7054234,1.0368527,-0.9453769,15.416715,-28.5731,-5.866109
1.6501718,1.0032613,-0.91474897,14.917252,-27.647402,-5.6760616
1.5968412,0.9708377,-0.88518596,14.435153,-26.753887,-5.4926214
1.5453528,0.9395341,-0.8566441,13.9697075,-25.89124,-5.315518
1.4956322,0.9093053,-0.8290822,13.520242,-25.058207,-5.144495
1.4476088,0.8801083,-0.80246115,13.08612,-24.25361,-4.97931
1.4012158,0.8519026,-0.7767438,12.666735,-23.47633,-4.819733
1.3563899,0.8246496,-0.7518952,12.261517,-22.725304,-4.665546
1.3130707,0.7983126,-0.72788185,11.869919,-21.999523,-4.5165415
1.2712009,0.7728569,-0.7046719,11.491424,-21.298027,-4.3725233
1.2307261,0.74824935,-0.68223536,11.12554,-20.619902,-4.233303
1.1915945,0.7244583,-0.66054326,10.771796,-19.96428,-4.0987024
1.1537564,0.7014537,-0.6395682,10.429747,-19.33033,-3.9685516
1.1171645,0.6792068,-0.61928403,10.098963,-18.71726,-3.8426874
1.0817739,0.6576902,-0.59966576,9.779037,-18.124317,-3.720955
1.0475413,0.63687766,-0.58068943,9.469581,-17.550774,-3.6032057
1.0144254,0.6167441,-0.56233215,9.17022,-16.995943,-3.4892979
0.98238695,0.5972656,-0.54457206,8.880598,-16.459164,-3.3790958
0.951388,0.578419,-0.5273882,8.600373,-15.939798,-3.2724693
0.9213923,0.56018245,-0.51076055,8.329218,-15.437243,-3.1692939
0.89236516,0.54253465,-0.4946698,8.066818,-14.950914,-3.0694497
0.8642732,0.5254555,-0.4790974,7.8128715,-14.480255,-2.9728224
0.83708435,0.50892544,-0.46402568,7.5670896,-14.024727,-2.8793015
0.810768,0.49292576,-0.4494376,7.3291945,-13.583816,-2.788782
0.78529453,0.47743854,-0.4353167,7.098919,-13.157026,-2.7011611
0.7606355,0.4624465,-0.42164734,6.876006,-12.743882,-2.616342
0.73676366,0.44793305,-0.40841433,6.6602087,-12.343927,-2.5342305
0.7136527,0.43388215,-0.3956031,6.4512897,-11.956719,-2.4547362
0.6912772,0.42027846,-0.38319957,6.2490196,-11.581836,-2.3777719
0.66961294,0.40710717,-0.3711903,6.053179,-11.218867,-2.3032537
0.6486364,0.39435396,-0.35956225,5.8635545,-10.86742,-2.231101
0.6283249,0.38200513,-0.34830287,5.679942,-10.527117,-2.161236
0.6086567,0.37004736,-0.33740008,5.5021453,-10.197591,-2.0935838
0.58961076,0.3584679,-0.32684225,5.329973,-9.8784895,-2.0280719
0.57116675,0.34725446,-0.31661808,5.163243,-9.569474,-1.9646304
0.55330515,0.33639506,-0.30671674,5.001777,-9.270216,-1.9031922
0.53600705,0.32587826,-0.29712778,4.8454056,-8.9804,-1.8436923
0.51925427,0.315693,-0.2878411,4.6939635,-8.699718,-1.786068
0.5030291,0.30582854,-0.27884695,4.5472913,-8.427879,-1.7302588
0.4873147,0.2962746,-0.2701359,4.405236,-8.164596,-1.6762062
0.47209457,0.28702116,-0.26169884,4.2676487,-7.9095936,-1.6238538
0.45735288,0.2780586,-0.253527,4.1343865,-7.6626077,-1.5731472
0.4430743,0.2693776,-0.24561186,4.0053105,-7.4233804,-1.5240334
0.42924404,0.26096916,-0.23794526,3.8802876,-7.1916647,-1.4764618
0.41584778,0.25282457,-0.23051924,3.759188,-6.9672203,-1.430383
0.4028717,0.24493547,-0.22332613,3.6418865,-6.749816,-1.3857493
0.39030245,0.23729368,-0.21635854,3.5282629,-6.5392275,-1.3425151
0.37812707,0.22989137,-0.2096093,3.4181995,-6.335238,-1.3006358
0.36633307,0.22272094,-0.20307148,3.311584,-6.1376386,-1.2600682
0.35490838,0.21577501,-0.19673835,3.2083068,-5.946226,-1.220771
0.34384128,0.20904651,-0.19060346,3.1082623,-5.760805,-1.1827037
0.33312047,0.20252854,-0.18466054,3.0113482,-5.581186,-1.1458275
0.322735,0.19621445,-0.17890352,2.9174657,-5.4071856,-1.1101049
0.3126743,0.19009782,-0.17332652,2.8265188,-5.238626,-1.0754994
0.30292815,0.18417239,-0.16792387,2.738415,-5.075336,-1.0419756
0.29348657,0.17843217,-0.16269006,2.653065,-4.9171495,-1.0094997
0.28434,0.17287129,-0.15761979,2.5703816,-4.7639055,-0.9780384
0.27547917,0.16748413,-0.15270792,2.4902813,-4.6154485,-0.94755995
0.26689506,0.16226523,-0.14794944,2.4126825,-4.4716287,-0.91803336
0.25857902,0.15720928,-0.14333954,2.337507,-4.332299,-0.8894288
0.25052255,0.15231116,-0.13887358,2.2646782,-4.1973195,-0.8617172
0.2427176,0.14756595,-0.13454701,2.1941226,-4.0665526,-0.83487064
0.2351562,0.14296882,-0.13035546,2.1257691,-3.9398673,-0.80886185
0.22783075,0.13851514,-0.1262947,2.0595484,-3.8171349,-0.78366464
0.22073384,0.13420041,-0.122360624,1.9953935,-3.6982315,-0.75925356
0.2138583,0.13002026,-0.11854928,1.93324,-3.5830371,-0.735604
0.20719723,0.1259705,-0.1148568,1.8730251,-3.4714355,-0.712692
0.20074388,0.12204704,-0.11127949,1.8146881,-3.3633146,-0.69049454
0.19449177,0.118245915,-0.107813716,1.75817,-3.2585652,-0.6689893
0.18843459,0.11456331,-0.10445601,1.7034143,-3.1570816,-0.64815456
0.18256626,0.11099551,-0.10120297,1.6503656,-3.0587618,-0.6279693
0.17688084,0.10753892,-0.09805135,1.5989705,-2.963507,-0.60841334
0.17137265,0.10419009,-0.094997965,1.5491774,-2.8712213,-0.5894669
0.16603613,0.10094562,-0.09203974,1.5009363,-2.781812,-0.571111
0.16086592,0.097802274,-0.08917371,1.4541985,-2.695189,-0.55332714
0.15585683,0.09475688,-0.08639699,1.4089173,-2.6112654,-0.53609747
0.15100382,0.09180638,-0.083706796,1.365047,-2.5299568,-0.5194047
0.14630203,0.08894781,-0.08110043,1.3225436,-2.451182,-0.50323206
0.14174673,0.0861783,-0.07857526,1.2813646,-2.374861,-0.48756328
0.13733335,0.08349508,-0.076128766,1.2414683,-2.300918,-0.47238263
0.13305745,0.08089545,-0.07375848,1.202815,-2.2292788,-0.45767495
0.12891476,0.0783768,-0.07146204,1.1653658,-2.1598709,-0.4434254
0.1249011,0.07593661,-0.06923713,1.1290832,-2.0926251,-0.42961973
0.12101247,0.07357242,-0.06708152,1.0939306,-2.027474,-0.41624406
0.11724496,0.071281865,-0.06499305,1.059873,-1.9643521,-0.40328503
0.113594785,0.06906266,-0.06296963,1.0268761,-1.9031962,-0.3907296
0.11005829,0.06691256,-0.061009232,0.99490684,-1.8439449,-0.37856522
0.10663194,0.06482943,-0.059109885,0.9639333,-1.786539,-0.36677969
0.1033123,0.06281117,-0.057269685,0.9339243,-1.7309208,-0.35536116
0.10009603,0.06085577,-0.055486795,0.9048498,-1.6770346,-0.34429824
0.09697992,0.058961257,-0.053759426,0.8766808,-1.6248266,-0.3335798
0.093960844,0.057125736,-0.052085843,0.8493889,-1.5742441,-0.32319516
0.09103578,0.055347376,-0.050464377,0.82294685,-1.5252368,-0.31313387
0.0882018,0.053624388,-0.0488934,0.7973281,-1.4777555,-0.30338588
0.08545606,0.051955048,-0.047371335,0.77250713,-1.4317528,-0.2939414
0.08279581,0.050337687,-0.045896668,0.748459,-1.3871822,-0.28479102
0.0802184,0.04877069,-0.044467915,0.72515965,-1.3439996,-0.27592555
0.07772123,0.047252476,-0.043083645,0.7025857,-1.3021615,-0.2673361
0.07530181,0.04578153,-0.041742478,0.6807146,-1.2616259,-0.25901407
0.072957724,0.044356387,-0.040443063,0.65952444,-1.2223524,-0.25095114
0.070686616,0.042975612,-0.03918411,0.63899404,-1.1843016,-0.24313927
0.06848621,0.041637827,-0.037964348,0.61910284,-1.1474355,-0.2355706
0.06635432,0.04034169,-0.03678256,0.59983087,-1.1117172,-0.22823755
0.064288795,0.039085906,-0.03563757,0.58115894,-1.0771109,-0.22113281
0.062287573,0.037869215,-0.034528222,0.5630683,-1.043582,-0.21424927
0.060348656,0.036690407,-0.03345341,0.5455408,-1.011097,-0.20758002
0.058470104,0.035548296,-0.03241206,0.528559,-0.97962314,-0.2011184
0.05665003,0.03444174,-0.031403128,0.51210594,-0.94912916,-0.19485793
0.05488662,0.03336963,-0.030425608,0.496165,-0.9195845,-0.18879236
0.053178106,0.032330897,-0.029478516,0.48072034,-0.8909596,-0.18291561
0.051522776,0.031324502,-0.02856091,0.46575648,-0.8632258,-0.17722182
0.04991898,0.030349435,-0.027671868,0.45125845,-0.8363554,-0.17170528
0.04836511,0.029404722,-0.026810503,0.43721175,-0.81032145,-0.16636045
0.04685961,0.028489418,-0.025975952,0.4236023,-0.78509796,-0.16118203
0.04540098,0.02760261,-0.02516738,0.41041654,-0.7606597,-0.1561648
0.043987755,0.026743405,-0.024383979,0.39764124,-0.7369821,-0.15130375
0.04261852,0.025910946,-0.023624964,0.38526362,-0.71404165,-0.14659403
0.04129191,0.025104402,-0.022889577,0.37327132,-0.69181526,-0.14203092
0.040006597,0.024322966,-0.022177082,0.3616523,-0.6702808,-0.13760985
0.038761295,0.023565853,-0.021486767,0.35039502,-0.6494167,-0.13332641
