ax,ay,az,gx,gy,gz
-4.929136,-0.33909398,-7.756434,4.4391313,-95.4936,-7.6573424
-5.601366,-0.3118906,-8.35181,13.345666,-116.18294,-18.316698
-6.0026197,-0.3225904,-8.626563,21.518316,-137.43532,-29.991488
-6.13344,-0.46149662,-8.845773,27.905025,-154.38327,-35.977406
-6.020296,-0.584716,-8.890607,34.4659,-167.58904,-39.25954
-5.67338,-0.5655662,-8.762417,41.357746,-176.81326,-42.933823
-5.1068416,-0.42675447,-8.509587,47.84245,-182.08443,-47.512253
-4.484942,-0.2606553,-8.214073,53.80322,-184.53674,-50.67661
-3.9532893,-0.09149407,-7.9195113,59.179485,-188.00577,-52.527397
-3.3970466,0.08306053,-7.5436587,63.975807,-191.42996,-54.83656
-2.7592258,0.26055774,-7.119848,68.11361,-193.80177,-57.094234
-2.0767012,0.423253,-6.687027,71.26349,-195.08875,-57.838665
-1.4030867,0.5700174,-6.2426624,73.27659,-195.20943,-56.294285
-0.7010725,0.71866065,-5.7168765,74.584465,-193.8471,-54.556175
-0.0050749118,0.86947715,-5.153375,75.15409,-190.51172,-52.72297
0.6015676,1.0069221,-4.5998974,74.76487,-185.70847,-50.351414
1.0896475,1.1208652,-4.090488,73.32921,-180.46696,-47.17326
1.5286325,1.2093213,-3.616795,71.13195,-174.49547,-43.508057
1.9687431,1.2927668,-3.143785,68.684364,-167.4446,-39.772144
2.3095,1.3776308,-2.7052052,66.0104,-159.64252,-36.30379
2.5299473,1.4609934,-2.3220108,63.00122,-152.13658,-32.84763
2.6633708,1.5346838,-1.9894187,59.532276,-145.54015,-28.887842
2.7365477,1.5871474,-1.7152032,55.572617,-139.59006,-24.431711
2.7699077,1.6019083,-1.4958638,51.85851,-133.55098,-20.661745
2.7882967,1.596748,-1.3086598,48.736134,-127.00601,-17.935951
2.7861602,1.5868834,-1.1449347,45.91515,-120.30528,-15.877287
2.7554896,1.5682025,-1.0115223,43.333786,-113.84396,-13.983388
2.6972096,1.5474247,-0.8977545,40.814686,-107.91612,-12.084339
2.6107283,1.51541,-0.8160298,38.44726,-102.41462,-10.465251
2.5181015,1.470825,-0.75837755,36.32746,-97.24998,-9.188985
2.4298835,1.4184424,-0.71686417,34.357872,-92.45898,-8.072854
2.3610015,1.3513687,-0.6896487,32.659393,-87.84012,-6.7634034
2.311896,1.2752746,-0.6704929,31.452475,-82.885956,-5.0076003
2.2828197,1.200514,-0.645767,30.730215,-77.460144,-3.1676335
2.2536228,1.141814,-0.6076787,30.463602,-71.600494,-1.8902813
2.2321842,1.0962332,-0.56076235,30.764957,-65.70099,-1.3970023
2.1477578,1.0547712,-0.539553,29.601355,-63.21602,-1.3441644
2.0674927,1.0153528,-0.5193891,28.495108,-60.853542,-1.293931
1.9910916,0.9778319,-0.5001958,27.442112,-58.60479,-1.2461157
1.9182858,0.94207674,-0.4819058,26.438671,-56.46186,-1.2005506
1.8488331,0.9079683,-0.46445808,25.481441,-54.41762,-1.1570837
1.7825135,0.87539846,-0.44779748,24.567396,-52.465607,-1.1155779
1.7191274,0.8442694,-0.43187386,23.69378,-50.599934,-1.0759081
1.658493,0.8144916,-0.41664147,22.858091,-48.81525,-1.0379604
1.6004443,0.7859837,-0.40205863,22.058037,-47.10667,-1.0016308
1.544829,0.7586708,-0.38808712,21.291523,-45.46972,-0.96682423
1.4915078,0.7324846,-0.37469193,20.556625,-43.900288,-0.9334534
1.4403522,0.70736194,-0.3618408,19.851578,-42.394604,-0.90143794
1.3912443,0.6832449,-0.34950405,19.17475,-40.949184,-0.87070394
1.3440748,0.6600798,-0.3376543,18.52464,-39.56082,-0.8411831
1.2987429,0.6378171,-0.32626614,17.899853,-38.226543,-0.8128123
1.2551547,0.6164108,-0.31531605,17.299103,-36.943592,-0.7855329
1.2132236,0.5958183,-0.30478224,16.721188,-35.70941,-0.75929046
1.1728685,0.57599974,-0.29464436,16.164997,-34.52162,-0.7340344
1.1340141,0.5569182,-0.2848835,15.629488,-33.378002,-0.7097176
1.09659,0.5385392,-0.27548194,15.113693,-32.27648,-0.6862959
1.0605305,0.5208302,-0.2664232,14.616705,-31.215122,-0.66372824
1.0257739,0.5037611,-0.25769174,14.137673,-30.192114,-0.64197594
0.99226236,0.48730347,-0.24927306,13.675803,-29.205751,-0.6210029
0.9599416,0.47143063,-0.24115355,13.230344,-28.254438,-0.6007751
0.9287605,0.45611748,-0.23332033,12.800591,-27.33667,-0.58126056
0.898671,0.4413404,-0.22576132,12.385884,-26.451029,-0.56242913
0.86962754,0.42707708,-0.21846512,11.985595,-25.59618,-0.54425246
0.84158736,0.41330644,-0.21142097,11.599133,-24.770859,-0.52670366
0.8145099,0.40000862,-0.20461865,11.225939,-23.973875,-0.50975734
0.7883567,0.3871647,-0.19804852,10.865484,-23.204096,-0.4933895
0.76309144,0.37475684,-0.19170146,10.517267,-22.460451,-0.47757733
0.7386796,0.36276808,-0.18556878,10.180812,-21.741922,-0.46229926
0.71508825,0.3511823,-0.17964225,9.855665,-21.047548,-0.44753474
0.6922863,0.33998418,-0.17391402,9.541399,-20.376408,-0.43326426
0.6702441,0.32915917,-0.16837664,9.237603,-19.727627,-0.41946924
0.64893323,0.31869334,-0.163023,8.943888,-19.100376,-0.40613195
0.6283269,0.30857348,-0.15784633,8.659882,-18.493858,-0.39323553
0.6083993,0.29878697,-0.15284017,8.38523,-17.907318,-0.38076392
0.58912575,0.2893217,-0.14799835,8.119595,-17.340033,-0.3687017
0.57048297,0.28016615,-0.14331496,7.8626504,-16.79131,-0.35703418
0.55244833,0.2713093,-0.13878435,7.6140895,-16.260487,-0.3457473
0.53500044,0.26274055,-0.13440114,7.373615,-15.746934,-0.3348276
0.5181186,0.25444984,-0.13016015,7.140942,-15.250044,-0.3242622
0.5017832,0.24642746,-0.12605642,6.9158,-14.769235,-0.31403875
0.48597524,0.23866412,-0.12208519,6.6979275,-14.303951,-0.30414543
0.47067657,0.23115088,-0.118241906,6.4870744,-13.853658,-0.2945708
0.45586976,0.2238792,-0.11452218,6.2830005,-13.417842,-0.28530404
0.44153807,0.21684086,-0.11092182,6.0854745,-12.99601,-0.2763346
0.4276654,0.21002795,-0.107436776,5.894275,-12.587688,-0.26765245
0.4142363,0.20343287,-0.10406315,5.7091894,-12.192423,-0.2592479
0.40123588,0.1970483,-0.10079723,5.5300117,-11.809774,-0.25111166
0.3886498,0.19086725,-0.09763539,5.356545,-11.439322,-0.24323471
0.3764643,0.18488291,-0.09457419,5.1885986,-11.080661,-0.23560847
0.3646661,0.17908877,-0.09161028,5.025991,-10.733398,-0.22822464
0.35324243,0.17347857,-0.08874047,4.8685446,-10.397161,-0.22107518
0.34218097,0.16804624,-0.08596163,4.7160907,-10.071582,-0.2141524
0.3314698,0.16278596,-0.08327081,4.5684648,-9.756315,-0.20744887
0.32109752,0.15769209,-0.08066512,4.425509,-9.451023,-0.20095743
0.31105307,0.15275922,-0.07814178,4.287072,-9.155379,-0.19467114
0.30132577,0.14798212,-0.07569812,4.153006,-8.869071,-0.18858336
0.29190534,0.14335573,-0.07333156,4.0231695,-8.591795,-0.18268764
0.2827819,0.13887516,-0.07103959,3.8974264,-8.32326,-0.17697777
0.2739458,0.13453573,-0.06881982,3.7756436,-8.063184,-0.17144775
0.26538786,0.1303329,-0.06666992,3.657694,-7.811293,-0.1660918
0.2570991,0.12626225,-0.06458764,3.5434546,-7.5673256,-0.1609043
0.24907088,0.12231957,-0.06257081,3.432806,-7.3310275,-0.15587988
0.24129488,0.11850075,-0.06061735,3.3256338,-7.1021523,-0.15101331
0.23376302,0.114801824,-0.05872522,3.2218263,-6.8804636,-0.14629953
0.22646753,0.11121898,-0.05689247,3.1212766,-6.6657314,-0.14173368
0.21940085,0.107748516,-0.0551172,3.0238805,-6.4577346,-0.13731103
0.21255574,0.10438685,-0.05339759,2.929538,-6.2562585,-0.13302705
0.20592512,0.10113053,-0.051731866,2.838152,-6.061096,-0.1288773
0.1995022,0.097976215,-0.05011832,2.7496283,-5.8720474,-0.124857545
0.1932804,0.094920665,-0.0485553,2.6638765,-5.688918,-0.12096366
0.18725334,0.09196076,-0.0470412,2.580809,-5.511521,-0.11719166
0.18141487,0.08909347,-0.04557448,2.5003407,-5.339674,-0.11353768
0.17575903,0.08631586,-0.04415364,2.4223895,-5.173203,-0.109997995
0.17028005,0.08362512,-0.042777225,2.3468757,-5.0119376,-0.106569
0.16497236,0.08101849,-0.041443843,2.2737226,-4.8557134,-0.1032472
0.15983056,0.078493334,-0.040152133,2.2028558,-4.704372,-0.10002922
0.1548494,0.07604707,-0.038900785,2.1342034,-4.5577593,-0.096911795
0.15002385,0.07367723,-0.037688527,2.0676956,-4.4157267,-0.09389175
0.14534901,0.0713814,-0.036514126,2.003265,-4.27813,-0.09096602
0.14082015,0.06915726,-0.0353764,1.9408462,-4.1448298,-0.08813165
0.13643268,0.06700256,-0.03427419,1.880376,-4.015691,-0.08538577
0.13218215,0.064915106,-0.03320639,1.8217933,-3.8905828,-0.0827256
0.12806427,0.0628928,-0.03217191,1.765039,-3.7693794,-0.08014844
0.124074884,0.060933605,-0.031169707,1.7100555,-3.6519578,-0.07765171
0.12020996,0.05903553,-0.030198773,1.6567874,-3.5381997,-0.07523286
0.116465606,0.057196658,-0.029258126,1.605181,-3.4279902,-0.07288947
0.11283803,0.055415146,-0.02834682,1.5551841,-3.321218,-0.07061917
0.10932359,0.05368919,-0.027463932,1.5067465,-3.2177756,-0.06841967
0.105918735,0.052017055,-0.026608575,1.4598193,-3.1175587,-0.06628876
0.10262004,0.050397053,-0.025779888,1.4143552,-3.0204668,-0.06422429
0.09942419,0.04882756,-0.024977036,1.3703085,-2.9264016,-0.06222418
0.09632796,0.047306992,-0.02419921,1.3276349,-2.8352687,-0.060286418
0.09332824,0.04583382,-0.023445629,1.2862914,-2.7469764,-0.058409054
0.09042201,0.04440656,-0.022715535,1.2462364,-2.661436,-0.056590207
0.087606356,0.04302378,-0.022008196,1.2074299,-2.5785613,-0.05482804
0.084878445,0.041684095,-0.021322899,1.1698326,-2.4982693,-0.05312079
0.08223553,0.04038615,-0.020658955,1.1334068,-2.4204793,-0.051466737
0.079674974,0.039128654,-0.020015698,1.098116,-2.345113,-0.04986422
0.07719419,0.03791033,-0.019392483,1.0639248,-2.272095,-0.048311632
0.074790694,0.036729965,-0.018788686,1.0307987,-2.2013516,-0.046807416
0.072462074,0.035586372,-0.018203696,0.9987046,-2.1328123,-0.04535006
0.070205994,0.034478404,-0.01763693,0.9676103,-2.066408,-0.043938104
0.06802019,0.033404946,-0.017087819,0.93748456,-2.002072,-0.042570125
0.065902464,0.032364927,-0.016555812,0.90829724,-1.9397401,-0.04124476
0.06385071,0.031357303,-0.016040375,0.88001895,-1.8793497,-0.039960675
0.061862852,0.03038106,-0.015540994,0.85262144,-1.8208401,-0.038716584
0.059936907,0.029435221,-0.015057163,0.8260772,-1.7641528,-0.03751124
0.058070943,0.028518839,-0.014588402,0.80035967,-1.7092309,-0.036343437
0.05626309,0.027630996,-0.0141342385,0.775443,-1.6560194,-0.035212
0.054511536,0.026770802,-0.013694218,0.7513023,-1.6044651,-0.0341158
0.052814525,0.025937395,-0.013267901,0.7279134,-1.5545162,-0.033053733
0.05117036,0.02512994,-0.012854858,0.7052527,-1.5061227,-0.032024737
0.049577393,0.024347628,-0.012454678,0.68329775,-1.459236,-0.031027786
0.048034027,0.023589676,-0.0120669585,0.6620264,-1.4138094,-0.030061878
0.046538718,0.022855325,-0.011691311,0.6414174,-1.3697972,-0.029126046
0.045089968,0.022143837,-0.011327362,0.62145007,-1.3271555,-0.028219352
0.043686327,0.021454506,-0.010974743,0.6021044,-1.2858413,-0.027340889
0.042326387,0.020786634,-0.010633104,0.58336115,-1.2458136,-0.02648978
0.041008793,0.020139558,-0.010302101,0.56520146,-1.2070322,-0.025665166
0.039732218,0.01951263,-0.009981404,0.5476072,-1.1694582,-0.024866229
0.03849539,0.018905219,-0.0096706925,0.5305606,-1.1330539,-0.024092166
0.03729707,0.018316718,-0.009369654,0.5140448,-1.0977832,-0.023342201
0.036136054,0.01774654,-0.009077987,0.4980432,-1.0636104,-0.022615585
0.035011187,0.017194115,-0.008795401,0.48253977,-1.0305016,-0.021911593
0.03392134,0.016658885,-0.008521613,0.46751902,-0.99842364,-0.021229515
0.03286542,0.01614032,-0.008256348,0.45296586,-0.9673442,-0.020568674
0.031842373,0.015637899,-0.007999342,0.43886578,-0.9372324,-0.019928405
0.030851174,0.015151118,-0.007750336,0.42520466,-0.908058,-0.019308068
0.029890833,0.0146794915,-0.0075090826,0.4119688,-0.8797918,-0.018707043
0.02896039,0.014222547,-0.007275339,0.399145,-0.85240555,-0.01812473
0.02805891,0.013779827,-0.0070488723,0.38672042,-0.8258719,-0.017560543
0.027185496,0.01335089,-0.0068294555,0.37468264,-0.8001642,-0.01701392
0.02633927,0.012935306,-0.0066168695,0.36301956,-0.7752568,-0.016484313
0.025519388,0.012532659,-0.006410901,0.3517196,-0.7511248,-0.015971193
0.024725027,0.012142546,-0.006211344,0.34077135,-0.72774404,-0.015474047
0.023955395,0.011764577,-0.0060179997,0.33016396,-0.70509106,-0.014992376
0.02320972,0.011398374,-0.005830674,0.31988674,-0.68314326,-0.014525699
0.02248726,0.011043571,-0.005649179,0.30992943,-0.6618787,-0.01407355
0.021787288,0.010699812,-0.005473335,0.30028212,-0.64127606,-0.013635475
0.021109106,0.010366754,-0.005302964,0.2909351,-0.62131476,-0.013211038
