ax,ay,az,gx,gy,gz
-10.179183,2.1882017,-8.32644,40.22764,-201.36273,-115.69015
-9.909415,2.602632,-8.54064,40.95204,-212.49695,-161.36325
-9.082299,2.7093956,-8.879435,41.150127,-219.7446,-174.24779
-8.06652,2.7467544,-9.047511,40.654118,-224.52164,-171.3809
-7.502116,2.7156281,-9.158298,43.760113,-223.09378,-173.80267
-7.2148066,2.5679073,-9.357166,53.406666,-221.25374,-186.46304
-6.5394487,2.5687768,-9.477748,63.18068,-226.08838,-196.29808
-5.390557,2.6560168,-9.374482,70.765144,-235.89653,-198.91243
-3.9614568,2.7964342,-9.089879,76.512535,-245.70952,-196.35301
-2.3197663,2.9736447,-8.684039,81.86853,-251.36317,-193.7599
-0.3885233,3.1855059,-8.119534,86.63746,-248.71965,-190.40349
1.461747,3.3913684,-7.364786,89.61651,-242.83015,-183.3332
2.937711,3.6281505,-6.5603333,90.54968,-236.43736,-173.96935
4.150537,3.8698742,-5.748469,89.653564,-229.5927,-163.05333
5.128706,4.085786,-4.9740424,87.20754,-222.1122,-151.4572
5.939605,4.2250834,-4.2722054,83.619194,-213.32484,-139.2425
6.5802784,4.3084335,-3.641844,78.799255,-201.63568,-126.97807
7.04525,4.34432,-3.1117728,73.49321,-188.5965,-115.131874
7.3156085,4.3571377,-2.6708837,67.86683,-175.08287,-104.19424
7.4528646,4.324439,-2.3115149,62.1536,-161.7711,-93.87348
7.5103145,4.2427387,-2.0240057,56.57374,-148.68681,-83.31928
7.4992447,4.1164412,-1.814196,51.525253,-135.9568,-73.021805
7.454471,3.9788694,-1.6516689,47.207405,-123.12916,-63.723766
7.390599,3.8271487,-1.5273008,43.850475,-109.93171,-56.43229
7.0404096,3.6458066,-1.4549327,41.772705,-104.72281,-53.758358
6.7154937,3.477552,-1.3877873,39.844887,-99.88983,-51.2774
6.413114,3.320968,-1.3252993,38.050785,-95.392075,-48.968525
6.130925,3.174839,-1.2669836,36.37648,-91.19465,-46.81382
5.866904,3.0381181,-1.2124224,34.809967,-87.267456,-44.797832
5.6192956,2.9098969,-1.161253,33.34084,-83.5844,-42.907177
5.386573,2.7893836,-1.1131598,31.960033,-80.12276,-41.13018
5.167398,2.6758862,-1.0678663,30.659607,-76.86263,-39.45663
4.9605956,2.5687954,-1.0251297,29.43259,-73.786545,-37.87755
4.7651267,2.467574,-0.98473513,28.27282,-70.879036,-36.385014
4.5800724,2.3717453,-0.9464928,27.17484,-68.126434,-34.971992
4.404614,2.2808857,-0.9102335,26.133797,-65.51657,-33.632248
4.238021,2.1946173,-0.87580633,25.145355,-63.03858,-32.360195
4.0796394,2.112601,-0.8430761,24.205635,-60.682735,-31.150846
3.9288826,2.034533,-0.8119215,23.311152,-58.440292,-29.999714
3.78522,1.9601388,-0.78223294,22.458761,-56.30338,-28.902752
3.6481736,1.8891708,-0.7539117,21.645626,-54.26488,-27.856308
3.51731,1.8214042,-0.7268681,20.869175,-52.31834,-26.857073
3.3922346,1.7566352,-0.7010207,20.12707,-50.457905,-25.902039
3.272589,1.694678,-0.67629546,19.41718,-48.678234,-24.988462
3.1580453,1.6353626,-0.6526245,18.73756,-46.97445,-24.113842
3.0483036,1.5785339,-0.6299458,18.086432,-45.342094,-23.275888
2.9430885,1.5240493,-0.60820264,17.46216,-43.777065,-22.4725
2.8421469,1.4717777,-0.5873426,16.863247,-42.275608,-21.70174
2.7452457,1.4215983,-0.56731755,16.288305,-40.834248,-20.961834
2.6521695,1.3733997,-0.5480829,15.736057,-39.449783,-20.251133
2.5627189,1.3270787,-0.5295975,15.205323,-38.119247,-19.568117
2.4767096,1.2825396,-0.5118233,14.695005,-36.839897,-18.911377
2.3939698,1.2396935,-0.49472475,14.204086,-35.60918,-18.2796
2.3143399,1.1984581,-0.47826886,13.731621,-34.424725,-17.671572
2.2376711,1.1587559,-0.46242493,13.276724,-33.284313,-17.086155
2.1638248,1.1205153,-0.44716427,12.838573,-32.185886,-16.522287
2.0926712,1.0836691,-0.43246004,12.416399,-31.127506,-15.97898
2.0240884,1.0481542,-0.41828707,12.009478,-30.107368,-15.455303
1.9579624,1.0139115,-0.40462184,11.617134,-29.123775,-14.950386
1.894186,0.98088557,-0.39144218,11.238731,-28.175133,-14.463409
1.8326585,0.94902414,-0.37872723,10.873672,-27.259941,-13.993605
1.7732849,0.9182781,-0.3664574,10.521392,-26.376785,-13.540247
1.7159755,0.888601,-0.35461417,10.181359,-25.524336,-13.102651
1.6606458,0.85994905,-0.34318003,9.853073,-24.701332,-12.68017
1.6072158,0.8322808,-0.33213845,9.536057,-23.906584,-12.272195
1.5556095,0.805557,-0.32147378,9.229863,-23.138966,-11.878145
1.5057553,0.7797405,-0.3111712,8.934064,-22.397408,-11.497475
1.457585,0.754796,-0.30121657,8.648256,-21.680897,-11.129662
1.4110339,0.73069,-0.2915966,8.372056,-20.98847,-10.774212
1.3660405,0.70739055,-0.28229848,8.105097,-20.319214,-10.4306555
1.322546,0.68486744,-0.27331015,7.8470325,-19.672255,-10.098546
1.2804949,0.66309166,-0.2646201,7.5975313,-19.046762,-9.777456
1.2398337,0.64203566,-0.2562173,7.356278,-18.441948,-9.466981
1.2005119,0.6216733,-0.24809127,7.1229706,-17.857054,-9.166732
1.162481,0.60197926,-0.24023198,6.897322,-17.29136,-8.876339
1.1256944,0.58292973,-0.23262987,6.679057,-16.744177,-8.5954485
1.0901079,0.56450164,-0.22527575,6.4679127,-16.214846,-8.323722
1.0556792,0.546673,-0.2181609,6.2636375,-15.702734,-8.060835
1.0223675,0.5294229,-0.21127689,6.06599,-15.207239,-7.806477
0.99013394,0.5127311,-0.20461568,5.8747396,-14.72778,-7.560352
0.95894116,0.49657822,-0.19816956,5.689664,-14.263803,-7.3221736
0.9287534,0.48094577,-0.19193111,5.5105515,-13.814773,-7.091669
0.89953613,0.4658159,-0.18589324,5.3371973,-13.380179,-6.868575
0.87125635,0.45117152,-0.18004909,5.169406,-12.959532,-6.65264
0.8438824,0.43699616,-0.17439215,5.0069885,-12.552357,-6.443621
0.81738365,0.42327407,-0.16891606,4.8497643,-12.1582,-6.241285
0.7917308,0.40998998,-0.16361478,4.697559,-11.776627,-6.045408
0.7668956,0.39712933,-0.15848248,4.5502043,-11.407214,-5.855774
0.74285084,0.38467798,-0.1535135,4.4075403,-11.049559,-5.6721754
0.7195703,0.37262237,-0.14870247,4.26941,-10.703272,-5.4944124
0.6970287,0.36094946,-0.14404416,4.135665,-10.367977,-5.3222923
0.6752019,0.34964663,-0.13953355,4.0061603,-10.043313,-5.1556296
0.6540663,0.33870178,-0.13516578,3.8807569,-9.728931,-4.994245
0.6335994,0.32810318,-0.1309362,3.7593212,-9.424496,-4.837966
0.61377937,0.3178396,-0.1268403,3.6417234,-9.129682,-4.6866264
0.5945852,0.30790007,-0.12287373,3.527839,-8.844176,-4.540066
0.5759965,0.29827413,-0.11903231,3.4175472,-8.567679,-4.3981285
0.5579938,0.2889516,-0.11531197,3.3107324,-8.299898,-4.260666
0.5405582,0.27992275,-0.11170882,3.207282,-8.040551,-4.127533
0.52367145,0.2711781,-0.10821909,3.1070879,-7.789368,-3.9985905
0.50731575,0.2627085,-0.10483912,3.0100453,-7.5460854,-3.873704
0.49147427,0.2545051,-0.1015654,2.9160533,-7.31045,-3.752743
0.47613043,0.24655944,-0.09839452,2.8250139,-7.0822177,-3.6355822
0.46126834,0.23886324,-0.0953232,2.736833,-6.8611507,-3.5221
0.44687262,0.23140858,-0.09234826,2.6514194,-6.647022,-3.412179
0.43292844,0.22418773,-0.08946664,2.5686846,-6.4396086,-3.3057058
0.41942143,0.21719326,-0.08667535,2.488544,-6.238698,-3.2025704
0.4063377,0.21041797,-0.08397154,2.4109144,-6.0440836,-3.102667
0.39366382,0.20385492,-0.08135242,2.3357167,-5.8555655,-3.0058932
0.38138676,0.19749737,-0.07881531,2.2628736,-5.6729503,-2.9121497
0.369494,0.19133882,-0.07635762,2.1923103,-5.496051,-2.82134
0.35797334,0.18537296,-0.07397682,2.1239552,-5.3246865,-2.733372
0.34681308,0.17959373,-0.0716705,2.0577383,-5.1586823,-2.6481557
0.33600178,0.17399521,-0.0694363,1.9935919,-4.99787,-2.5656042
0.32552847,0.16857171,-0.06727194,1.9314508,-4.8420844,-2.4856334
0.3153825,0.16331773,-0.065175235,1.871252,-4.6911674,-2.4081619
0.30555356,0.15822789,-0.063144036,1.812934,-4.544966,-2.333111
0.29603162,0.15329707,-0.061176285,1.7564379,-4.403332,-2.2604046
0.28680712,0.14852023,-0.059269994,1.7017062,-4.266122,-2.189969
0.27787063,0.14389256,-0.057423227,1.6486834,-4.133196,-2.1217327
0.2692131,0.13940935,-0.055634115,1.5973161,-4.0044193,-2.0556269
0.26082584,0.13506609,-0.05390085,1.5475521,-3.8796625,-1.9915842
0.25270033,0.13085836,-0.052221674,1.4993411,-3.7587993,-1.9295403
0.24482834,0.12678194,-0.050594892,1.4526346,-3.6417074,-1.8694323
0.23720196,0.12283269,-0.049018867,1.4073851,-3.5282686,-1.8111997
0.22981349,0.11900664,-0.047492,1.3635472,-3.418368,-1.7547835
0.22265545,0.115299925,-0.046012763,1.3210765,-3.3118958,-1.700127
0.21572064,0.111708805,-0.04457965,1.2799305,-3.2087438,-1.6471751
0.20900208,0.10822966,-0.04319123,1.2400674,-3.1088083,-1.5958742
0.202493,0.104858994,-0.0418461,1.2014471,-3.0119886,-1.5461729
0.19618684,0.10159342,-0.040542904,1.1640309,-2.9181876,-1.498021
0.19007726,0.098429635,-0.039280333,1.1277812,-2.8273106,-1.4513702
0.18415812,0.09536447,-0.038057115,1.0926613,-2.7392662,-1.4061736
0.17842346,0.09239483,-0.03687202,1.058636,-2.6539657,-1.3623855
0.17286752,0.08951774,-0.03572386,1.025671,-2.5713236,-1.3199621
0.16748473,0.08673032,-0.034611482,0.99373335,-2.4912572,-1.2788608
0.16226965,0.08402974,-0.033533763,0.9627909,-2.4136853,-1.2390401
0.15721709,0.081413314,-0.032489628,0.9328126,-2.3385308,-1.2004602
0.15232192,0.0788784,-0.031478018,0.90376824,-2.2657175,-1.1630824
0.14757927,0.07642247,-0.03049793,0.87562877,-2.1951728,-1.126869
0.14298438,0.07404304,-0.029548371,0.84836596,-2.1268258,-1.0917838
0.13853261,0.071737744,-0.028628394,0.8219524,-2.0606077,-1.0577915
0.13421951,0.069504246,-0.027737072,0.79636157,-1.9964525,-1.024858
0.13004075,0.06734032,-0.026873514,0.7715679,-1.9342955,-0.9929504
0.12599216,0.065243796,-0.026036855,0.7475465,-1.8740746,-0.9620366
0.122069664,0.06321257,-0.025226252,0.7242732,-1.8157293,-0.93208563
0.11826933,0.061244607,-0.024440896,0.70172477,-1.759201,-0.90306747
0.11458735,0.05933793,-0.023679998,0.6798786,-1.7044334,-0.87495303
0.11102004,0.057490632,-0.022942798,0.65871274,-1.6513712,-0.8477142
0.10756382,0.055700865,-0.022228554,0.638206,-1.5999616,-0.8213236
0.10421523,0.053966828,-0.021536551,0.61833787,-1.5501529,-0.7957548
0.10097092,0.052286793,-0.0208661,0.59908843,-1.5018952,-0.7709822
0.09782762,0.050659068,-0.020216523,0.58043844,-1.4551402,-0.74698097
0.0947822,0.04908203,-0.019587174,0.5623691,-1.4098411,-0.72372717
0.09183162,0.047554094,-0.018977422,0.54486245,-1.3659524,-0.7011974
0.0889729,0.04607374,-0.018386655,0.5279009,-1.3234303,-0.6793691
0.08620319,0.044639472,-0.017814282,0.51146746,-1.2822322,-0.65822047
0.08351972,0.04324986,-0.01725973,0.4955457,-1.2423168,-0.63773036
0.080919795,0.04190352,-0.016722444,0.48011962,-1.2036442,-0.61787814
0.07840082,0.040599093,-0.016201887,0.46517384,-1.1661756,-0.5986441
0.07596028,0.03933528,-0.015697537,0.4506934,-1.1298736,-0.5800088
0.07359571,0.03811081,-0.015208889,0.43666378,-1.0947019,-0.5619537
0.07130476,0.036924466,-0.014735454,0.42307097,-1.0606251,-0.5444608
0.069085136,0.035775058,-0.014276759,0.40990132,-1.0276092,-0.52751243
0.066934615,0.03466143,-0.013832344,0.39714167,-0.9956212,-0.5110917
0.064851046,0.033582475,-0.0134017635,0.38477924,-0.964629,-0.49518222
0.06283234,0.032537106,-0.012984589,0.37280172,-0.9346017,-0.479768
0.060876478,0.031524282,-0.012580401,0.36119702,-0.9055092,-0.46483368
0.058981504,0.03054299,-0.012188797,0.34995365,-0.8773223,-0.45036423
0.057145525,0.029592246,-0.011809383,0.33906025,-0.85001296,-0.43634528
0.0553667,0.028671099,-0.01144178,0.328506,-0.8235538,-0.42276272
0.05364325,0.027778627,-0.011085622,0.31828028,-0.79791826,-0.409603
0.05197345,0.026913939,-0.01074055,0.3083729,-0.7730808,-0.39685294
0.05035563,0.026076168,-0.01040622,0.29877394,-0.7490165,-0.3844998
0.048788175,0.025264475,-0.010082299,0.2894738,-0.72570133,-0.3725312
0.047269516,0.024478052,-0.009768461,0.28046316,-0.70311195,-0.36093518
0.04579813,0.023716109,-0.0094643915,0.27173302,-0.6812258,-0.34970012
0.044372547,0.022977885,-0.009169789,0.26327464,-0.6600209,-0.33881482
0.04299134,0.02226264,-0.008884356,0.25507957,-0.6394761,-0.32826838
0.04165313,0.021569662,-0.0086078085,0.24713957,-0.61957085,-0.3180502
