ax,ay,az,gx,gy,gz
-4.2500386,4.2500386,-4.528223,-46.55315,-49.99409,-14.981046
-4.2247677,4.4410834,-4.3951826,-48.306,-57.959145,-16.974562
-4.2914147,4.2584677,-4.544426,-42.636375,-65.462364,-19.931025
-4.405149,4.0698514,-4.7744412,-39.04202,-73.38841,-22.477753
-4.5225177,3.8881602,-5.050388,-35.44529,-83.22255,-26.267889
-4.6023636,3.726119,-5.285981,-31.771366,-94.67155,-31.556965
-4.554641,3.5562565,-5.4562573,-31.243937,-106.361404,-36.339188
-4.4056463,3.2175553,-5.6262507,-31.482458,-117.89997,-39.634373
-4.269652,2.7874663,-5.8329725,-30.59863,-130.42516,-42.177612
-4.196442,2.2412908,-6.1590633,-26.859715,-145.8457,-44.291367
-3.9772973,1.5957054,-6.5013776,-20.317972,-165.56915,-46.16057
-3.393498,1.0871687,-6.7035465,-13.461647,-187.41405,-45.36498
-2.4965563,0.61794114,-6.815976,-9.730491,-208.63683,-42.3007
-1.4516484,0.021190293,-6.7475863,-7.098394,-226.08861,-36.302467
-0.3662926,-0.485353,-6.5872087,-5.569657,-239.80461,-28.489147
0.78378284,-0.80376726,-6.237448,-4.9357476,-249.09807,-21.703869
2.016644,-0.97017515,-5.5238433,-3.6750042,-247.86699,-17.176613
3.2722857,-0.98533046,-4.485955,-1.5711213,-236.97365,-14.31294
4.2892895,-0.91892326,-3.5881221,0.76059824,-219.14352,-12.96404
5.0104785,-0.80651814,-3.023056,2.682793,-197.53093,-12.203392
5.3578486,-0.71793526,-2.8307898,4.7524567,-176.42157,-12.518418
5.492004,-0.70901275,-2.759394,7.923443,-157.16864,-13.582336
5.6355815,-0.7186074,-2.6135356,11.490009,-138.47365,-13.939456
5.838067,-0.7190165,-2.3961296,15.017411,-118.78685,-13.298699
6.0232844,-0.7123821,-2.2306619,18.652573,-97.66866,-11.717067
6.0403466,-0.66206074,-2.2529218,22.236614,-77.339386,-10.131298
5.8933177,-0.52558076,-2.4328537,24.777828,-60.36315,-9.644901
5.545777,-0.35315597,-2.690051,26.27117,-47.520367,-10.50963
5.1905093,-0.1926501,-2.8831043,27.234674,-37.58607,-12.241245
4.8809624,-0.039125938,-3.001736,27.53552,-29.413094,-14.117677
4.617979,0.10678403,-3.0726078,27.022036,-22.00951,-15.691706
4.3749847,0.25022185,-3.1362615,25.629492,-15.200822,-16.83386
4.098963,0.42098117,-3.2616358,23.976017,-9.541026,-17.909101
3.7664316,0.60464525,-3.4327435,21.751764,-5.7691298,-19.456936
3.4095972,0.77184445,-3.6073563,19.347372,-3.8597934,-21.604952
3.045791,0.9228266,-3.7842925,16.915686,-3.9106758,-24.34306
2.723174,1.0763162,-3.9484682,13.9212265,-6.1913004,-27.31215
2.4586895,1.2106177,-4.072188,10.695721,-9.442984,-30.089296
2.2405274,1.3469534,-4.194017,6.9217763,-13.591426,-32.640263
2.048355,1.4922674,-4.338451,2.2608953,-18.964052,-35.345676
1.876655,1.600404,-4.5075874,-3.321216,-26.040554,-38.527588
1.7705607,1.5850366,-4.64732,-8.745627,-35.346237,-42.14613
1.7976019,1.4601134,-4.696452,-13.630577,-44.611435,-45.096745
1.9266,1.2722591,-4.6668444,-18.154942,-53.358204,-47.176582
2.1300044,1.0191933,-4.555757,-22.341091,-61.12529,-48.655033
2.3802383,0.6995917,-4.35988,-25.876646,-67.26447,-49.674873
2.6627777,0.31240577,-4.101049,-27.16179,-70.059906,-50.00799
2.9563062,-0.10744801,-3.8128426,-26.711674,-70.30511,-49.366726
3.1765795,-0.5082122,-3.5795743,-25.28279,-69.06928,-47.81677
3.3028204,-0.8745095,-3.4046752,-23.24605,-67.393845,-45.620274
3.3723383,-1.1894377,-3.25804,-20.673128,-65.5346,-43.050278
3.4202533,-1.4623474,-3.1119106,-17.207737,-63.23681,-39.96668
3.4535518,-1.6924444,-2.9718373,-13.070735,-60.394264,-36.325375
3.474755,-1.8801643,-2.8532612,-8.222341,-56.854607,-32.077885
3.4745643,-2.0117419,-2.7726862,-2.9577491,-52.870323,-27.379757
3.4508507,-2.0854094,-2.735966,2.4675393,-48.93001,-22.351013
3.413533,-2.0980232,-2.725313,7.883666,-45.342083,-16.83727
3.4031265,-2.0063567,-2.7051473,12.822055,-41.787796,-11.088706
3.4135766,-1.8162085,-2.6888404,16.664316,-38.25515,-5.5061817
3.439388,-1.5213853,-2.677152,19.218958,-34.804283,-0.5156637
3.469097,-1.1270703,-2.6753604,20.34132,-31.679317,2.9210162
3.506448,-0.71150476,-2.6458995,20.60969,-28.808075,2.945022
3.5879724,-0.304053,-2.5596132,20.00674,-25.401508,1.062713
3.6821253,0.06678559,-2.461185,18.222178,-21.130564,-1.7169262
3.7621067,0.39040145,-2.3767538,15.21851,-15.914419,-4.571978
3.7802126,0.6530409,-2.353611,11.8842535,-10.464754,-7.139486
3.7027779,0.85660857,-2.4094512,7.9511857,-6.1155586,-10.020811
3.5772853,0.954129,-2.4736743,3.838573,-2.8563523,-13.396452
3.4621108,0.94259554,-2.514628,0.57566404,-0.3051379,-17.034813
3.3614721,0.8318334,-2.5438483,-1.7528648,1.6624786,-20.29066
3.276827,0.6578662,-2.5640078,-3.38972,3.0379097,-22.617937
3.2092986,0.4443311,-2.5736096,-4.331833,3.605019,-23.451302
3.1692472,0.21689694,-2.5549507,-4.77573,3.6572225,-23.227964
3.0687332,0.21001796,-2.4739194,-4.624266,3.541232,-22.49128
2.9715188,0.2033648,-2.395548,-4.477774,3.4290495,-21.778778
2.8774855,0.19692934,-2.3197412,-4.3360753,3.3205376,-21.089592
2.7865198,0.19070384,-2.2464075,-4.1989994,3.2155657,-20.42289
2.6985135,0.18468086,-2.1754594,-4.066383,3.114009,-19.777876
2.6133626,0.1788533,-2.1068134,-3.9380693,3.0157473,-19.15379
2.5309677,0.17321436,-2.040389,-3.8139086,2.9206657,-18.549902
2.4512331,0.16775748,-1.9761095,-3.6937568,2.8286543,-17.965515
2.3740673,0.16247642,-1.9139009,-3.577476,2.7396073,-17.399954
2.2993827,0.15736514,-1.8536923,-3.4649339,2.653423,-16.852575
2.2270944,0.15241788,-1.7954156,-3.3560028,2.5700045,-16.322762
2.1571214,0.14762907,-1.7390056,-3.2505605,2.4892576,-15.809918
2.0893857,0.14299338,-1.6843991,-3.14849,2.4110925,-15.313472
2.023812,0.13850565,-1.6315358,-3.0496774,2.3354225,-14.832871
1.9603287,0.13416097,-1.5803573,-2.9540143,2.2621644,-14.367591
1.8988657,0.12995456,-1.5308077,-2.8613958,2.191238,-13.917117
1.8393563,0.12588187,-1.482833,-2.7717211,2.1225655,-13.480963
1.7817359,0.12193844,-1.4363812,-2.6848931,2.0560732,-13.058653
1.7259424,0.118120044,-1.3914022,-2.6008182,1.9916892,-12.649733
1.6719159,0.114422575,-1.3478477,-2.5194058,1.929344,-12.253763
1.6195986,0.11084209,-1.3056711,-2.440569,1.8689715,-11.87032
1.5689349,0.107374765,-1.2648276,-2.364224,1.8105069,-11.498998
1.519871,0.10401693,-1.2252737,-2.2902896,1.7538885,-11.139399
1.4723549,0.10076503,-1.1869677,-2.2186878,1.6990564,-10.791145
1.4263368,0.09761563,-1.1498693,-2.149343,1.6459526,-10.45387
1.381768,0.094565436,-1.1139393,-2.0821826,1.5945216,-10.127218
1.3386022,0.09161125,-1.0791403,-2.017136,1.5447094,-9.810848
1.296794,0.08874999,-1.0454359,-1.9541357,1.496464,-9.50443
1.2563002,0.08597867,-1.012791,-1.8931155,1.4497353,-9.207643
1.2170784,0.083294414,-0.9811716,-1.8340124,1.4044744,-8.92018
1.1790881,0.08069444,-0.950545,-1.7767649,1.3606347,-8.641743
1.1422901,0.078176044,-0.9208795,-1.721314,1.3181708,-8.372043
1.1066462,0.07573665,-0.89214444,-1.6676022,1.2770387,-8.110803
1.0721197,0.07337373,-0.86431026,-1.6155745,1.2371961,-7.8577523
1.0386752,0.07108486,-0.83734834,-1.5651771,1.1986021,-7.612632
1.0062784,0.068867676,-0.811231,-1.5163583,1.1612171,-7.3751893
0.97489595,0.06671993,-0.78593147,-1.4690682,1.1250026,-7.145182
0.9444958,0.064639404,-0.76142377,-1.4232583,1.0899217,-6.9223742
0.9150469,0.06262398,-0.73768294,-1.3788818,1.0559385,-6.706538
0.88651913,0.060671594,-0.7146847,-1.3358934,1.0230182,-6.497453
0.85888344,0.058780264,-0.6924057,-1.2942493,0.99112743,-6.2949066
0.8321117,0.056948062,-0.67082316,-1.253907,0.9602336,-6.098692
0.8061767,0.05517312,-0.64991516,-1.2148256,0.93030536,-5.9086094
0.78105205,0.05345364,-0.6296604,-1.1769654,0.9013122,-5.724467
0.75671226,0.051787872,-0.6100384,-1.1402878,0.87322474,-5.546076
0.73313266,0.050174132,-0.5910292,-1.1047556,0.8460145,-5.3732567
0.7102893,0.048610777,-0.5726136,-1.0703331,0.8196539,-5.205834
0.6881591,0.04709623,-0.5547729,-1.0369852,0.7941163,-5.0436378
0.6667197,0.045628957,-0.5374891,-1.0046781,0.7693758,-4.8865047
0.6459493,0.04420748,-0.5207447,-0.9733794,0.7454074,-4.734275
0.6258271,0.04283035,-0.50452274,-0.9430572,0.7221869,-4.586796
0.6063326,0.04149619,-0.4888069,-0.91368103,0.6996908,-4.4439173
0.5874463,0.040203646,-0.4735813,-0.88522124,0.67789656,-4.3054957
0.56914896,0.038951416,-0.4588306,-0.85764915,0.656782,-4.171392
0.5514223,0.03773824,-0.4445399,-0.83093685,0.6363259,-4.04147
0.5342484,0.036562894,-0.43069482,-0.8050576,0.6165077,-3.9155998
0.51761,0.03542419,-0.41728142,-0.77998513,0.59730744,-3.7936537
0.5014903,0.03432099,-0.4042862,-0.7556944,0.5787057,-3.6755095
0.48587304,0.03325218,-0.39169607,-0.73216087,0.5606839,-3.5610483
0.4707426,0.032216683,-0.37949836,-0.70936084,0.5432238,-3.4501545
0.45608377,0.03121346,-0.36768085,-0.6872715,0.5263079,-3.3427174
0.44188175,0.030241502,-0.35623163,-0.6658705,0.50991917,-3.2386284
0.4281223,0.029299833,-0.34513918,-0.6451364,0.49404114,-3.137783
0.4147916,0.028387507,-0.33439237,-0.6250484,0.4786579,-3.04008
0.40187627,0.027503608,-0.32398042,-0.60558635,0.46375397,-2.9454212
0.38936335,0.026647247,-0.31389287,-0.5867306,0.4493144,-2.8537118
0.37724024,0.025817567,-0.30411962,-0.5684624,0.43532467,-2.7648594
0.36549482,0.025013734,-0.2946508,-0.5507632,0.42177078,-2.678775
0.35411525,0.02423494,-0.28547695,-0.53361535,0.40863907,-2.5953724
0.34309018,0.023480404,-0.27658886,-0.5170017,0.39591646,-2.5145676
0.33240852,0.022749374,-0.26797763,-0.5009055,0.3835901,-2.4362798
0.32205954,0.02204111,-0.2596346,-0.4853107,0.3716477,-2.3604305
0.3120329,0.021354908,-0.25155145,-0.47020158,0.36007723,-2.2869434
0.30231854,0.020690076,-0.24372001,-0.45556304,0.34886712,-2.2157452
0.29290673,0.02004595,-0.23613249,-0.44138038,0.33800614,-2.1467643
0.283788,0.019421883,-0.22878125,-0.42763942,0.32748342,-2.0799317
0.27495325,0.018817252,-0.22165895,-0.41432637,0.31728837,-2.0151803
0.26639363,0.018231448,-0.21475844,-0.40142787,0.30741078,-1.9524454
0.25810054,0.017663885,-0.20807281,-0.38893107,0.2978408,-1.8916639
0.2500657,0.017113997,-0.20159537,-0.37682337,0.28856882,-1.8327751
0.24228105,0.01658123,-0.19531961,-0.3650927,0.27958554,-1.77572
0.2347388,0.016065054,-0.18923928,-0.35372728,0.27088198,-1.7204415
0.22743137,0.015564948,-0.18334825,-0.34271577,0.26244944,-1.6668842
0.22035149,0.015080415,-0.17764066,-0.33204708,0.25427943,-1.6149944
0.21349204,0.014610968,-0.17211078,-0.3217106,0.24636382,-1.5647203
0.20684615,0.014156136,-0.16675307,-0.31169593,0.23869465,-1.5160115
0.20040718,0.0137154665,-0.16156217,-0.30199307,0.23126426,-1.4688191
0.19416869,0.013288516,-0.15653288,-0.2925923,0.22406521,-1.4230961
0.18812442,0.012874858,-0.15166017,-0.2834842,0.2170903,-1.3787966
0.18226832,0.012474079,-0.14693917,-0.27465966,0.21033253,-1.3358762
0.17659454,0.012085777,-0.14236514,-0.26610985,0.20378515,-1.2942922
0.17109741,0.011709564,-0.13793352,-0.25782624,0.19744162,-1.2540027
0.16577141,0.011345063,-0.13363987,-0.2498005,0.19129556,-1.2149675
0.16061121,0.0109919105,-0.12947987,-0.24202463,0.18534085,-1.1771476
0.15561166,0.010649751,-0.12544939,-0.23449083,0.17957151,-1.1405051
0.15076776,0.010318244,-0.12154438,-0.22719155,0.17398177,-1.1050032
0.14607465,0.009997057,-0.11776094,-0.22011952,0.16856606,-1.0706066
0.14152764,0.009685868,-0.11409528,-0.21326764,0.16331893,-1.0372808
0.13712218,0.009384368,-0.11054373,-0.20662907,0.15823516,-1.0049924
0.13285387,0.009092253,-0.107102744,-0.20019715,0.15330964,-0.9737091
0.12871842,0.008809231,-0.10376887,-0.19396545,0.14853746,-0.9433997
0.12471171,0.00853502,-0.10053878,-0.18792775,0.14391382,-0.91403383
0.12082973,0.008269344,-0.09740925,-0.182078,0.13943411,-0.8855821
0.11706859,0.00801194,-0.09437714,-0.17641036,0.13509387,-0.8580161
0.11342453,0.007762548,-0.0914394,-0.17091914,0.13088873,-0.8313081
0.10989391,0.007520919,-0.088593125,-0.16559885,0.1268145,-0.8054316
0.10647319,0.007286812,-0.08583545,-0.16044419,0.122867085,-0.7803606
