ax,ay,az,gx,gy,gz
-0.6354603,1.3054664,-4.907317,62.14511,-39.784,13.816489
-0.5585298,1.6225711,-5.592325,54.869408,-47.05965,15.056023
-0.65336937,1.7367873,-6.226918,42.088387,-55.047455,12.892743
-0.76515603,1.4345019,-6.7478886,32.35254,-64.5072,10.229544
-0.80024606,1.076881,-7.154562,20.345263,-73.88994,11.0050535
-0.84753543,0.7110026,-7.612214,8.433089,-83.90358,12.971561
-0.83718264,0.3062277,-7.9742827,-2.29202,-93.95934,16.3731
-0.80599463,-0.035988543,-8.314299,-9.497561,-103.80433,20.812101
-0.78688294,-0.29557976,-8.636813,-14.626114,-114.08524,24.723476
-0.74034,-0.5901303,-8.952223,-17.494778,-126.258446,27.639168
-0.58733684,-1.0416639,-9.255347,-18.720901,-139.42868,29.80342
-0.30920538,-1.5641257,-9.474577,-19.027357,-153.3297,32.168114
0.03592747,-1.977694,-9.565841,-19.185177,-167.9002,35.41196
0.42158294,-2.1449797,-9.468107,-20.617857,-182.73305,39.03093
0.9076407,-2.244661,-9.102889,-22.59061,-194.53897,41.78175
1.5909014,-2.4543443,-8.418389,-21.744904,-200.68689,44.886803
2.3200614,-2.4090524,-7.6808176,-18.418066,-203.56232,49.173363
3.1259162,-2.0454907,-6.8548903,-16.008554,-204.97612,53.336395
4.026893,-1.5447931,-5.8525133,-15.043311,-204.6311,55.8468
5.06034,-1.0686129,-4.6168184,-13.683168,-198.82,56.115814
6.219598,-0.5941011,-3.196239,-11.531077,-187.21811,55.57004
7.2747884,-0.17738344,-1.9680408,-8.199243,-171.53203,53.1899
8.111751,0.119738474,-1.0162452,-4.785514,-153.88773,49.095074
8.727883,0.30004004,-0.30526465,-2.1188326,-135.1572,44.40561
9.16187,0.38196346,0.2100386,-0.4682991,-115.07663,39.646664
9.472467,0.35219827,0.53668773,0.1420045,-94.011536,35.124104
9.681327,0.25357994,0.6321143,1.4217654,-72.824585,30.725622
9.771605,0.104300134,0.56557846,2.900766,-51.814247,26.384504
9.740486,-0.08583989,0.32383588,5.8064265,-32.43518,22.08369
9.585661,-0.2476154,-0.028900044,10.115627,-16.499325,17.800356
9.329565,-0.3358451,-0.43535018,13.634958,-3.6953523,14.128411
9.084675,-0.3899272,-0.7914876,15.73997,7.6902018,11.914461
8.847285,-0.4331124,-1.1489326,17.381739,17.973824,10.3384285
8.603677,-0.438861,-1.5390376,18.31303,27.270561,8.795853
8.328659,-0.4246139,-1.973757,19.040606,34.85128,7.1458683
7.9602914,-0.38011348,-2.4974136,20.504412,39.651596,5.2260118
7.599682,-0.2799556,-2.9752457,21.513346,42.401825,3.6340303
7.292425,-0.115709506,-3.4010847,21.697014,43.472263,2.081729
7.005244,0.086600415,-3.815959,21.062151,42.519886,-0.119842164
6.7340264,0.27800012,-4.195403,19.167162,39.26448,-2.6976595
6.4924617,0.48882562,-4.5142155,16.228018,34.965694,-5.6009307
6.2611127,0.7073224,-4.8122964,12.191054,29.260414,-9.205184
6.0313206,0.88091445,-5.07422,7.4254193,22.277357,-13.294639
5.8033915,1.0066212,-5.2979326,2.309111,14.329471,-17.477795
5.5741568,1.1050571,-5.485155,-3.561039,5.297744,-21.435568
5.334551,1.1699332,-5.6759963,-9.827765,-5.2090898,-25.53496
5.1363754,1.1553007,-5.7863092,-15.956082,-16.43699,-29.555864
5.0082946,1.0431365,-5.803825,-21.000229,-27.667305,-33.327602
4.9408116,0.83938384,-5.718527,-25.72594,-38.38568,-36.81936
4.9141355,0.4666584,-5.602352,-27.843958,-49.57286,-40.222954
5.0269485,-0.08149971,-5.3102617,-29.362766,-59.245583,-42.39263
5.26054,-0.6689483,-4.8943553,-29.71494,-65.54521,-42.788876
5.5458193,-1.265101,-4.4541373,-27.978003,-68.70385,-41.49602
5.8162513,-1.8238775,-4.0419083,-24.481228,-69.384674,-38.379936
6.048567,-2.2980044,-3.6840332,-20.515972,-68.117325,-34.13824
6.1906853,-2.6897638,-3.3983722,-16.467066,-66.20373,-29.933857
6.2621512,-3.06109,-3.1569633,-11.435819,-63.63535,-25.535555
6.2899704,-3.3843584,-2.9625561,-5.1461563,-60.237644,-20.53607
6.2900367,-3.6184893,-2.830749,2.0148764,-56.14211,-14.82635
6.2753124,-3.7554746,-2.7679894,9.597406,-51.814384,-8.605813
6.253344,-3.7559788,-2.7573357,17.330906,-47.565918,-1.9721568
6.2648344,-3.5611084,-2.7463095,24.091692,-43.40089,4.78915
6.323885,-3.1568365,-2.7020884,29.189316,-38.92699,10.76898
6.402951,-2.6079218,-2.6540098,33.23311,-34.650936,15.015081
6.476374,-1.9559125,-2.5763085,35.22733,-30.633625,16.523249
6.530851,-1.2599187,-2.464238,35.973694,-26.422241,16.28862
6.562327,-0.5950853,-2.3524468,36.09616,-21.819818,14.682962
6.5722017,0.024194881,-2.2553086,35.357296,-16.982338,11.852579
6.5686183,0.574817,-2.1695156,33.413273,-11.67201,8.1680355
6.539518,1.0229292,-2.1244428,30.088259,-5.43586,2.7909815
6.46385,1.2926462,-2.1633053,26.85072,0.567238,-3.4621902
6.382935,1.4578674,-2.2030082,22.32723,6.2372465,-9.28466
6.273099,1.5611045,-2.2597845,15.763183,11.998914,-13.767318
6.071576,1.5522527,-2.4250286,9.610833,16.390009,-17.595135
5.787366,1.4019594,-2.6315114,6.104447,17.280346,-20.864214
5.637389,1.1660482,-2.7105758,3.6418278,16.783733,-23.27884
5.574435,0.90286934,-2.731991,1.5875647,15.722528,-25.223005
5.5641575,0.5872026,-2.7061565,-0.103021435,14.765265,-26.417658
5.5562005,0.26593745,-2.6681914,-0.978002,14.16455,-27.028505
5.5249496,-0.03815137,-2.627829,-0.9221652,13.639082,-26.799814
5.47045,-0.28885207,-2.5573924,-0.6719901,12.978669,-25.61135
5.413771,-0.4781481,-2.4530857,-0.23963925,12.139697,-23.69261
5.3625326,-0.6342723,-2.2950666,0.61466974,11.398731,-21.228819
5.1939445,-0.61433196,-2.222914,0.5953457,11.040377,-20.561424
5.030756,-0.5950303,-2.1530724,0.57664055,10.6935,-19.915405
4.8727856,-0.57634574,-2.0854638,0.55853343,10.357713,-19.290043
4.7198577,-0.5582577,-2.0200133,0.54100436,10.032645,-18.68464
4.5718036,-0.5407461,-1.9566491,0.524034,9.717939,-18.098537
4.428462,-0.52379185,-1.8953015,0.50760376,9.413248,-17.531086
4.2896767,-0.5073765,-1.8359036,0.49169573,9.118242,-16.98167
4.1552963,-0.49148223,-1.7783915,0.47629267,8.832601,-16.449697
4.025177,-0.4760919,-1.7227026,0.461378,8.556016,-15.934589
3.8991785,-0.46118897,-1.6687776,0.44693565,8.28819,-15.435795
3.7771661,-0.44675756,-1.6165586,0.43295023,8.028837,-14.952781
3.6590102,-0.43278223,-1.56599,0.41940683,7.7776823,-14.485033
3.544585,-0.41924822,-1.5170181,0.4062911,7.5344577,-14.032056
3.43377,-0.40614116,-1.4695913,0.39358914,7.2989063,-13.593369
3.326448,-0.3934473,-1.4236594,0.38128757,7.0707803,-13.1685095
3.2225068,-0.38115326,-1.3791744,0.3693735,6.8498397,-12.757034
3.121837,-0.36924618,-1.3360895,0.35783443,6.635854,-12.35851
3.0243337,-0.35771367,-1.2943599,0.3466583,6.4285984,-11.972521
2.9298954,-0.34654364,-1.253942,0.3358335,6.227858,-11.598665
2.838424,-0.33572453,-1.2147939,0.32534876,6.033424,-11.236554
2.7498243,-0.3252451,-1.176875,0.3151932,5.8450947,-10.885813
2.6640053,-0.31509456,-1.1401459,0.30535635,5.6626754,-10.546078
2.580878,-0.3052624,-1.104569,0.29582804,5.4859776,-10.216999
2.5003567,-0.29573846,-1.0701072,0.28659847,5.31482,-9.898237
2.4223588,-0.28651297,-1.0367255,0.2776581,5.1490254,-9.589464
2.346804,-0.27757648,-1.0043895,0.2689978,4.988425,-9.290363
2.2736151,-0.2689198,-0.97306603,0.26060867,4.8328524,-9.000628
2.202717,-0.26053408,-0.9427229,0.25248212,4.68215,-8.719962
2.1340375,-0.25241074,-0.9133293,0.24460985,4.536163,-8.448078
2.067506,-0.24454153,-0.8848551,0.23698382,4.394742,-8.184698
2.003055,-0.23691837,-0.85727125,0.22959627,4.257744,-7.929555
1.9406192,-0.22953354,-0.8305498,0.22243966,4.125028,-7.682388
1.8801346,-0.2223795,-0.8046635,0.21550673,3.9964604,-7.442945
1.8215398,-0.215449,-0.77958596,0.20879042,3.87191,-7.210984
1.7647754,-0.208735,-0.7552919,0.20228392,3.7512503,-6.9862695
1.7097839,-0.20223069,-0.7317565,0.19598062,3.634359,-6.7685733
1.6565095,-0.19592947,-0.70895606,0.18987416,3.5211177,-6.5576744
1.6048983,-0.18982498,-0.68686736,0.18395832,3.4114115,-6.3533597
1.5548981,-0.18391103,-0.6654682,0.17822714,3.30513,-6.155422
1.5064583,-0.17818163,-0.6447368,0.17267482,3.2021651,-5.963662
1.45953,-0.17263103,-0.6246523,0.16729575,3.102413,-5.7778854
1.4140657,-0.16725358,-0.6051945,0.1620845,3.005773,-5.5979047
1.3700198,-0.16204388,-0.5863436,0.15703583,2.9121478,-5.423538
1.3273475,-0.15699668,-0.56808066,0.1521446,2.8214426,-5.2546105
1.2860061,-0.15210688,-0.55038726,0.14740592,2.7335663,-5.090951
1.2459538,-0.14736955,-0.5332456,0.14281501,2.64843,-4.9323945
1.2071502,-0.14277992,-0.5166384,0.13836722,2.5659485,-4.778782
1.1695565,-0.13833338,-0.50054896,0.1340581,2.4860382,-4.629958
1.1331346,-0.13402545,-0.48496103,0.12988332,2.408619,-4.485774
1.0978479,-0.12985182,-0.469859,0.12583867,2.3336127,-4.3460836
1.0636611,-0.12580825,-0.45522767,0.121920064,2.2609444,-4.2107472
1.0305398,-0.1218907,-0.44105232,0.11812359,2.1905408,-4.0796285
0.9984505,-0.118095234,-0.4273187,0.114445426,2.1223311,-3.952596
0.96736115,-0.11441803,-0.41401303,0.11088187,2.0562468,-3.8295217
0.93724054,-0.11085541,-0.40112194,0.107429355,1.9922216,-3.7102823
0.90805835,-0.10740378,-0.38863248,0.1040844,1.9301912,-3.5947578
0.8797853,-0.10405969,-0.37653214,0.10084366,1.8700933,-3.4828324
0.85239303,-0.100819774,-0.36480874,0.097703874,1.8118677,-3.374394
0.82585406,-0.097680785,-0.35345057,0.0946619,1.7554559,-3.2693334
0.8001418,-0.09463958,-0.34244618,0.09171468,1.7008013,-3.1675456
0.77523047,-0.091693096,-0.33178455,0.08885927,1.647849,-3.068928
0.751095,-0.08883839,-0.32145503,0.086092785,1.596546,-2.9733822
0.72771126,-0.086072594,-0.3114472,0.08341247,1.546841,-2.8808124
0.7050558,-0.08339294,-0.30175108,0.08081563,1.4986839,-2.7911255
0.6831059,-0.08079674,-0.2923569,0.07829967,1.4520267,-2.7042317
0.66183954,-0.078281395,-0.2832553,0.07586206,1.4068224,-2.6200442
0.6412355,-0.07584438,-0.27443716,0.07350036,1.363026,-2.5384781
0.62127304,-0.07348325,-0.2658936,0.0712122,1.3205934,-2.4594524
0.6019322,-0.07119565,-0.25761607,0.068995304,1.279482,-2.3828874
0.5831937,-0.06897928,-0.24959631,0.06684743,1.239651,-2.3087065
0.5650386,-0.066831924,-0.24182628,0.064766444,1.20106,-2.2368355
0.5474489,-0.06475143,-0.23429817,0.06275025,1.1636708,-2.1672022
0.5304068,-0.06273572,-0.22700447,0.060796835,1.1274457,-2.0997372
0.51389533,-0.060782768,-0.21993788,0.05890424,1.0923486,-2.0343728
0.49789795,-0.058890626,-0.2130913,0.057070576,1.0583442,-1.9710437
0.4823987,-0.057057396,-0.20645788,0.055294,1.0253986,-1.9096862
0.46738195,-0.05528124,-0.200031,0.05357274,0.99347866,-1.850239
0.4528328,-0.053560384,-0.19380422,0.05190507,0.96255255,-1.7926427
0.43873656,-0.051893104,-0.18777129,0.050289318,0.9325893,-1.7368397
0.42507923,-0.050277732,-0.18192619,0.04872387,0.9035589,-1.6827738
0.41184705,-0.048712652,-0.17626306,0.047207158,0.87543225,-1.6303914
0.39902684,-0.0471963,-0.17077625,0.04573767,0.8481813,-1.5796396
0.38660574,-0.04572715,-0.16546024,0.044313923,0.8217787,-1.5304679
0.37457135,-0.044303738,-0.16030975,0.042934503,0.7961981,-1.4828268
0.36291158,-0.04292464,-0.15531957,0.04159803,0.77141386,-1.436669
0.35161483,-0.041588474,-0.15048477,0.04030316,0.7474012,-1.3919482
0.34066972,-0.040293906,-0.14580046,0.039048597,0.724136,-1.3486195
0.33006537,-0.039039638,-0.14126198,0.037833095,0.70159507,-1.3066397
0.3197911,-0.037824415,-0.1368648,0.03665543,0.6797559,-1.2659668
0.30983672,-0.03664702,-0.1326045,0.035514425,0.6585966,-1.2265599
0.30019218,-0.035506282,-0.12847681,0.03440894,0.6380959,-1.1883799
0.2908479,-0.03440105,-0.12447762,0.03333787,0.61823344,-1.1513883
0.2817945,-0.03333023,-0.12060292,0.032300137,0.5989893,-1.1155483
0.2730229,-0.03229274,-0.11684884,0.03129471,0.5803442,-1.0808239
0.26452437,-0.031287547,-0.113211624,0.030320585,0.5622795,-1.0471805
0.25629038,-0.030313643,-0.109687634,0.02937678,0.54477715,-1.0145844
0.24831271,-0.029370056,-0.10627334,0.028462358,0.52781963,-0.983003
