ax,ay,az,gx,gy,gz
-0.28272983,1.2181929,0.26091146,3.3845763,32.126656,49.494087
-0.18661223,1.6340567,0.6154451,6.075864,37.147354,48.391502
-0.1634696,1.97207,0.852505,10.996109,38.94986,42.49679
-0.08012004,2.3431811,1.1206906,12.278629,40.35215,36.33675
0.012243721,2.7211874,1.3999422,8.904541,42.132824,29.889765
0.10918047,3.0754702,1.667218,0.5018673,42.755924,21.983854
0.26644015,3.4021058,1.819905,-5.458689,45.591354,15.474798
0.39594615,3.6786826,1.9152973,-10.118789,49.748707,10.45448
0.47082743,3.947752,1.9630445,-14.8755245,53.933884,6.548098
0.47746658,4.223643,1.9531585,-20.404802,57.262516,2.9400365
0.4369416,4.476452,1.872274,-28.008995,59.15726,-1.4731003
0.3597534,4.6464796,1.6639321,-35.770878,60.491665,-6.814933
0.27648026,4.701355,1.3962619,-43.271416,61.70958,-12.722401
0.18425456,4.622877,1.075155,-49.48495,62.611988,-18.938265
0.08024419,4.457106,0.72173965,-54.461037,62.746452,-25.253998
-0.026943883,4.2335234,0.3661235,-58.28169,61.880684,-31.845194
-0.13872391,3.9555113,0.016671136,-61.087883,60.375538,-38.5559
-0.24320379,3.641848,-0.32163113,-62.62869,58.108803,-45.28468
-0.33716905,3.282444,-0.6350644,-62.97575,55.240654,-51.59156
-0.42273578,2.8967128,-0.92024034,-62.363564,51.798046,-57.127037
-0.4917993,2.4950063,-1.1860539,-60.72118,47.12558,-61.541622
-0.53384423,2.0725334,-1.4163067,-58.57731,41.861065,-64.8126
-0.5733887,1.6491579,-1.627388,-55.720406,36.112324,-67.30885
-0.5983733,1.2282813,-1.8167235,-52.088337,29.997059,-69.10035
-0.5902057,0.82157916,-1.9691678,-47.778027,23.800964,-69.9473
-0.5402156,0.44579777,-2.0852277,-42.761917,17.685839,-69.397964
-0.42714277,0.09995349,-2.149066,-37.44791,12.195507,-67.64731
-0.29042274,-0.21984994,-2.1888409,-31.755527,7.463877,-64.7298
-0.15570065,-0.5058868,-2.210595,-25.764627,3.4521792,-60.83571
-0.03804794,-0.7418132,-2.2211208,-19.522808,-0.042253032,-56.22546
0.05886495,-0.9165918,-2.2216957,-12.8877735,-3.2305286,-51.02534
0.1444803,-0.98443717,-2.1795948,-6.4850287,-6.1611795,-45.69583
0.23214635,-0.95308346,-2.0801196,-0.8662863,-8.523392,-40.427757
0.31839657,-0.85102314,-1.9398751,4.2088385,-10.301574,-35.55665
0.39651752,-0.68678826,-1.7691994,8.847628,-11.6199665,-31.144173
0.4733458,-0.44583204,-1.5566145,12.637946,-12.313516,-27.598848
0.55011207,-0.122570716,-1.2979242,15.165617,-12.639601,-24.825945
0.6245146,0.21016914,-1.02874,16.241146,-12.568685,-22.550097
0.7001025,0.53997326,-0.75994956,16.05371,-11.853867,-20.796574
0.77319366,0.83604705,-0.517813,15.018107,-10.425029,-19.522821
0.82887095,1.0918021,-0.32252654,13.384939,-8.357069,-18.692234
0.83723354,1.3145684,-0.1883858,11.5189295,-6.202867,-18.247246
0.82346356,1.5191599,-0.084857166,9.299211,-4.1569676,-18.156168
0.8075755,1.7032306,0.0010212881,6.622601,-2.154702,-18.346764
0.78935486,1.8750771,0.06864234,3.4918518,-0.13099335,-18.85607
0.7597704,2.0260975,0.10667116,-0.10152624,1.890582,-19.984571
0.7099373,2.1112452,0.090770654,-3.7489133,3.805611,-21.580536
0.64686567,2.1468377,0.03463296,-7.3088603,5.4795647,-23.536625
0.5683509,2.1469116,-0.051204182,-10.747113,6.686998,-25.805653
0.48547634,2.1090093,-0.1534533,-14.002046,7.4183865,-28.351385
0.4071118,2.0261073,-0.27350715,-16.644375,7.619017,-31.189085
0.327768,1.902395,-0.40887836,-18.625849,7.4309025,-34.192123
0.25621757,1.7475729,-0.5458184,-19.895828,6.9461346,-37.209454
0.18722352,1.5601852,-0.68745697,-20.547583,6.067463,-39.837257
0.11920505,1.3536282,-0.8387358,-20.289465,4.649253,-42.055973
0.058277715,1.1384053,-0.99045193,-18.691326,2.413103,-44.033882
0.023478039,0.9185999,-1.1256204,-16.075678,-0.3115128,-45.943684
0.012188508,0.6887114,-1.244926,-12.424365,-3.455757,-47.508434
0.012737731,0.45297763,-1.3562008,-7.7273912,-7.029744,-48.672173
0.06017228,0.21330765,-1.4398413,-2.5134172,-10.625855,-48.953594
0.121006,-0.023043457,-1.5113723,3.077772,-14.339007,-48.13866
0.19383548,-0.23731938,-1.5557449,8.23793,-17.922176,-46.82625
0.28901786,-0.45157868,-1.5668707,13.104244,-20.952711,-45.111694
0.41147956,-0.6564054,-1.5452069,18.10162,-23.000853,-42.976192
0.5306377,-0.8226691,-1.4961023,23.335873,-23.977154,-40.26399
0.60992664,-0.9246903,-1.4471327,28.260159,-24.37922,-37.079956
0.6517196,-0.97588086,-1.3960118,32.512604,-24.667868,-33.802536
0.6967076,-0.9734534,-1.3270073,35.941902,-24.663649,-30.53431
0.7527028,-0.8822903,-1.2254789,38.35731,-24.359396,-27.249212
0.8091202,-0.709199,-1.0946956,39.421017,-23.825914,-24.148014
0.8788773,-0.5181222,-0.9416196,38.288284,-22.635874,-21.653463
0.9937905,-0.37185854,-0.7723201,35.813335,-20.30348,-19.111645
0.9622335,-0.36005047,-0.74779564,34.67611,-19.658758,-18.504768
0.93171585,-0.34863132,-0.724079,33.576344,-19.035273,-17.917883
0.90220004,-0.33758703,-0.7011409,32.51268,-18.432255,-17.350262
0.87365,-0.32690412,-0.6789534,31.483818,-17.848969,-16.801214
0.8460314,-0.31656975,-0.6574897,30.488525,-17.28471,-16.27008
0.8193113,-0.30657154,-0.6367243,29.52561,-16.73881,-15.756224
0.79345816,-0.29689777,-0.61663264,28.593937,-16.21062,-15.259041
0.76844174,-0.28753707,-0.5971912,27.692417,-15.699527,-14.777948
0.7442331,-0.27847862,-0.57837754,26.820007,-15.204936,-14.31239
0.72080433,-0.26971203,-0.56017005,25.975704,-14.726279,-13.861831
0.6981289,-0.26122728,-0.5425479,25.158545,-14.263012,-13.425757
0.676181,-0.25301477,-0.5254912,24.367607,-13.81461,-13.003676
0.65493613,-0.2450653,-0.5089808,23.602003,-13.3805685,-12.595115
0.6343705,-0.23737001,-0.4929983,22.860876,-12.960405,-12.199616
0.61446136,-0.22992037,-0.477526,22.14341,-12.553655,-11.816742
0.59518677,-0.22270817,-0.46254686,21.448809,-12.159868,-11.446072
0.5765256,-0.21572551,-0.44804442,20.776316,-11.778615,-11.087198
0.5584576,-0.2089648,-0.43400294,20.125196,-11.40948,-10.739731
0.5409632,-0.20241867,-0.4204072,19.494747,-11.052062,-10.403294
0.52402335,-0.19608012,-0.40724254,18.884287,-10.7059765,-10.077524
0.50762004,-0.1899423,-0.39449477,18.29316,-10.3708515,-9.762072
0.49173573,-0.18399866,-0.38215032,17.720734,-10.046329,-9.456598
0.4763534,-0.17824288,-0.370196,17.166399,-9.732063,-9.160781
0.46145684,-0.17266884,-0.3586192,16.629568,-9.427721,-8.874304
0.44703022,-0.16727066,-0.3474076,16.109674,-9.132979,-8.596864
0.43305835,-0.16204265,-0.33654946,15.606171,-8.84753,-8.328171
0.4195266,-0.15697931,-0.3260333,15.118525,-8.571072,-8.067941
0.40642077,-0.15207534,-0.31584817,14.646229,-8.303315,-7.8159018
0.39372715,-0.14732562,-0.3059834,14.188787,-8.043981,-7.57179
0.38143256,-0.14272521,-0.2964287,13.745727,-7.792798,-7.3353524
0.36952424,-0.13826932,-0.2871742,13.316585,-7.549506,-7.1063423
0.3579898,-0.13395333,-0.27821022,12.900916,-7.3138537,-6.8845224
0.3468173,-0.1297728,-0.26952758,12.498292,-7.085596,-6.669664
0.33599526,-0.12572338,-0.26111728,12.108296,-6.8644977,-6.4615445
0.32551247,-0.121800914,-0.25297064,11.730528,-6.650331,-6.2599497
0.3153582,-0.118001364,-0.24507928,11.364597,-6.442876,-6.064672
0.305522,-0.11432084,-0.23743513,11.010129,-6.241919,-5.8755116
0.2959938,-0.110755555,-0.23003033,10.66676,-6.0472546,-5.692274
0.28676385,-0.10730187,-0.2228573,10.334139,-5.858683,-5.5147724
0.27782267,-0.10395625,-0.21590872,10.011926,-5.6760125,-5.3428245
0.2691612,-0.10071528,-0.20917748,9.699791,-5.4990554,-5.176255
0.2607706,-0.09757566,-0.20265675,9.397417,-5.327632,-5.0148945
0.25264227,-0.09453419,-0.19633986,9.104496,-5.1615677,-4.858578
0.24476798,-0.091587774,-0.1902204,8.82073,-5.0006933,-4.7071476
0.23713973,-0.08873343,-0.18429214,8.54583,-4.844846,-4.560448
0.2297498,-0.08596824,-0.17854907,8.279518,-4.6938667,-4.4183316
0.22259064,-0.083289415,-0.17298537,8.0215225,-4.547603,-4.280654
0.21565504,-0.080694236,-0.1675954,7.771584,-4.405906,-4.147275
0.20893598,-0.07818008,-0.16237369,7.529448,-4.2686334,-4.0180597
0.20242661,-0.0757444,-0.15731499,7.29487,-4.135645,-3.8928783
0.19612041,-0.07338473,-0.15241414,7.067612,-4.006807,-3.771603
0.19001098,-0.07109869,-0.14766623,6.847446,-3.8819892,-3.6541123
0.18409215,-0.06888397,-0.14306644,6.6341486,-3.7610657,-3.540287
0.17835796,-0.06673834,-0.13861012,6.427505,-3.643914,-3.4300125
0.17280261,-0.06465963,-0.13429281,6.2273064,-3.5304165,-3.3231773
0.16742052,-0.06264575,-0.13011014,6.0333514,-3.4204586,-3.2196739
0.16220626,-0.06069466,-0.12605791,5.845444,-3.3139293,-3.119398
0.15715456,-0.05880441,-0.122132,5.663396,-3.2107215,-3.0222487
0.15226036,-0.05697309,-0.1183285,5.487023,-3.1107314,-2.928128
0.14751872,-0.055198856,-0.11464355,5.3161483,-3.013858,-2.8369415
0.14292489,-0.053479925,-0.11107347,5.1505995,-2.9200044,-2.748597
0.13847423,-0.051814567,-0.10761466,4.9902105,-2.8290758,-2.663006
0.13416228,-0.05020111,-0.10426364,4.8348203,-2.740981,-2.5800827
0.12998469,-0.048637934,-0.10101705,4.6842723,-2.6556318,-2.4997432
0.12593728,-0.047123466,-0.097871624,4.5384154,-2.5729418,-2.4219074
0.12201598,-0.045656186,-0.0948242,4.3971033,-2.4928284,-2.3464966
0.11821686,-0.044234622,-0.09187173,4.260194,-2.4152107,-2.2734354
0.11453609,-0.042857345,-0.08901124,4.1275496,-2.3400116,-2.2026503
0.11097,-0.041522976,-0.08623986,3.9990375,-2.267155,-2.1340704
0.107514985,-0.040230174,-0.08355481,3.874529,-2.1965678,-2.067627
0.104167596,-0.03897764,-0.080953404,3.7538989,-2.1281796,-2.0032532
0.10092447,-0.03776412,-0.07843302,3.637026,-2.0619214,-1.9408845
0.097782366,-0.0365884,-0.075991146,3.5237935,-1.9977272,-1.8804584
0.09473812,-0.0354493,-0.073625326,3.4140878,-1.9355321,-1.8219143
0.09178869,-0.034345675,-0.071333185,3.3077986,-1.8752742,-1.7651936
0.088931106,-0.03327642,-0.06911243,3.2048197,-1.8168929,-1.7102393
0.08616252,-0.032240465,-0.066960834,3.105048,-1.7603297,-1.6569965
0.08348015,-0.031236771,-0.06487624,3.008383,-1.705528,-1.6054116
0.08088131,-0.030264333,-0.06285657,2.9147286,-1.6524329,-1.5554333
0.0783634,-0.029322175,-0.060899783,2.8239903,-1.6009911,-1.5070112
0.0759239,-0.028409356,-0.059003934,2.7360775,-1.5511512,-1.460097
0.07356036,-0.027524961,-0.057167117,2.6509023,-1.5028632,-1.4146435
0.071270406,-0.026668103,-0.05538749,2.5683792,-1.4560788,-1.3706053
0.06905176,-0.025837924,-0.05366328,2.4884255,-1.410751,-1.3279384
0.06690219,-0.025033597,-0.05199275,2.4109614,-1.3668346,-1.2866
0.06481955,-0.02425431,-0.05037424,2.3359091,-1.3242856,-1.2465487
0.062801756,-0.023499288,-0.048806116,2.2631936,-1.2830614,-1.2077442
0.060846783,-0.022767771,-0.04728682,2.192742,-1.2431206,-1.1701481
0.058952678,-0.02205903,-0.045814823,2.124484,-1.2044233,-1.1337224
0.05711754,-0.021372357,-0.044388656,2.058351,-1.1669309,-1.0984309
0.05533954,-0.02070706,-0.04300689,1.9942769,-1.1306057,-1.064238
0.053616893,-0.020062476,-0.04166814,1.9321977,-1.0954114,-1.0311096
0.051947873,-0.01943796,-0.040371068,1.8720511,-1.0613128,-0.99901265
0.050330818,-0.018832887,-0.039114382,1.8137771,-1.0282758,-0.96791494
0.048764102,-0.018246649,-0.037896816,1.7573172,-0.99626726,-0.9377853
0.04724616,-0.017678663,-0.03671715,1.7026149,-0.9652552,-0.9085937
0.045775473,-0.01712836,-0.035574216,1.6496156,-0.93520856,-0.88031083
0.044350572,-0.016595187,-0.03446686,1.5982662,-0.90609735,-0.85290843
0.042970028,-0.016078612,-0.033393975,1.5485154,-0.8778923,-0.82635915
0.04163246,-0.015578117,-0.03235449,1.5003134,-0.8505654,-0.8006363
0.04033653,-0.015093205,-0.031347364,1.4536119,-0.8240891,-0.7757142
0.039080944,-0.014623387,-0.03037159,1.4083642,-0.79843706,-0.75156796
0.037864443,-0.014168194,-0.029426191,1.3645251,-0.77358353,-0.7281734
0.036685813,-0.013727171,-0.028510224,1.3220506,-0.7495037,-0.70550704
0.035543874,-0.013299878,-0.027622769,1.2808983,-0.72617346,-0.6835463
0.034437478,-0.012885885,-0.02676294,1.2410271,-0.7035695,-0.6622692
0.033365525,-0.01248478,-0.025929878,1.2023971,-0.6816691,-0.64165443
0.032326944,-0.01209616,-0.025122747,1.1649696,-0.66045046,-0.62168133
