ax,ay,az,gx,gy,gz
0.6572787,-1.4445586,-1.2263747,24.802954,17.14561,-20.973825
0.7772156,-1.3537637,-1.287184,23.134388,21.364912,-18.744997
0.34830472,-0.9579618,-1.4619572,18.774755,15.841064,-19.39359
-0.050806295,-0.6894172,-1.443852,16.763475,10.468745,-22.520374
-0.21539927,-0.54490554,-1.2911649,16.74365,6.6449695,-26.037117
-0.17975286,-0.47127816,-1.0243679,18.588755,5.6563377,-26.768562
-0.021646336,-0.32893938,-0.73001176,18.40096,6.2777243,-26.824574
0.08386839,-0.21484256,-0.5149963,17.17007,7.391031,-27.311708
0.16370513,-0.15460032,-0.3452346,16.056267,9.442114,-27.878027
0.17728394,-0.100344025,-0.2666685,15.228948,11.788079,-28.209103
0.09955915,-0.0039585703,-0.2980399,13.7288065,14.098687,-27.849424
-0.109755054,0.14189517,-0.49127802,10.873879,15.660499,-27.169554
-0.36334103,0.24908607,-0.7776102,7.0957265,15.990344,-26.694202
-0.6320768,0.325579,-1.116519,3.4929936,14.886145,-26.573395
-0.8898254,0.38817385,-1.4682606,0.22129911,12.448711,-26.515678
-1.1302711,0.4463641,-1.818525,-2.725208,8.851586,-26.138258
-1.3726906,0.5238469,-2.2094548,-5.792308,4.633164,-25.974329
-1.6185799,0.5579493,-2.6298883,-8.562261,-0.33915743,-26.264767
-1.8494812,0.5146809,-3.0313594,-10.521651,-5.7434125,-26.813135
-2.034888,0.41707274,-3.3798363,-11.126393,-11.500813,-27.80975
-2.1512837,0.28923357,-3.6517973,-9.885688,-17.281569,-29.162216
-2.1869204,0.17017558,-3.8595932,-8.127884,-23.219975,-30.347473
-2.1619065,0.058991894,-3.9998255,-6.627958,-28.84212,-30.809834
-2.102497,-0.06656165,-4.100823,-5.9598336,-34.320137,-30.396965
-2.0366585,-0.2184925,-4.1781607,-5.738184,-39.571213,-29.575583
-1.9541577,-0.41843843,-4.2430406,-4.9748054,-44.5419,-28.545853
-1.8338381,-0.70015347,-4.276088,-3.2447817,-49.283215,-27.521582
-1.6485094,-1.0074997,-4.246251,-0.4431934,-53.877174,-26.412622
-1.3805009,-1.3053511,-4.1155415,2.5985472,-57.781082,-24.647018
-1.0544522,-1.558857,-3.9020498,5.319852,-61.158936,-21.780466
-0.7164877,-1.7640324,-3.6237395,7.015592,-64.20989,-18.403763
-0.38204426,-1.9354542,-3.2576296,8.538113,-66.97891,-15.216149
-0.01821461,-2.0816715,-2.8283029,9.93559,-68.82219,-12.047267
0.3518788,-2.2342186,-2.3655665,11.521037,-69.55431,-8.657621
0.7258662,-2.4061334,-1.9066681,13.3633375,-69.38467,-4.9579263
1.1057446,-2.5768337,-1.4730599,15.332222,-68.42178,-0.67849386
1.4812924,-2.7300205,-1.0747503,17.988817,-66.93968,3.9641433
1.8714026,-2.8080888,-0.7041091,21.588821,-64.99462,8.562702
2.2857108,-2.7715015,-0.34140602,25.613216,-62.2951,12.610604
2.7018397,-2.6671977,0.0059834057,30.015102,-58.55987,16.137712
3.0956905,-2.5222955,0.3108718,34.603188,-53.529354,19.721142
3.438844,-2.2697885,0.5499928,38.579273,-47.959465,23.512922
3.7091048,-1.9265362,0.72270757,41.459225,-42.084667,27.100101
3.8881693,-1.5370612,0.8222863,43.215298,-36.24319,30.22587
4.0027914,-1.1425986,0.8765627,44.48204,-30.375206,32.83593
4.0858507,-0.7440659,0.90545505,45.566303,-24.55174,34.335495
4.1616874,-0.31917214,0.93912697,46.40569,-18.49658,34.936848
4.2226114,0.14080209,0.9472855,46.719044,-12.505242,34.506863
4.2817783,0.58137643,0.9280465,45.790005,-6.5809946,33.263786
4.3340664,0.9499059,0.86071056,43.5836,-0.48085904,31.809017
4.354773,1.2425945,0.7196728,40.166264,5.5483947,30.011587
4.3261857,1.4401863,0.49139658,36.552624,11.212536,27.824448
4.2673497,1.5981292,0.21777862,32.992767,16.587965,25.204576
4.168847,1.7423519,-0.09761087,29.408356,21.558344,22.236526
4.028689,1.8602747,-0.4527853,25.819757,25.806026,19.053307
3.857191,1.9386439,-0.82884324,22.194067,28.94261,15.928857
3.6508749,1.9754521,-1.2280189,18.608238,30.937225,13.153181
3.426942,1.9817624,-1.6279783,15.384005,31.98962,10.439779
3.2010343,1.9673629,-2.0108004,12.6003,32.288494,7.6600676
2.9820461,1.9520744,-2.3672185,10.10834,32.127438,4.903592
2.7558706,1.9421325,-2.7022338,7.5853004,31.442696,2.3018067
2.4997723,1.9289747,-3.030154,4.9192324,30.07997,0.0026566666
2.2383578,1.9049954,-3.3394017,2.2294786,27.938114,-2.0587482
1.9941633,1.8681086,-3.6084964,-0.048534855,25.199154,-4.0705814
1.7869878,1.8244767,-3.8280377,-1.5669187,22.181105,-6.1233144
1.6117688,1.787857,-3.9970586,-2.4455545,18.976036,-8.266683
1.4633619,1.7719659,-4.1140323,-3.0655055,15.572696,-10.558317
1.3476716,1.7610581,-4.1924405,-3.8831737,11.774696,-12.848687
1.2685739,1.744385,-4.2193174,-5.260106,7.708628,-14.804784
1.2259866,1.7279829,-4.2051497,-7.4959474,3.689107,-16.407362
1.2053866,1.6987227,-4.181265,-10.106237,-0.19455284,-17.855518
1.1956767,1.6340593,-4.151019,-11.975907,-4.013379,-19.733002
1.2070867,1.5453997,-4.0798254,-12.911612,-7.752489,-22.182203
1.238165,1.447989,-3.9442158,-13.0131445,-11.298763,-24.999825
1.292616,1.356342,-3.7475774,-13.10748,-14.73249,-27.77716
1.3880059,1.2530105,-3.4943683,-14.189562,-17.924463,-30.015526
1.5430353,1.1135658,-3.171368,-15.575927,-20.68814,-31.908804
1.7288679,0.9585391,-2.8195863,-17.156242,-22.777817,-33.555416
1.913625,0.77594644,-2.4700043,-18.504221,-24.127546,-34.93097
2.0726657,0.58264786,-2.1407852,-19.446817,-24.937113,-36.131157
2.2075746,0.3936375,-1.831679,-20.06092,-25.301353,-37.067627
2.3224597,0.20920554,-1.5516714,-20.881994,-25.503983,-37.556973
2.4025073,0.026047284,-1.3119674,-21.884014,-25.548433,-37.58513
2.442355,-0.16296025,-1.1222394,-22.667765,-25.595293,-37.38788
2.464557,-0.3571935,-0.9613039,-22.642103,-25.414343,-36.99942
2.4798632,-0.5302068,-0.8271494,-21.699223,-24.758146,-36.412586
2.4756308,-0.6526297,-0.7265586,-20.541237,-23.707214,-35.576305
2.4512691,-0.749381,-0.65138274,-19.077461,-22.105825,-34.36843
2.402318,-0.8227987,-0.6060651,-17.304317,-19.908585,-32.898567
2.3270307,-0.7970127,-0.5870713,-16.762009,-19.28466,-31.867546
2.2541332,-0.77204514,-0.5686805,-16.236916,-18.68054,-30.86925
2.183547,-0.74786925,-0.5508728,-15.728471,-18.095575,-29.902607
2.1151962,-0.724459,-0.533629,-15.236129,-17.529139,-28.966578
2.049008,-0.7017894,-0.5169308,-14.759363,-16.98062,-28.060162
1.9849116,-0.6798362,-0.5007604,-14.297666,-16.449438,-27.182392
1.9228392,-0.6585763,-0.4851005,-13.850547,-15.935028,-26.332342
1.862725,-0.6379871,-0.4699347,-13.417535,-15.436849,-25.509108
1.804506,-0.6180469,-0.45524698,-12.998172,-14.954372,-24.711824
1.7481205,-0.5987348,-0.4410219,-12.592019,-14.487094,-23.939655
1.69351,-0.58003056,-0.42724457,-12.198649,-14.034523,-23.191792
1.6406173,-0.5619147,-0.41390058,-11.817653,-13.596188,-22.46745
1.589387,-0.54436827,-0.40097606,-11.448633,-13.171631,-21.765877
1.5397663,-0.5273731,-0.38845757,-11.091207,-12.760412,-21.086346
1.4917035,-0.51091146,-0.37633213,-10.745002,-12.362104,-20.42815
1.4451491,-0.49496645,-0.3645872,-10.409661,-11.976296,-19.79061
1.4000548,-0.47952157,-0.35321066,-10.08484,-11.602589,-19.173065
1.3563743,-0.4645609,-0.34219077,-9.770201,-11.240598,-18.57488
1.3140625,-0.45006904,-0.33151624,-9.465423,-10.889951,-17.995443
1.2730762,-0.43603113,-0.32117605,-9.170191,-10.550287,-17.434155
1.2333732,-0.4224328,-0.31115964,-8.884203,-10.221259,-16.890442
1.1949129,-0.4092601,-0.30145678,-8.607167,-9.90253,-16.363749
1.1576562,-0.39649957,-0.29205748,-8.3388,-9.593774,-15.853535
1.1215647,-0.3841382,-0.28295222,-8.078827,-9.294676,-15.359281
1.086602,-0.37216336,-0.2741317,-7.826984,-9.0049305,-14.880482
1.0527321,-0.3605629,-0.2655869,-7.583014,-8.724243,-14.416652
1.019921,-0.34932497,-0.25730917,-7.3466687,-8.452329,-13.967318
0.98813486,-0.33843818,-0.24929008,-7.1177087,-8.1889105,-13.532023
0.9573418,-0.3278915,-0.2415215,-6.8959007,-7.9337206,-13.110327
0.92751044,-0.3176742,-0.23399553,-6.68102,-7.686501,-12.701801
0.89861053,-0.3077759,-0.22670457,-6.472849,-7.4470005,-12.306031
0.8706129,-0.29818666,-0.21964124,-6.2711773,-7.2149773,-11.922618
0.84348917,-0.28889674,-0.21279836,-6.0758,-6.9901967,-11.551171
0.8172119,-0.27989674,-0.20616904,-5.8865204,-6.772431,-11.191317
0.7917546,-0.27117753,-0.19974658,-5.703147,-6.56146,-10.842691
0.7670915,-0.2627304,-0.1935245,-5.5254946,-6.357071,-10.504943
0.74319774,-0.25454673,-0.1874965,-5.3533835,-6.1590576,-10.17773
0.72004926,-0.24661832,-0.18165651,-5.1866407,-5.9672203,-9.860723
0.69762266,-0.23893717,-0.17599866,-5.0250983,-5.781366,-9.553601
0.6758954,-0.23149553,-0.17051722,-4.8685927,-5.601307,-9.256057
0.65484554,-0.22428592,-0.1652067,-4.716967,-5.426862,-8.96779
0.634452,-0.21730107,-0.16006173,-4.570069,-5.2578554,-8.688509
0.6146941,-0.21053398,-0.15507716,-4.427749,-5.094117,-8.417935
0.5955521,-0.2039778,-0.15024795,-4.289866,-4.935483,-8.155794
0.5770067,-0.19762595,-0.14556925,-4.1562805,-4.7817926,-7.9018245
0.55903924,-0.19147207,-0.14103636,-4.026858,-4.632892,-7.655769
0.54163176,-0.18550996,-0.13664472,-3.9014683,-4.4886317,-7.4173813
0.5247666,-0.17973363,-0.13238993,-3.779986,-4.3488665,-7.1864223
0.508427,-0.17413728,-0.12826772,-3.662289,-4.213456,-6.962659
0.49259648,-0.16871528,-0.12427394,-3.5482588,-4.082265,-6.7458677
0.47725913,-0.16346222,-0.120404586,-3.437781,-3.9551609,-6.5358305
0.4623996,-0.15837279,-0.11665577,-3.3307452,-3.8320162,-6.3323364
0.44800296,-0.15344192,-0.113023736,-3.2270439,-3.7127078,-6.1351814
0.43405476,-0.14866462,-0.109504834,-3.1265724,-3.5971158,-5.9441676
0.42054105,-0.14403614,-0.106095545,-3.0292308,-3.485124,-5.759104
0.4074482,-0.13955183,-0.10279244,-2.9349208,-3.376621,-5.579804
0.39476317,-0.13520719,-0.099592224,-2.8435483,-3.271497,-5.4060884
0.38247323,-0.13099785,-0.096491665,-2.7550216,-3.1696472,-5.2377834
0.370566,-0.1269196,-0.09348767,-2.669252,-3.070969,-5.07472
0.35902962,-0.12296837,-0.09057723,-2.5861533,-2.9753644,-4.9167347
0.3478525,-0.11914018,-0.08775743,-2.5056424,-2.882737,-4.7636695
0.3370234,-0.1154312,-0.08502544,-2.4276388,-2.7929938,-4.6153708
0.32653156,-0.11183772,-0.082378514,-2.3520641,-2.7060452,-4.47169
0.31636643,-0.10835613,-0.07981402,-2.2788427,-2.6218042,-4.3324833
0.3065178,-0.104982965,-0.07732937,-2.2079015,-2.5401864,-4.1976113
0.29697582,-0.10171482,-0.07492209,-2.139169,-2.4611099,-4.066939
0.287731,-0.09854844,-0.07258976,-2.0725765,-2.3844955,-3.940335
0.27877396,-0.09548065,-0.07033006,-2.0080578,-2.3102667,-3.8176732
0.27009585,-0.092508376,-0.068140715,-1.9455477,-2.238349,-3.6988304
0.26168793,-0.08962864,-0.066019535,-1.8849839,-2.1686704,-3.583688
0.25354177,-0.086838566,-0.0639644,-1.8263057,-2.1011612,-3.4721303
0.24564923,-0.08413536,-0.06197324,-1.7694545,-2.035754,-3.364046
0.23800243,-0.08151631,-0.060044076,-1.7143732,-1.9723831,-3.259327
0.2305937,-0.07897881,-0.058174975,-1.6610068,-1.9109851,-3.157868
0.22341561,-0.0765203,-0.056364063,-1.6093018,-1.8514987,-3.0595675
0.216461,-0.07413833,-0.05460953,-1.5592065,-1.7938641,-2.9643276
0.2097229,-0.07183052,-0.05290962,-1.5106708,-1.7380239,-2.8720527
0.20319457,-0.069594555,-0.051262632,-1.4636462,-1.683922,-2.7826502
0.19686948,-0.067428194,-0.049666915,-1.4180853,-1.6315045,-2.6960313
0.1907413,-0.065329276,-0.048120875,-1.373943,-1.5807188,-2.6121087
0.18480389,-0.06329571,-0.046622965,-1.3311747,-1.531514,-2.530799
0.17905131,-0.061325435,-0.045171686,-1.2897379,-1.4838411,-2.4520202
0.17347783,-0.059416503,-0.043765586,-1.2495911,-1.4376522,-2.3756938
0.16807783,-0.057566997,-0.042403255,-1.2106941,-1.3929012,-2.3017437
0.16284594,-0.05577506,-0.041083336,-1.1730078,-1.3495433,-2.2300954
0.15777692,-0.054038912,-0.039804507,-1.1364948,-1.307535,-2.1606777
0.1528657,-0.05235681,-0.038565487,-1.1011183,-1.2668346,-2.093421
0.14810735,-0.050727066,-0.037365034,-1.0668433,-1.2274011,-2.0282578
0.14349714,-0.049148057,-0.036201954,-1.033635,-1.1891952,-1.965123
0.13903043,-0.047618203,-0.03507508,-1.0014606,-1.1521784,-1.9039537
0.13470277,-0.04613597,-0.03398328,-0.9702876,-1.116314,-1.8446885
