ax,ay,az,gx,gy,gz
-3.9627635,-0.02181838,-6.9127903,-90.166275,-52.87957,-3.7173066
-4.1834803,-0.56078905,-7.0434422,-81.898964,-65.024445,0.060269576
-4.039193,-1.2485542,-6.285798,-52.631134,-59.02117,4.6956744
-3.937061,-1.1372759,-5.953644,-26.86681,-51.11678,3.277094
-3.850431,-0.8467843,-5.7741637,-15.713035,-45.089462,-2.0902903
-3.8364584,-0.6901011,-5.64853,-14.334829,-41.031574,-7.6533513
-3.889202,-0.6379912,-5.6510234,-15.146258,-41.752407,-11.543903
-3.8467016,-0.6329657,-5.563306,-15.674273,-43.922478,-14.350156
-3.686979,-0.67265564,-5.40745,-15.428593,-46.306175,-15.975695
-3.4176354,-0.7644761,-5.183187,-14.012328,-47.669796,-16.38769
-3.1211472,-0.8899802,-4.992515,-12.784982,-48.768414,-16.105934
-2.9252222,-1.0961465,-4.857124,-10.479352,-50.52461,-15.848946
-2.7712848,-1.3473762,-4.7060003,-6.556701,-52.58556,-15.214513
-2.5819294,-1.5263971,-4.5531516,-2.7240968,-54.956474,-14.209772
-2.3770602,-1.6748992,-4.3983893,0.5363645,-57.487534,-12.700379
-2.1700046,-1.8093724,-4.211047,3.2198482,-59.87264,-10.372613
-1.9191749,-1.9627076,-3.9536657,5.7743125,-61.405678,-7.6020055
-1.6224575,-2.1815398,-3.6244028,8.915588,-61.853455,-5.1895256
-1.3278377,-2.3477979,-3.32967,12.758161,-61.756317,-3.002117
-1.0572833,-2.4199967,-3.0712862,15.584173,-61.85911,-0.3456234
-0.84668106,-2.4445,-2.8252726,17.134415,-62.21494,3.1199338
-0.6904953,-2.4407895,-2.6053817,17.471033,-63.15143,6.7810383
-0.51760435,-2.4751623,-2.3783407,18.420815,-64.02935,9.923623
-0.30487403,-2.5324726,-2.1206365,20.729876,-63.91616,12.643863
-0.07843639,-2.5659974,-1.8394352,23.30193,-63.00749,15.599055
0.15994936,-2.5553367,-1.5359316,25.144709,-61.35317,19.017027
0.3701383,-2.5182643,-1.2496071,26.153374,-59.382095,22.65963
0.5389233,-2.456298,-0.9882974,27.218246,-57.17738,26.010653
0.69727254,-2.384713,-0.7549213,28.156727,-55.001602,29.400873
0.8708048,-2.3093061,-0.52415204,28.655636,-52.832283,32.935818
1.0556891,-2.2364447,-0.29354748,29.04872,-50.297924,36.513577
1.2306241,-2.1581001,-0.09858375,28.606806,-47.327503,39.820965
1.3711517,-2.092022,0.038630456,27.828333,-44.18522,43.244537
1.4809655,-2.0090356,0.12951128,26.743795,-41.082874,47.057705
1.565045,-1.8851112,0.17912278,25.098396,-38.136337,51.127525
1.6297474,-1.7080423,0.1977363,23.402704,-35.32156,54.65428
1.6797581,-1.5351925,0.19623338,22.014294,-32.63513,57.409554
1.6985276,-1.3517286,0.17817423,21.02734,-30.17922,60.111156
1.7013535,-1.0918813,0.17177482,19.711264,-27.918211,62.61505
1.7089462,-0.77866346,0.18962714,17.678198,-25.5181,64.82033
1.7260735,-0.47744465,0.22121197,15.1531725,-22.821934,66.73842
1.7252817,-0.20043248,0.2295982,13.278474,-20.214542,67.55849
1.680964,0.06994492,0.19504824,12.639161,-17.854874,66.794785
1.6216757,0.3316182,0.15914124,13.142746,-16.170292,64.944786
1.5868611,0.648775,0.16410643,13.146325,-14.907903,62.744286
1.5975689,0.9827294,0.22658305,11.8983755,-13.2381735,60.101547
1.6235398,1.2464406,0.2967339,10.194172,-11.127481,57.25603
1.6469467,1.4311537,0.33299583,8.908786,-9.09206,53.71807
1.6563927,1.5683442,0.34284925,8.605046,-7.4565163,49.260433
1.6609225,1.7004585,0.35183907,8.207751,-6.4049163,44.42828
1.6770468,1.8282357,0.3877303,7.103393,-5.396338,39.8276
1.7134262,1.9191132,0.4370416,5.5478253,-4.1193013,35.364967
1.7704715,1.9498105,0.49132687,4.455116,-2.5176847,30.621386
1.8322245,1.9439958,0.53612083,4.01661,-0.6615703,25.548546
1.8921782,1.918289,0.56606424,3.905778,1.3499594,20.27815
1.9263947,1.8873571,0.56837225,3.5593367,3.426408,15.090987
1.9352602,1.827169,0.53771275,1.678104,5.2043624,10.636877
1.9256165,1.6997097,0.49390483,-0.83125156,6.4400187,7.0238047
1.933535,1.5539805,0.47525364,-3.3703508,7.3781557,3.777441
1.9664161,1.3738534,0.48612472,-4.76755,8.593117,0.35418767
2.0100913,1.1868577,0.51197654,-4.7732816,10.296549,-3.4400415
2.0472808,1.0080928,0.53958005,-3.4915283,12.581043,-7.7322283
2.0683432,0.83864546,0.55429834,-2.3884592,14.7920265,-11.599028
2.0911283,0.66934425,0.5606408,-2.638141,16.771154,-14.434844
2.1132925,0.47644833,0.550614,-3.7747252,18.625387,-16.303371
2.1337686,0.24434942,0.524329,-4.605974,20.561327,-17.767117
2.1456017,-0.0105396,0.48759145,-3.533136,22.799294,-19.404158
2.1466062,-0.21577518,0.43891457,-2.3110518,25.02805,-20.751572
2.1401036,-0.39181992,0.38117492,-2.9194846,27.146822,-20.808113
2.1165679,-0.5868458,0.29226872,-5.0100374,29.02538,-19.669716
2.061053,-0.84424347,0.15649538,-7.2078085,30.557592,-17.842442
1.984869,-1.1785984,-0.003961028,-6.0354786,32.01375,-16.190296
1.9299066,-1.4695432,-0.15092076,-3.6266203,33.36169,-14.245849
1.8988919,-1.6857933,-0.26998287,-1.5158458,34.725243,-11.567931
1.87238,-1.8558211,-0.37588635,-0.03894357,36.212246,-8.024669
1.838413,-1.9771532,-0.49905184,1.2370397,37.708538,-4.033373
1.7842155,-2.0588045,-0.65376365,2.8457234,38.84728,-0.108621374
1.7007983,-2.1044164,-0.83410937,4.8550663,39.63864,3.7154531
1.610148,-2.1145637,-1.0205313,7.0091486,40.123146,7.531006
1.5103561,-2.0863597,-1.2047031,9.230158,40.305218,11.396254
1.4121166,-2.0198758,-1.3782656,11.364047,40.15453,15.2482195
1.3220162,-1.9296255,-1.5382404,13.431108,39.528366,18.701324
1.2497239,-1.8196896,-1.672152,15.521968,38.659283,21.60947
1.1855989,-1.7018692,-1.7894114,17.564913,37.555195,24.339857
1.1080694,-1.5574404,-1.8943692,19.2682,36.317722,27.264715
1.0143667,-1.3772165,-2.0082805,20.54524,34.840004,30.193775
0.896916,-1.1698549,-2.1242673,21.699131,32.92099,32.686466
0.76369756,-0.9052995,-2.2185519,23.005772,30.655323,34.3224
0.64418787,-0.6056456,-2.2813354,24.284246,28.255116,34.849907
0.54286146,-0.30652145,-2.3197784,25.445555,25.76093,34.494175
0.4649884,-0.012099676,-2.3403356,26.15702,23.242697,33.60287
0.39904124,0.2552947,-2.3596458,26.085249,20.785173,32.290688
0.3273883,0.45790726,-2.4033554,25.881992,18.132273,30.750673
0.27477464,0.6400284,-2.4419582,25.881899,15.282552,28.846859
0.25419834,0.8193965,-2.458226,25.885626,12.362517,26.575535
0.25209692,0.9983233,-2.4549668,25.457865,9.521334,24.19649
0.2557204,1.176107,-2.4483712,23.99794,6.943422,21.753223
0.24310221,1.3068427,-2.474301,21.962128,4.236928,19.196196
0.22863168,1.3956515,-2.519881,20.057215,1.2418777,16.340187
0.23689042,1.4548926,-2.5583718,18.32285,-2.0288088,13.362455
0.2637227,1.4995587,-2.57457,16.440962,-5.2614255,10.459304
0.2889621,1.5504398,-2.5758948,13.419427,-8.495349,8.112461
0.31640568,1.5807719,-2.5836096,9.886865,-11.86395,5.82408
0.34236336,1.559647,-2.5937665,7.4044566,-15.29634,2.8321536
0.37527743,1.5154661,-2.5854096,6.2914376,-18.971527,-0.8754431
0.44285643,1.4957931,-2.5193694,4.6667304,-22.845661,-4.461038
0.558641,1.4758633,-2.384328,0.20229425,-26.535505,-6.496502
0.7118183,1.4089237,-2.2091906,-5.7862906,-29.742245,-7.683758
0.8554253,1.2767717,-2.0507367,-10.589751,-31.989983,-9.437298
0.9709585,1.0862285,-1.9381299,-13.053815,-33.48969,-12.036259
1.0618582,0.87283635,-1.8487555,-13.5298605,-34.919624,-14.77848
1.1479492,0.68074447,-1.7365168,-13.347776,-36.399944,-16.517628
1.2315031,0.5267416,-1.611515,-14.054331,-38.041378,-17.252838
1.3308054,0.37696227,-1.4758018,-15.012773,-39.45454,-17.727238
1.4420586,0.22185963,-1.3288085,-15.568361,-40.300335,-18.43221
1.5467179,0.05863872,-1.1753758,-15.703275,-40.49004,-19.295893
1.6267589,-0.095898226,-1.030633,-15.204373,-40.14311,-19.902401
1.6879079,-0.22638018,-0.89860743,-14.422424,-39.548332,-20.10956
1.7396997,-0.3335297,-0.7738214,-13.6991415,-38.781956,-19.813858
1.7831441,-0.41708043,-0.65651506,-13.302738,-37.837917,-19.118528
1.8091242,-0.4799831,-0.5516882,-13.11266,-36.79975,-18.178675
1.8152267,-0.5283981,-0.46518117,-12.7687845,-35.501133,-17.48303
1.8031011,-0.5693208,-0.39909992,-12.121899,-34.054817,-17.008724
1.7852482,-0.597939,-0.34314883,-11.386821,-32.49012,-16.535915
1.7615354,-0.61924744,-0.29922283,-10.758346,-30.9191,-15.880119
1.7275357,-0.62992364,-0.26978055,-10.120944,-29.425589,-15.03948
1.679241,-0.6152246,-0.2564564,-9.706844,-28.364574,-14.24786
1.6252887,-0.5868125,-0.23669568,-9.453944,-27.283419,-13.6349125
1.5721468,-0.56660545,-0.21798716,-9.127175,-26.108627,-13.109504
1.5160214,-0.5546274,-0.20942307,-8.67565,-24.884912,-12.596677
1.4582201,-0.54121655,-0.21093588,-8.356044,-23.798195,-12.0675125
1.4007258,-0.5252653,-0.21539113,-8.314406,-22.849894,-11.467428
1.3366779,-0.50308484,-0.22761725,-8.418529,-22.09841,-10.944967
1.2750933,-0.4805681,-0.2327361,-8.418668,-21.412169,-10.528131
1.2196007,-0.45324147,-0.23084484,-8.283846,-20.695997,-10.213591
1.1668648,-0.4330252,-0.22842088,-8.128532,-19.990746,-9.876563
1.119353,-0.416864,-0.22264732,-7.917248,-19.269451,-9.43218
1.0743804,-0.40908402,-0.21795663,-7.5510073,-18.536444,-8.899049
1.0297502,-0.41406322,-0.21892321,-6.7362638,-17.814846,-8.258979
0.985016,-0.42380673,-0.227737,-5.54024,-17.233578,-7.521032
0.9543473,-0.41061142,-0.22064638,-5.3677435,-16.697008,-7.2868633
0.9246341,-0.39782718,-0.21377663,-5.2006207,-16.177153,-7.0599895
0.89584637,-0.38544118,-0.20712088,-5.038704,-15.673491,-6.840183
0.8679554,-0.37344095,-0.20067243,-4.88183,-15.185516,-6.6272225
0.8409331,-0.36181453,-0.19442485,-4.729843,-14.712742,-6.420895
0.8147524,-0.3505502,-0.18837184,-4.5825896,-14.254692,-6.2209945
0.78938717,-0.33963668,-0.18250735,-4.439922,-13.810908,-6.0273194
0.7648118,-0.3290631,-0.17682551,-4.3016977,-13.380944,-5.839676
0.74100184,-0.31881875,-0.17132062,-4.167778,-12.964372,-5.657876
0.71793336,-0.30889344,-0.16598715,-4.0380287,-12.560771,-5.481738
0.6955832,-0.29927722,-0.16081977,-3.9123201,-12.16974,-5.3110847
0.67392904,-0.28996044,-0.15581329,-3.790526,-11.790884,-5.1457458
0.6529492,-0.28093377,-0.15096273,-3.6725245,-11.423826,-4.985555
0.6326226,-0.2721882,-0.14626318,-3.558197,-11.068197,-4.830353
0.6129289,-0.2637149,-0.14170998,-3.4474297,-10.723642,-4.679983
0.59384847,-0.25550547,-0.13729855,-3.3401113,-10.389815,-4.534295
0.5753621,-0.24755163,-0.13302448,-3.2361343,-10.066382,-4.3931437
0.5574513,-0.23984545,-0.12888348,-3.1353946,-9.753019,-4.2563868
0.54009813,-0.2323792,-0.12487141,-3.0377917,-9.449414,-4.123888
0.52328527,-0.2251454,-0.120984256,-2.9432273,-9.155261,-3.9955142
0.5069959,-0.21813683,-0.11721812,-2.8516073,-8.870266,-3.8711374
0.49121362,-0.21134646,-0.113569245,-2.7628398,-8.594143,-3.750633
0.47592273,-0.2047675,-0.11003397,-2.6768358,-8.326618,-3.6338801
0.46110788,-0.19839334,-0.106608756,-2.5935094,-8.067421,-3.5207622
0.44675425,-0.19221765,-0.10329018,-2.512777,-7.8162937,-3.411166
0.43284747,-0.1862342,-0.10007491,-2.4345582,-7.572984,-3.3049815
0.41937363,-0.18043704,-0.09695974,-2.3587744,-7.3372498,-3.202103
0.40631926,-0.17482035,-0.093941554,-2.2853498,-7.1088543,-3.102427
0.3936713,-0.16937852,-0.09101733,-2.2142112,-6.8875685,-3.0058541
0.38141707,-0.16410609,-0.08818413,-2.145287,-6.673172,-2.9122877
0.36954433,-0.15899779,-0.08543914,-2.0785086,-6.4654493,-2.821634
0.35804117,-0.15404852,-0.082779594,-2.013809,-6.2641935,-2.7338023
0.3468961,-0.14925332,-0.08020285,-1.9511234,-6.0692024,-2.648705
0.33609802,-0.1446074,-0.07770631,-1.8903893,-5.880282,-2.5662568
0.32563606,-0.1401061,-0.07528749,-1.8315458,-5.6972423,-2.486375
0.31549978,-0.13574493,-0.07294397,-1.7745341,-5.5199003,-2.4089801
0.30567902,-0.13151951,-0.0706734,-1.719297,-5.348079,-2.3339944
0.29616398,-0.12742564,-0.06847351,-1.6657796,-5.181607,-2.2613428
0.28694513,-0.1234592,-0.0663421,-1.6139281,-5.020316,-2.1909528
0.2780133,-0.119616225,-0.06427704,-1.5636907,-4.8640466,-2.122754
