ax,ay,az,gx,gy,gz
-0.77455246,0.08272802,-2.2663844,12.484659,-32.015743,1.4981954
-0.37596285,0.16623932,-2.267154,7.059768,-34.209995,-6.2239976
0.011501081,-0.06684065,-2.286171,6.4351635,-34.279156,-10.465228
0.1457778,-0.4336015,-2.493726,6.4436917,-35.226032,-12.236356
-0.03017696,-0.9259632,-2.9505477,6.8462605,-38.82512,-13.446966
-0.303206,-1.4750648,-3.4187937,6.60212,-45.06622,-13.25186
-0.55366296,-2.1694236,-3.8405821,7.402089,-53.61755,-10.463131
-0.7902081,-2.861914,-4.1751566,11.035575,-63.255157,-5.666079
-1.0473013,-3.469807,-4.3884096,17.775291,-74.039536,0.23400699
-1.2691447,-4.1034613,-4.4107795,25.981241,-85.24341,7.099369
-1.238257,-4.553565,-4.158677,34.437275,-94.60494,15.92187
-1.0050182,-4.6868815,-3.6144753,42.18699,-101.19368,25.55596
-0.62983805,-4.5225496,-2.8336966,48.052685,-104.530876,35.172085
-0.11875318,-4.1270237,-1.8834451,51.267937,-103.51072,43.579052
0.54859036,-3.5578566,-0.8118893,52.722137,-98.799194,50.26284
1.2318543,-2.8896148,0.21847737,52.428978,-90.65848,55.132004
1.8508942,-2.1746643,1.123404,50.232487,-79.87266,58.42178
2.3856523,-1.5045311,1.8367256,46.52244,-66.85925,60.78338
2.8052008,-0.9293698,2.3056397,42.097416,-51.69907,62.620148
3.0304546,-0.46481678,2.454665,37.57324,-36.809204,63.699604
3.1496677,-0.092443906,2.4253438,32.83537,-22.830765,64.150085
3.2434583,0.21157676,2.2826161,27.8595,-9.6162195,64.32102
3.3115568,0.4786086,2.038131,22.820286,2.7761474,63.975037
3.3138692,0.73261124,1.6927539,18.346437,12.909989,62.112293
3.2607117,1.0132794,1.2692558,15.17796,20.77771,58.38546
3.2120366,1.3357639,0.857123,12.156465,26.55937,52.530552
3.1645763,1.663437,0.44795597,8.503572,30.565912,45.122215
3.119229,1.9475378,0.058497503,4.1868334,33.464317,36.793224
3.028182,2.168863,-0.30218408,-0.19628902,35.048496,27.313
2.831925,2.3105905,-0.58773,-3.9772258,34.955162,17.301613
2.642496,2.4092991,-0.7504604,-7.000008,33.78303,7.4269867
2.530296,2.455917,-0.78299296,-9.975967,32.994514,-1.4505994
2.4284716,2.4089358,-0.75089663,-13.023342,32.59493,-9.411807
2.3440886,2.2106955,-0.67473227,-15.1292515,32.27016,-17.1676
2.3812892,1.7842195,-0.52996516,-15.570409,32.85866,-24.25655
2.462915,1.2652757,-0.3784156,-14.969247,34.38468,-29.663822
2.5387897,0.6854864,-0.26149097,-14.033701,36.609253,-32.639427
2.5726562,0.07511675,-0.18699121,-12.478235,39.278427,-32.60118
2.561398,-0.47531056,-0.15284647,-9.745882,42.346886,-29.276316
2.496077,-0.826952,-0.19362289,-6.8385806,45.065628,-25.208511
2.3980656,-1.075252,-0.26908913,-4.1955466,47.172993,-20.866167
2.2844238,-1.2895366,-0.37461853,-1.4900254,48.662033,-15.77172
2.1856587,-1.4412518,-0.5038924,1.354093,49.811756,-9.767509
2.0862787,-1.501132,-0.66875017,3.8551865,50.013863,-3.236043
1.9842763,-1.4919572,-0.858709,5.7860413,49.265236,2.9592285
1.8792524,-1.473854,-1.0591565,7.7398877,47.41118,8.300906
1.7833239,-1.4462807,-1.2574453,10.11031,44.63081,12.750224
1.7101898,-1.3881363,-1.4517959,12.62728,41.084145,16.45572
1.6559733,-1.2890874,-1.6479819,14.777161,36.641064,19.290781
1.6058294,-1.1462448,-1.8584957,16.898052,31.359346,21.173777
1.5839461,-1.0033339,-2.057605,19.154507,25.83875,22.207357
1.5895528,-0.8400447,-2.2339518,20.826405,20.387117,22.928722
1.6008593,-0.6439765,-2.3968801,21.904608,14.916389,23.220978
1.6127055,-0.42996514,-2.5469987,21.766779,9.344743,22.878971
1.6431265,-0.19459434,-2.6520464,21.506702,4.2532625,21.625654
1.6902813,0.11550632,-2.704121,20.301435,-0.83004904,19.121323
1.7782019,0.42640138,-2.7014208,18.214876,-5.282448,15.688721
1.8733022,0.69863236,-2.6702728,15.161564,-8.833864,12.0281
1.9351357,0.912009,-2.6552684,11.097,-11.847304,8.159634
1.9367925,1.0261763,-2.6442175,7.6579957,-14.904774,4.1860566
1.9708731,1.1115991,-2.5678122,4.215328,-17.281477,0.2812295
2.0394304,1.1668823,-2.4272454,-0.079688765,-18.865086,-3.0024307
2.0828521,1.1710874,-2.2731767,-4.6869483,-19.732826,-5.6748405
2.0587385,1.1365514,-2.1228821,-8.871336,-20.497786,-8.741045
1.9946557,0.97865444,-1.9508178,-12.12067,-21.666555,-12.18115
1.9565854,0.74735165,-1.742532,-14.7554245,-23.034513,-15.341162
1.9464716,0.46438852,-1.5101669,-17.175549,-24.05481,-17.458889
1.9397705,0.16862133,-1.2717344,-19.263985,-24.558352,-18.349165
1.9009103,-0.0912072,-1.0440629,-20.430393,-24.772062,-18.831347
1.8105457,-0.30251497,-0.840495,-20.726738,-25.145998,-19.25457
1.7208993,-0.47707605,-0.6572732,-20.420479,-25.235405,-19.148716
1.6348318,-0.61010647,-0.5050589,-20.002129,-25.189892,-18.456408
1.5672642,-0.7095573,-0.37549984,-19.144094,-24.891977,-17.316036
1.5225688,-0.7424602,-0.26784194,-18.10719,-24.02897,-16.331305
1.4734167,-0.7303125,-0.19492187,-17.398237,-22.917799,-15.589658
1.4190692,-0.70568293,-0.14771016,-17.417439,-21.609257,-14.9669285
1.3602986,-0.6513188,-0.12125934,-17.918394,-20.106089,-14.565163
1.3023663,-0.6118617,-0.12693606,-18.584244,-18.609404,-14.509951
1.2426847,-0.59858155,-0.13713026,-17.907291,-17.708252,-13.969262
1.1923438,-0.57201636,-0.14245445,-17.090605,-17.09221,-13.422994
1.1514729,-0.5455528,-0.14955993,-16.252243,-16.282625,-13.1020355
1.1149093,-0.52671015,-0.1570661,-15.569616,-15.37232,-12.564696
1.0780427,-0.50457245,-0.1670364,-15.037569,-14.401027,-12.029249
1.0441511,-0.48870963,-0.16178508,-14.564816,-13.948285,-11.6510725
1.0113449,-0.47335488,-0.15670197,-14.107205,-13.510045,-11.285007
0.97958773,-0.4584911,-0.15178138,-13.664225,-13.085816,-10.930648
0.94884425,-0.44410175,-0.14701785,-13.235386,-12.67513,-10.587599
0.9190806,-0.43017104,-0.14240615,-12.820214,-12.277533,-10.255485
0.89026433,-0.41668373,-0.13794124,-12.418257,-11.8925905,-9.93394
0.86236393,-0.40362507,-0.13361824,-12.029076,-11.519883,-9.622616
0.83534914,-0.39098096,-0.12943245,-11.652248,-11.159006,-9.321174
0.8091909,-0.37873775,-0.1253794,-11.287368,-10.809572,-9.029289
0.78386116,-0.36688226,-0.12145469,-10.934044,-10.471204,-8.746649
0.7593327,-0.35540184,-0.11765416,-10.591898,-10.143541,-8.472951
0.73557955,-0.3442843,-0.11397374,-10.260566,-9.826235,-8.207903
0.7125764,-0.3335178,-0.110409535,-9.939696,-9.518948,-7.9512243
0.690299,-0.32309094,-0.10695778,-9.628949,-9.2213545,-7.7026434
0.6687238,-0.3129928,-0.10361484,-9.327998,-8.933143,-7.461899
0.6478282,-0.30321273,-0.10037719,-9.036527,-8.654009,-7.228737
0.62759036,-0.29374048,-0.09724145,-8.75423,-8.383661,-7.0029144
0.607989,-0.2845662,-0.09420434,-8.480812,-8.121818,-6.7841945
0.58900386,-0.27568027,-0.0912627,-8.215988,-7.8682046,-6.5723505
0.5706151,-0.26707354,-0.08841347,-7.959485,-7.6225586,-6.3671613
0.55280375,-0.25873703,-0.08565371,-7.7110353,-7.3846254,-6.1684146
0.53555137,-0.25066212,-0.08298054,-7.4703817,-7.154159,-5.975905
0.5188401,-0.24284047,-0.08039123,-7.2372766,-6.9309216,-5.7894335
0.5026527,-0.23526405,-0.07788309,-7.01148,-6.7146826,-5.608808
0.48697257,-0.22792505,-0.07545354,-6.7927585,-6.50522,-5.4338427
0.47178364,-0.22081594,-0.073100105,-6.5808887,-6.3023186,-5.264358
0.4570703,-0.21392944,-0.07082036,-6.375653,-6.1057706,-5.1001806
0.44281748,-0.20725848,-0.06861197,-6.1768413,-5.9153743,-4.9411416
0.42901063,-0.20079626,-0.06647269,-5.98425,-5.730936,-4.7870793
0.41563568,-0.19453618,-0.064400315,-5.7976837,-5.5522666,-4.637836
0.40267897,-0.18847187,-0.06239275,-5.616951,-5.3791847,-4.49326
0.39012733,-0.18259712,-0.060447942,-5.4418683,-5.211513,-4.3532033
0.37796795,-0.17690599,-0.058563918,-5.272258,-5.0490823,-4.2175236
0.3661885,-0.17139268,-0.05673876,-5.107947,-4.8917265,-4.086084
0.35477704,-0.1660516,-0.054970622,-4.948769,-4.7392864,-3.9587498
0.34372196,-0.16087733,-0.053257704,-4.7945623,-4.5916076,-3.8353927
0.33301207,-0.15586463,-0.05159827,-4.6451707,-4.4485397,-3.7158875
0.32263654,-0.15100841,-0.049990643,-4.500443,-4.3099384,-3.6001132
0.3125849,-0.14630379,-0.048433196,-4.360233,-4.1756635,-3.4879525
0.3028469,-0.14174597,-0.046924356,-4.224398,-4.0455785,-3.379292
0.2934128,-0.13733038,-0.045462593,-4.092802,-3.919553,-3.2740223
0.28427303,-0.13305256,-0.04404644,-3.9653118,-3.7974594,-3.1720366
0.27541834,-0.12890817,-0.04267446,-3.841798,-3.6791742,-3.0732327
0.26683983,-0.12489305,-0.04134527,-3.722137,-3.5645783,-2.9775102
0.2585289,-0.121003136,-0.040057532,-3.6062076,-3.4535563,-2.8847728
0.25047708,-0.11723453,-0.03880995,-3.4938934,-3.3459961,-2.7949274
0.2426763,-0.113583416,-0.03760127,-3.3850808,-3.2417898,-2.7078831
0.23511873,-0.11004613,-0.03643027,-3.2796607,-3.140832,-2.6235528
0.22779675,-0.10661912,-0.035295773,-3.1775267,-3.0430214,-2.541851
0.220703,-0.103298925,-0.034196638,-3.0785763,-2.9482596,-2.462696
0.21383034,-0.10008221,-0.03313176,-2.98271,-2.8564513,-2.386008
0.20717187,-0.096965745,-0.032100067,-2.889831,-2.767504,-2.31171
0.20072089,-0.0939464,-0.031100526,-2.7998466,-2.6813288,-2.2397273
0.19447093,-0.091021135,-0.03013213,-2.7126663,-2.5978386,-2.1699877
0.1884157,-0.08818702,-0.029193908,-2.6282022,-2.51695,-2.1024208
0.18254913,-0.0854412,-0.028284919,-2.5463698,-2.4385815,-2.0369592
0.17686534,-0.08278093,-0.027404249,-2.4670868,-2.3626544,-1.9735371
0.17135862,-0.08020353,-0.026551012,-2.3902736,-2.2890928,-1.9120907
0.16602342,-0.07770643,-0.025724355,-2.3158534,-2.2178228,-1.8525585
0.16085443,-0.0752871,-0.02492345,-2.243751,-2.1487727,-1.7948806
0.15584643,-0.072943136,-0.02414749,-2.173895,-2.0818734,-1.7389994
0.15099442,-0.07067218,-0.0233957,-2.1062143,-2.017058,-1.6848586
0.14629354,-0.068471946,-0.022667324,-2.0406418,-1.9542612,-1.6324041
0.14173904,-0.066340245,-0.021961635,-1.9771116,-1.8934201,-1.5815833
0.1373264,-0.06427493,-0.021277921,-1.9155599,-1.834474,-1.5323452
0.13305119,-0.06227394,-0.020615501,-1.8559251,-1.7773634,-1.4846406
0.12890911,-0.060335256,-0.01997371,-1.7981473,-1.7220315,-1.4384215
0.12489601,-0.058456946,-0.019351905,-1.7421688,-1.6684226,-1.3936417
0.12100788,-0.056637127,-0.018749462,-1.6879334,-1.616483,-1.3502563
0.117240824,-0.054873977,-0.018165778,-1.635387,-1.5661608,-1.3082219
0.11359107,-0.053165726,-0.01760027,-1.5844767,-1.5174055,-1.2674963
0.110054955,-0.051510666,-0.01705237,-1.5351516,-1.4701684,-1.228039
0.10662894,-0.049907137,-0.01652153,-1.4873624,-1.424402,-1.1898102
0.1033096,-0.048353538,-0.016007219,-1.441061,-1.3800607,-1.1527716
0.10009362,-0.046848312,-0.015508919,-1.3962014,-1.3370999,-1.1168863
0.09697776,-0.04538995,-0.015026135,-1.3527385,-1.2954768,-1.0821183
0.093958914,-0.043976996,-0.014558383,-1.3106287,-1.2551496,-1.0484327
0.091034055,-0.04260803,-0.014105193,-1.26983,-1.2160779,-1.015796
0.08820026,-0.04128169,-0.013666114,-1.2303015,-1.1782227,-0.98417526
0.085454695,-0.039996635,-0.013240703,-1.1920036,-1.1415459,-0.953539
0.0827946,-0.038751595,-0.012828537,-1.1548982,-1.1060112,-0.9238566
0.08021732,-0.037545312,-0.012429204,-1.1189479,-1.0715826,-0.89509827
0.07772028,-0.036376584,-0.012042302,-1.0841167,-1.0382259,-0.86723524
0.07530098,-0.03524424,-0.011667444,-1.0503699,-1.0059075,-0.84023964
0.07295699,-0.034147147,-0.011304257,-1.0176737,-0.9745954,-0.8140844
0.07068597,-0.03308421,-0.010952377,-0.9859954,-0.94425803,-0.7887435
0.06848565,-0.032054365,-0.01061145,-0.95530325,-0.91486514,-0.7641914
0.06635383,-0.031056575,-0.010281137,-0.9255666,-0.8863872,-0.74040365
0.06428837,-0.030089848,-0.009961107,-0.89675564,-0.8587958,-0.71735644
0.062287215,-0.029153217,-0.009651039,-0.8688416,-0.8320634,-0.6950267
0.060348354,-0.028245742,-0.009350624,-0.84179646,-0.8061631,-0.67339206
0.058469847,-0.027366517,-0.0090595605,-0.81559324,-0.78106904,-0.6524309
0.05664982,-0.02651466,-0.008777557,-0.7902058,-0.75675625,-0.6321223
0.054886445,-0.025689324,-0.008504333,-0.76560855,-0.73320025,-0.61244583
0.053177964,-0.024889678,-0.008239614,-0.74177706,-0.7103775,-0.5933819
0.05152267,-0.024114925,-0.007983135,-0.7186874,-0.6882652,-0.57491136
0.0499189,-0.023364289,-0.007734641,-0.6963165,-0.66684127,-0.55701584
