ax,ay,az,gx,gy,gz
-0.58727807,0.613642,-4.206402,-9.876453,-32.40484,28.40935
-0.5809515,0.37129086,-4.534496,-13.255342,-39.53191,24.615553
-0.8679385,0.07808537,-5.066913,-13.843717,-52.753304,15.930937
-1.2868195,-0.30995563,-5.685563,-11.530599,-68.57221,6.9506736
-1.3217785,-0.9464795,-5.9895034,-5.46208,-82.03014,2.1230094
-1.1823072,-1.5620226,-6.1242943,2.0476995,-91.43408,0.97368044
-1.1016225,-2.1764603,-6.205607,10.388438,-99.108376,2.7773705
-1.0737721,-2.7784667,-6.252027,20.242834,-107.52403,6.9766936
-1.0197212,-3.3892207,-6.2006454,29.947851,-117.02317,12.498383
-0.84514344,-3.9423554,-5.976057,38.617355,-125.77577,20.02943
-0.5239833,-4.3896704,-5.5713305,45.92889,-132.30171,29.581524
-0.05755149,-4.589488,-4.9647837,51.552723,-135.1852,40.946632
0.4227697,-4.4678364,-4.23224,54.42174,-135.1418,52.587627
0.96368796,-4.0846763,-3.3386283,55.26648,-132.68048,62.9954
1.5186659,-3.5638182,-2.4270422,54.953693,-128.17215,72.038895
2.0854542,-2.9697697,-1.5194246,54.23763,-121.16557,79.8039
2.6006272,-2.3312979,-0.6932182,52.90797,-111.773575,85.96064
2.9915068,-1.6929141,-0.040401362,50.301914,-100.32397,89.69519
3.2177079,-1.1560067,0.3963425,47.369637,-88.640495,92.01521
3.3964634,-0.6913624,0.7196607,44.172043,-76.50098,93.627205
3.5502813,-0.26130268,0.9442907,39.99136,-63.823578,94.719406
3.6488662,0.11728299,1.0432903,35.24274,-51.066338,95.153694
3.6607792,0.43471748,1.0129826,31.15415,-39.510715,94.27983
3.5882163,0.7062124,0.8791925,27.28556,-29.517202,92.14484
3.5136724,0.9201368,0.7212083,23.499771,-20.602213,89.27102
3.458169,1.098501,0.55741173,19.80689,-12.355953,86.0807
3.4091268,1.2610713,0.3750333,16.210758,-4.645914,82.391594
3.331986,1.3898176,0.15660663,13.394563,1.5690356,77.64359
3.2006416,1.4789677,-0.08298396,11.411532,6.12485,72.07106
3.084342,1.577305,-0.29092482,10.051521,9.341282,65.75275
2.990109,1.7107725,-0.46238568,8.634239,11.638886,58.853737
2.8949327,1.8524206,-0.60030603,7.00394,13.013002,51.660973
2.8026476,1.9931564,-0.695583,5.148104,13.410647,44.007103
2.7186122,2.120899,-0.74942565,3.418055,13.348797,35.784214
2.6193645,2.1879323,-0.7677005,2.51498,13.114823,26.77398
2.5333083,2.2080472,-0.74047416,2.383542,12.993543,17.620705
2.4749746,2.2054358,-0.671733,2.2056808,12.90377,8.666765
2.4567008,2.1378517,-0.56687856,1.3933485,13.1240835,0.61493367
2.471124,1.9615887,-0.43451545,0.36074272,13.967582,-6.0704403
2.4743736,1.7432332,-0.31503633,-0.49828687,15.257893,-11.695771
2.4710655,1.4961212,-0.21492638,-0.8227515,16.769447,-16.670906
2.4714935,1.2407509,-0.11657061,-0.7253706,18.482094,-21.014355
2.469378,0.98561734,-0.022921065,-0.84064263,20.555233,-23.943768
2.4406898,0.73651576,0.03290924,-1.1123786,22.65893,-25.78373
2.3909292,0.48949614,0.060738157,-1.1119103,24.679325,-26.776155
2.3306406,0.26179755,0.07707971,-0.7848127,26.636255,-27.046156
2.2647276,0.06744516,0.084808536,-0.37642628,28.57777,-26.65826
2.190825,-0.111124665,0.07778405,0.18494108,30.561838,-25.547173
2.1123798,-0.27668273,0.043151516,1.0338931,32.52684,-24.053936
2.0174005,-0.44608048,-0.012660469,2.288059,34.134903,-22.062996
1.9206233,-0.60806996,-0.073414765,3.6477728,35.361263,-19.425016
1.8287102,-0.760136,-0.14914978,4.8281484,36.216778,-16.183855
1.7343781,-0.91203386,-0.24966694,5.9412365,36.31183,-12.378749
1.6528053,-1.0515364,-0.37012222,7.229726,35.966835,-8.286249
1.5859934,-1.171739,-0.49481064,8.672477,35.14736,-3.9658322
1.5350724,-1.2843482,-0.616823,10.515325,33.985435,0.74946696
1.5097828,-1.3782187,-0.7382998,13.023555,32.54875,5.535683
1.5082823,-1.4304515,-0.86934865,15.781209,30.691914,10.132972
1.5201322,-1.436546,-1.0138345,18.539783,28.576565,14.328295
1.5325055,-1.4287107,-1.1692448,21.41105,25.98968,18.15585
1.5551617,-1.4054627,-1.3272631,24.278227,22.996384,21.626392
1.5790335,-1.3506311,-1.4933891,27.122173,19.605612,24.546337
1.5994575,-1.2551751,-1.6715145,29.910614,15.362246,26.786818
1.6768603,-1.0568695,-1.815886,32.211098,11.28316,28.495298
1.7787286,-0.75160414,-1.9395998,33.165997,7.3421593,29.273197
1.856056,-0.4038754,-2.0635538,33.00452,3.2181911,29.270044
1.8981012,-0.036833543,-2.192946,31.530167,-1.3623409,28.271364
1.9137734,0.31182864,-2.3146086,28.750515,-6.413002,26.242273
1.9412786,0.6542961,-2.4063444,25.270947,-11.231519,23.41784
1.9626976,0.95918906,-2.489367,21.353134,-15.756442,19.814053
1.966942,1.2086794,-2.5623002,17.161613,-20.128666,15.457796
1.9561334,1.3768567,-2.6156437,13.02187,-24.6372,10.502807
1.9494925,1.46228,-2.6389625,8.923992,-29.273848,5.5468693
1.9773546,1.4706757,-2.6073117,4.843014,-33.804237,1.083248
2.0543234,1.4398624,-2.510174,0.8321972,-37.73927,-2.9573538
2.1832976,1.3612925,-2.3347294,-3.1207616,-40.931347,-6.5779605
2.3578231,1.235211,-2.088031,-6.865663,-42.730362,-9.9936075
2.5156484,1.0628881,-1.8073213,-10.205374,-42.915234,-12.748753
2.6147413,0.83304703,-1.5088665,-13.080408,-42.115726,-14.855986
2.6677802,0.55635285,-1.2135763,-15.24469,-40.558895,-16.25805
2.6747808,0.2529938,-0.939414,-16.250767,-38.30819,-16.95724
2.6547346,-0.028220022,-0.69549125,-16.031229,-35.60931,-17.040182
2.6074922,-0.24439639,-0.48514378,-15.012342,-32.298286,-16.711498
2.5046113,-0.36623812,-0.3418757,-14.242977,-29.154903,-16.026854
2.3872736,-0.437426,-0.23910819,-13.9853115,-26.133282,-15.030469
2.258521,-0.47283292,-0.17300574,-14.627106,-23.480425,-13.996954
2.1509829,-0.52135795,-0.1624605,-15.68324,-21.119135,-13.153508
2.023785,-0.55949056,-0.1810788,-15.578024,-19.196884,-12.440304
1.8995696,-0.5828962,-0.19759959,-14.60544,-17.578833,-11.910546
1.7751027,-0.58427835,-0.22694588,-13.615945,-16.800303,-11.367041
1.6710645,-0.5730235,-0.25955835,-12.864365,-16.45564,-10.726069
1.5986643,-0.5538898,-0.27764043,-12.492122,-16.097073,-9.807249
1.5436761,-0.5314493,-0.29007882,-12.77932,-15.663875,-8.671082
1.4956846,-0.5197634,-0.29987067,-13.04216,-15.110702,-7.637699
1.4458941,-0.51711184,-0.31085458,-13.126772,-14.550175,-6.778276
1.3930475,-0.51216733,-0.3208975,-13.124746,-14.081807,-5.9707894
1.3406801,-0.5015326,-0.32568398,-13.180028,-13.775121,-5.146792
1.2990899,-0.4943899,-0.31759885,-13.250726,-13.491479,-4.2553167
1.2824326,-0.48178518,-0.29376996,-13.475587,-13.00698,-3.369018
1.2664243,-0.4692648,-0.2661926,-13.771533,-12.411898,-2.6479144
1.2442046,-0.45969936,-0.24070072,-13.924744,-11.732591,-1.9380301
1.2119416,-0.44443914,-0.21585405,-13.998789,-11.187083,-1.3286196
1.1750102,-0.42622414,-0.19344261,-14.198197,-10.853057,-0.8641084
1.1386452,-0.39409763,-0.17036141,-14.326576,-10.630497,-0.5646972
1.1081963,-0.35595724,-0.14248055,-14.365195,-10.413017,-0.4270752
1.0745212,-0.32528514,-0.11653511,-14.050248,-10.37186,-0.19663204
1.0405602,-0.29482585,-0.093930215,-13.3643265,-10.231062,0.14274101
1.004232,-0.26906446,-0.080113135,-12.254376,-10.085162,0.5324024
0.9775257,-0.23275663,-0.067602195,-11.396219,-9.882917,0.98792785
0.95433766,-0.18804258,-0.05729182,-10.734339,-9.694615,1.3111795
0.9344324,-0.13964531,-0.048052564,-10.247344,-9.597866,1.3273891
0.92646813,-0.103519306,-0.03358363,-9.783195,-9.428004,1.1851361
0.9241465,-0.07775151,-0.020596106,-9.337368,-9.040827,0.9502809
0.9133872,-0.06519645,-0.023071382,-9.038686,-8.67146,0.6923448
0.90146804,-0.057335384,-0.030113664,-8.640899,-8.269909,0.4025118
0.8868046,-0.048379797,-0.042296696,-8.257445,-7.8333454,0.15789169
0.8567674,-0.045095615,-0.062607154,-7.842218,-7.568306,-0.10383024
0.82620394,-0.04668194,-0.08256362,-7.4551687,-7.459881,-0.35357448
0.80912155,-0.045975156,-0.095508866,-7.2951226,-7.318727,-0.5270278
0.7892698,-0.050649714,-0.10982595,-7.1990256,-7.0773816,-0.6494488
0.75798017,-0.056237657,-0.12727906,-7.1173635,-6.978572,-0.754713
0.7275114,-0.06299084,-0.14135233,-6.973573,-7.0311747,-0.84148794
0.7052834,-0.06551452,-0.1511234,-6.771528,-7.141077,-0.8723142
0.6833128,-0.06244565,-0.15834668,-6.623324,-7.3274226,-0.8831763
0.67081195,-0.059161026,-0.15789978,-6.510177,-7.3577495,-0.8822675
0.6572059,-0.054483738,-0.15416509,-6.3777285,-7.316766,-0.9004187
0.6418128,-0.048613004,-0.14786822,-6.338772,-7.2542605,-0.80774283
0.6258408,-0.04174181,-0.13940065,-6.344759,-7.2032046,-0.65142953
0.6081244,-0.03253101,-0.13072993,-6.3942866,-7.1822686,-0.51708895
0.59008837,-0.02569402,-0.12217384,-6.377616,-7.1885824,-0.48958635
0.57572883,-0.023118714,-0.10958682,-6.226524,-7.2003984,-0.54655904
0.56599,-0.018537197,-0.09290778,-5.994596,-7.1624246,-0.6759039
0.56013584,-0.011700654,-0.073323146,-5.840244,-6.9812036,-0.7232719
0.5491081,-0.0013404053,-0.05911331,-5.8313303,-6.7695084,-0.7121465
0.53200936,-0.0012986663,-0.057272576,-5.6497483,-6.5587125,-0.68997097
0.5154435,-0.0012582281,-0.05548921,-5.473825,-6.3544855,-0.6684865
0.49939385,-0.0012190499,-0.053761408,-5.3033834,-6.156622,-0.6476714
0.48384428,-0.0011810925,-0.05208744,-5.1382523,-5.964924,-0.6275049
0.46877915,-0.0011443177,-0.050465632,-4.9782662,-5.779198,-0.6079667
0.4541834,-0.0011086885,-0.04889435,-4.823264,-5.599259,-0.58903724
0.44004232,-0.0010741693,-0.047372017,-4.673091,-5.424925,-0.5706975
0.42634177,-0.0010407255,-0.045897108,-4.527596,-5.256022,-0.55292904
0.41306797,-0.0010083234,-0.04446814,-4.3866334,-5.09238,-0.53571403
0.40020764,-0.0009769305,-0.04308368,-4.250061,-4.9338355,-0.5190353
0.38774785,-0.0009465155,-0.041742343,-4.117743,-4.780229,-0.50287604
0.37567616,-0.0009170477,-0.040442787,-3.9895456,-4.631407,-0.48722005
0.3639804,-0.00088849774,-0.039183702,-3.8653412,-4.4872193,-0.47205168
0.35264894,-0.0008608369,-0.03796383,-3.7450047,-4.3475227,-0.45735568
0.34167033,-0.0008340375,-0.036781944,-3.628416,-4.2121763,-0.44311738
0.33103362,-0.0008080727,-0.03563687,-3.5154579,-4.081045,-0.42932248
0.32072815,-0.0007829164,-0.03452745,-3.4060175,-3.9539974,-0.41595715
0.31074357,-0.00075854344,-0.033452578,-3.299985,-3.8309057,-0.403008
0.30106992,-0.0007349295,-0.032411177,-3.1972542,-3.711647,-0.3904621
0.29169747,-0.0007120508,-0.031402204,-3.0977223,-3.5961018,-0.37830684
0.28261688,-0.00068988453,-0.030424645,-3.0012896,-3.4841545,-0.3665301
0.27381903,-0.0006684084,-0.029477527,-2.9078596,-3.3756928,-0.35512
0.2652951,-0.00064760103,-0.028559897,-2.8173385,-3.2706082,-0.3440652
0.25703657,-0.00062744145,-0.02767084,-2.7296357,-3.1687953,-0.33335456
0.24903516,-0.0006079096,-0.026809461,-2.6446638,-3.0701525,-0.32297742
0.24128288,-0.0005889858,-0.025974903,-2.5623374,-2.974581,-0.3129234
0.23377195,-0.0005706512,-0.025166327,-2.482574,-2.881985,-0.30318236
0.22649488,-0.0005528874,-0.024382927,-2.4052942,-2.7922719,-0.29374462
0.21944436,-0.00053567666,-0.023623914,-2.3304203,-2.7053516,-0.28460068
0.21261334,-0.00051900174,-0.022888532,-2.257877,-2.6211376,-0.27574143
0.205995,-0.000502846,-0.022176044,-2.1875927,-2.5395453,-0.267158
0.19958268,-0.00048719315,-0.021485738,-2.1194963,-2.460493,-0.25884178
0.19337,-0.00047202763,-0.020816922,-2.05352,-2.383902,-0.25078446
0.18735074,-0.00045733422,-0.020168928,-1.9895973,-2.3096952,-0.24297798
0.18151885,-0.00044309825,-0.019541107,-1.9276649,-2.2377987,-0.23541452
0.17586851,-0.00042930545,-0.01893283,-1.8676604,-2.1681404,-0.22808652
0.17039408,-0.00041594205,-0.01834349,-1.8095238,-2.1006505,-0.22098665
0.16509007,-0.00040299463,-0.017772494,-1.7531972,-2.0352616,-0.2141078
0.15995117,-0.00039045027,-0.017219275,-1.6986239,-1.9719083,-0.20744307
0.15497224,-0.00037829642,-0.016683277,-1.6457496,-1.9105272,-0.20098583
0.15014832,-0.00036652092,-0.016163966,-1.594521,-1.8510569,-0.19472961
0.14547455,-0.000355112,-0.015660819,-1.5448874,-1.7934378,-0.18866813
0.14094628,-0.0003440582,-0.015173335,-1.4967988,-1.7376125,-0.18279535
0.13655896,-0.00033334852,-0.0147010265,-1.4502071,-1.6835248,-0.17710538
0.13230823,-0.00032297222,-0.01424342,-1.4050658,-1.6311209,-0.17159253
0.12818982,-0.0003129189,-0.013800059,-1.3613297,-1.5803483,-0.16625129
