ax,ay,az,gx,gy,gz
-2.2572932,-3.1973019,-8.73917,18.25562,-28.52026,-13.594669
-2.8641725,-3.37488,-10.006015,29.739609,-70.06949,-11.159604
-2.8402023,-3.8616068,-10.234812,21.627947,-103.64013,-10.945796
-2.2021842,-5.0167055,-9.938641,17.349213,-117.34124,-7.7134066
-1.3343879,-6.5760875,-9.723448,19.598282,-120.393745,-2.554515
-0.713571,-7.879306,-9.606207,28.213144,-119.5905,3.7772143
-0.30500415,-8.632149,-9.444039,40.90343,-116.79968,12.820668
-0.03519941,-8.844505,-9.234425,53.642105,-114.263664,25.376093
0.09467418,-8.551693,-9.005366,63.990726,-115.7177,39.65735
0.32585168,-7.718525,-8.455534,74.48352,-117.738945,51.858047
0.69355667,-6.51252,-7.6427765,82.52595,-118.826164,61.84008
1.1058378,-5.001607,-6.663148,86.05376,-119.16353,68.9011
1.5894947,-3.433343,-5.5412874,85.90747,-117.7378,72.88456
2.0636187,-1.9746488,-4.3996305,81.827065,-113.320595,72.815155
2.381844,-0.7894009,-3.3609347,76.45219,-107.376236,70.48942
2.5781353,0.16841486,-2.4776084,70.52917,-100.780876,66.75778
2.7032552,0.9529855,-1.7295321,64.31399,-93.930664,62.389038
2.7953274,1.5849216,-1.0936822,58.057606,-87.09205,58.11551
2.8786564,2.0829234,-0.55214167,51.505543,-79.70799,53.747406
2.9721735,2.4277427,-0.11158947,45.343082,-71.74411,49.067024
3.0142922,2.6634378,0.21144257,39.649815,-63.812244,43.82959
2.993208,2.8125079,0.43015468,34.241123,-56.76642,37.80804
2.98948,2.8921585,0.62587094,29.362736,-49.934647,31.560745
3.0434117,2.9191039,0.80738455,24.959734,-42.04499,26.033216
3.0973613,2.8977766,0.89156604,20.202536,-34.245552,21.008232
3.104821,2.8316076,0.8906169,15.808369,-26.825918,15.889568
3.0593967,2.7127085,0.8145383,12.282368,-20.190273,10.554323
2.9997568,2.540718,0.7001538,9.82168,-13.769423,5.492072
2.9095054,2.3521535,0.51523083,7.159312,-8.718656,1.0737562
2.8206441,2.1234424,0.29879785,4.6573057,-4.3966203,-2.5701454
2.737912,1.8819337,0.06684128,2.5028894,-0.3875067,-5.406026
2.626712,1.6427659,-0.20397887,0.7793447,3.0355651,-7.741538
2.4892128,1.4170988,-0.510458,-0.71988326,5.45203,-9.796217
2.354363,1.202105,-0.83217585,-2.0936391,6.427679,-11.685368
2.2218432,0.9967018,-1.1600156,-3.5008845,6.308429,-13.3695965
2.0852005,0.8125996,-1.4761418,-4.8117886,5.2179813,-14.611057
1.9520204,0.6620439,-1.7743279,-5.9479427,3.4901056,-15.353508
1.8288058,0.54697543,-2.0651407,-6.770342,1.2589107,-15.70579
1.6947455,0.45056453,-2.3711476,-7.7178183,-2.4098709,-16.018572
1.5815108,0.35185295,-2.6576715,-8.446617,-6.919236,-16.307714
1.5129912,0.24711533,-2.9055111,-9.349564,-12.204311,-16.148201
1.4887427,0.1186211,-3.0771358,-9.780462,-17.139296,-15.152952
1.4615129,0.0063363696,-3.205431,-9.788625,-21.447973,-13.472499
1.3946221,-0.06562717,-3.2964137,-9.761973,-25.563152,-11.925239
1.2851874,-0.10421125,-3.3183796,-9.407485,-29.413109,-10.619135
1.1535482,-0.10441241,-3.2842073,-9.349922,-33.398605,-9.389019
1.0319641,-0.07719959,-3.1546617,-9.78562,-37.400883,-8.0179405
0.959151,-0.025986072,-2.9202476,-10.837891,-41.02706,-6.56855
0.95842993,0.043736465,-2.5885348,-12.212205,-43.432247,-5.4581113
1.0443633,0.12677757,-2.162981,-13.652327,-44.447067,-5.0268083
1.1703562,0.19963603,-1.7155893,-14.9437,-44.242813,-5.0425315
1.263411,0.23710318,-1.3019542,-16.554104,-43.700226,-5.266606
1.3027176,0.2061647,-0.94449896,-18.093102,-43.398487,-5.7309117
1.3412119,0.11575122,-0.6364366,-19.263647,-43.23395,-6.4924307
1.4448282,-0.082443275,-0.3729579,-19.959969,-42.513428,-7.037598
1.5811296,-0.3259129,-0.14020048,-19.833014,-40.858658,-6.944317
1.7033197,-0.5753028,0.058421317,-18.970089,-38.134254,-6.2081804
1.7702969,-0.8054894,0.20375514,-17.636263,-34.91418,-4.996562
1.7795327,-1.0083511,0.3040259,-15.718129,-31.641964,-3.2840075
1.7398092,-1.1652104,0.36099488,-13.653465,-28.541685,-1.3181733
1.689825,-1.287142,0.40133804,-11.522807,-25.413944,0.9510447
1.6400357,-1.382937,0.42786068,-9.405439,-22.156437,3.4888723
1.5876467,-1.4486742,0.43368244,-7.4780655,-18.670938,6.131761
1.5190109,-1.4892797,0.41060606,-5.249237,-15.364879,8.466871
1.4285687,-1.5049396,0.35720944,-2.731688,-12.476693,10.64916
1.3488878,-1.5104,0.2964202,-0.43920532,-10.082971,13.109707
1.3015244,-1.5093938,0.23445792,1.6835011,-7.7685604,16.29263
1.258672,-1.4707363,0.15133123,3.0452366,-5.9247856,20.05143
1.2178668,-1.4003872,0.06825214,3.7491236,-4.398357,24.069843
1.178427,-1.2782162,-0.02776731,4.2192917,-2.9677722,27.471127
1.1281065,-1.1317782,-0.14357597,4.9769416,-1.6761672,29.624191
1.0689633,-0.9532211,-0.26819646,5.6861763,-0.9552918,30.94119
1.0381947,-0.72753686,-0.36666003,6.013398,-0.66717654,32.162327
1.0342557,-0.45194474,-0.44805256,5.4955363,-1.0447745,33.27356
1.0577217,-0.128979,-0.4975335,4.426226,-1.6110756,33.944187
1.1046599,0.21354456,-0.5311551,3.206467,-2.1240685,33.723743
1.171848,0.5631975,-0.56140375,1.8181406,-2.7129512,32.217712
1.256337,0.9028335,-0.5744979,0.112566024,-3.2518198,29.762152
1.3494129,1.2099925,-0.56921256,-1.9170839,-3.3437443,26.90862
1.4244058,1.4862441,-0.5645397,-4.033074,-3.2133198,23.920378
1.4725305,1.7440932,-0.5677045,-6.4057007,-3.0813096,20.5383
1.4957777,1.9738969,-0.57378954,-8.915167,-2.9189873,16.663782
1.5066694,2.1681566,-0.57772845,-11.545538,-2.7138777,12.205323
1.500235,2.3239906,-0.57581925,-14.390861,-2.4712107,6.972719
1.4679917,2.4169595,-0.5602726,-17.26394,-2.1787877,1.4819825
1.437533,2.4388788,-0.55125195,-20.426554,-2.0682,-4.0363297
1.4412197,2.3557148,-0.5497062,-23.725727,-2.0358682,-9.273132
1.4827757,2.1237552,-0.5608198,-26.55026,-1.5967481,-14.295188
1.5075519,1.7440418,-0.6185471,-27.859194,-0.9993795,-19.03682
1.5017055,1.2741365,-0.70624906,-28.128048,-0.7691165,-22.736387
1.4967965,0.826948,-0.77271587,-27.784178,-0.71250606,-24.924648
1.4776386,0.44068998,-0.8249254,-27.18936,-0.9348205,-25.816517
1.4563955,0.13496715,-0.8509402,-26.236998,-1.2284445,-26.05919
1.4362625,-0.09145926,-0.8539461,-24.97863,-1.4191854,-26.116573
1.4077879,-0.24741523,-0.83067423,-23.506088,-1.3747909,-26.21797
1.3613554,-0.35369626,-0.7964727,-22.14878,-1.22491,-26.176817
1.2944099,-0.42492333,-0.7633502,-21.156744,-1.1236514,-25.768713
1.2174476,-0.47446463,-0.73621005,-20.510746,-1.1056907,-25.054893
1.1470968,-0.51825833,-0.718299,-19.909906,-1.2218142,-24.062212
1.1118555,-0.56904584,-0.7017014,-19.293646,-1.3419049,-22.780445
1.1031461,-0.62092185,-0.6836583,-18.65673,-1.360991,-21.218737
1.112322,-0.67235374,-0.6572204,-17.708212,-0.878235,-19.439291
1.0775952,-0.65136284,-0.63670194,-17.155361,-0.8508164,-18.832396
1.0439588,-0.631031,-0.6168277,-16.61987,-0.82425874,-18.244555
1.0113779,-0.6113372,-0.59757715,-16.10118,-0.7985345,-17.675161
0.97981906,-0.5922611,-0.57893044,-15.598761,-0.77361715,-17.123629
0.9492495,-0.57378304,-0.56086826,-15.112092,-0.7494809,-16.589384
0.9196379,-0.555884,-0.54337215,-14.640675,-0.72610104,-16.071884
0.8909539,-0.53854567,-0.5264241,-14.184024,-0.7034536,-15.570593
0.86316806,-0.5217503,-0.51000667,-13.741672,-0.6815152,-15.084998
0.8362519,-0.5054805,-0.49410316,-13.313166,-0.66026354,-14.614603
0.810178,-0.4897199,-0.47869727,-12.898067,-0.63967687,-14.158927
0.7849197,-0.47445226,-0.46377328,-12.495954,-0.6197341,-13.7175045
0.76045114,-0.45966205,-0.44931597,-12.106415,-0.600415,-13.2898855
0.7367476,-0.4453342,-0.4353106,-11.729053,-0.58169985,-12.875634
0.7137849,-0.43145415,-0.42174298,-11.363485,-0.5635696,-12.474331
0.69153965,-0.4180078,-0.40859926,-11.00934,-0.54600585,-12.085566
0.6699893,-0.4049815,-0.39586616,-10.666258,-0.52899075,-11.708945
0.649112,-0.39236203,-0.38353074,-10.333891,-0.5125071,-11.344087
0.62888664,-0.38013658,-0.37158045,-10.011902,-0.49653807,-10.990622
0.6092927,-0.36829284,-0.3600033,-9.699965,-0.48106766,-10.648191
0.5903103,-0.35681877,-0.34878746,-9.397764,-0.4660801,-10.316449
0.57192034,-0.34570277,-0.33792168,-9.104996,-0.4515603,-9.995061
0.5541042,-0.33493364,-0.32739493,-8.8213625,-0.43749353,-9.683701
0.5368439,-0.32450047,-0.3171966,-8.546577,-0.42386565,-9.382054
0.520122,-0.31439278,-0.30731642,-8.280364,-0.41066286,-9.089817
0.5039217,-0.30460033,-0.29774436,-8.022454,-0.39787188,-8.806695
0.4882266,-0.29511327,-0.28847086,-7.772588,-0.3854798,-8.532403
0.4730209,-0.28592205,-0.2794865,-7.530513,-0.37347415,-8.266664
0.45828933,-0.2770174,-0.2707823,-7.295985,-0.3618428,-8.00921
0.444017,-0.26839036,-0.26234943,-7.0687695,-0.35057408,-7.759782
0.4301896,-0.26003224,-0.25417945,-6.8486366,-0.33965665,-7.5181293
0.4167932,-0.25193465,-0.24626411,-6.635365,-0.32907948,-7.2840095
0.40381432,-0.24408945,-0.23859549,-6.428741,-0.318832,-7.0571866
0.3912399,-0.23648874,-0.23116584,-6.2285557,-0.30890387,-6.837433
0.37905738,-0.22912489,-0.22396773,-6.0346093,-0.29928514,-6.6245265
0.36725444,-0.2219905,-0.21699393,-5.8467064,-0.28996614,-6.418255
0.35581928,-0.2150784,-0.2102374,-5.6646576,-0.28093746,-6.2184105
0.3447404,-0.20838165,-0.2036914,-5.4882812,-0.27219012,-6.024792
0.33400664,-0.20189354,-0.19734931,-5.3174,-0.2637153,-5.837206
0.3236073,-0.19560756,-0.19120482,-5.1518416,-0.25550446,-5.6554637
0.3135319,-0.18951738,-0.18525171,-4.991441,-0.24754943,-5.4793825
0.30377033,-0.18361692,-0.17948407,-4.8360367,-0.23984219,-5.308787
0.29431286,-0.17790024,-0.17389606,-4.685473,-0.23237501,-5.1435046
0.28514993,-0.17236163,-0.16848211,-4.539599,-0.22514042,-4.9833703
0.2762724,-0.16699551,-0.16323678,-4.398268,-0.21813115,-4.8282237
0.26767135,-0.16179653,-0.1581548,-4.261339,-0.21134019,-4.6779094
0.25933817,-0.15675946,-0.15323111,-4.1286745,-0.20476072,-4.5322757
0.25126448,-0.15187925,-0.14846075,-4.000141,-0.19838615,-4.391178
0.24344225,-0.14715102,-0.14383894,-3.8756108,-0.19221008,-4.254474
0.23586361,-0.14257003,-0.13936107,-3.7549584,-0.18622635,-4.122027
0.22852094,-0.1381317,-0.13502263,-3.6380632,-0.18042895,-3.9937046
0.22140694,-0.13383156,-0.13081928,-3.5248077,-0.17481208,-3.8693779
0.21451445,-0.12966533,-0.12674682,-3.4150789,-0.1693701,-3.7489223
0.20783657,-0.12562881,-0.12280116,-3.3087668,-0.16409758,-3.6322176
0.20136662,-0.121718,-0.11897836,-3.205765,-0.15898922,-3.5191467
0.19509812,-0.11792894,-0.11527459,-3.1059701,-0.15403992,-3.4095964
0.18902479,-0.11425786,-0.11168614,-3.0092826,-0.14924471,-3.303457
0.18314056,-0.11070108,-0.108209416,-2.9156053,-0.14459881,-3.2006223
0.17743953,-0.107255034,-0.104840934,-2.8248446,-0.14009756,-3.1009893
0.171916,-0.10391628,-0.10157733,-2.7369099,-0.13573645,-3.0044582
0.16656442,-0.10068148,-0.09841533,-2.6517127,-0.1315111,-2.9109325
0.16137947,-0.097547375,-0.09535178,-2.5691679,-0.12741733,-2.8203187
0.15635593,-0.09451085,-0.0923836,-2.489193,-0.12345099,-2.7325258
0.1514888,-0.091568865,-0.08950783,-2.411708,-0.119608134,-2.6474662
0.14677319,-0.08871847,-0.08672159,-2.3366354,-0.11588492,-2.5650547
0.14220437,-0.085956804,-0.08402209,-2.2638996,-0.11227761,-2.4852087
0.1377778,-0.08328112,-0.08140663,-2.1934285,-0.108782604,-2.4078486
0.13348903,-0.08068874,-0.07887259,-2.125151,-0.105396405,-2.3328967
0.12933378,-0.07817705,-0.07641744,-2.058999,-0.102115616,-2.260278
0.12530787,-0.075743556,-0.074038714,-1.9949067,-0.09893696,-2.1899202
0.1214073,-0.07338581,-0.07173405,-1.9328094,-0.09585726,-2.1217525
0.11762816,-0.07110147,-0.06950112,-1.8726451,-0.09287343,-2.055707
0.11396665,-0.06888824,-0.06733771,-1.814354,-0.08998249,-1.9917173
0.11041913,-0.06674391,-0.065241635,-1.7578772,-0.08718154,-1.9297197
0.106982045,-0.06466633,-0.063210815,-1.7031586,-0.08446778,-1.869652
0.10365195,-0.06265342,-0.061243217,-1.6501434,-0.0818385,-1.8114543
0.10042552,-0.060703173,-0.059336867,-1.5987785,-0.079291075,-1.7550682
0.09729952,-0.058813635,-0.057489857,-1.5490125,-0.07682294,-1.7004373
0.09427084,-0.05698292,-0.055700347,-1.5007957,-0.074431635,-1.6475071
