ax,ay,az,gx,gy,gz
-0.8218256,-0.45273137,-6.7164245,-5.604596,-3.051846,-22.028383
-0.7952266,-1.2561827,-7.424252,-8.576036,-16.429207,-16.621729
-0.4826519,-2.181671,-7.5918937,-8.703999,-22.757376,-9.968154
-0.34344158,-2.7428505,-7.7809114,-7.499545,-24.746836,-4.718706
-0.45503068,-3.0769222,-8.201983,-6.8990297,-29.197145,-3.269735
-0.629121,-3.7786121,-8.774416,-2.6462653,-38.67804,-8.14263
-0.39931282,-5.359943,-9.267765,11.025045,-45.728188,-13.0348015
0.21849896,-6.999133,-9.563108,28.270014,-50.290207,-11.212674
0.8583674,-8.27537,-9.674735,42.85033,-53.62539,-2.7127995
1.2603112,-9.110263,-9.707462,54.53923,-57.669407,11.969886
1.4417958,-9.378592,-9.632612,62.734005,-63.505604,32.156906
1.5657879,-8.84353,-9.331282,66.88374,-72.13732,52.717884
1.8549651,-7.788978,-8.697544,68.973946,-80.52438,70.35835
2.3120122,-6.3722773,-7.7614927,69.729706,-87.02035,83.69339
2.8707848,-4.7929306,-6.6082807,68.938156,-90.50361,92.7062
3.4003024,-3.1614094,-5.346686,65.39606,-90.37372,96.90415
3.7846975,-1.5705717,-4.085183,60.698647,-88.12415,97.57289
4.041021,-0.1957124,-2.965621,55.19476,-84.31482,95.48224
4.220726,0.9654515,-1.9965405,49.064247,-78.99223,91.49267
4.331254,1.882497,-1.2089754,42.95625,-72.3213,86.15372
4.348973,2.5581326,-0.6269205,36.607407,-64.75202,79.18582
4.284677,2.9414182,-0.26013473,30.282854,-57.226654,71.582886
4.210995,3.136669,-0.00713354,24.496393,-49.546963,63.74614
4.1310134,3.1932235,0.1476221,19.961712,-42.1135,56.02218
4.0545363,3.171843,0.22880717,17.234358,-35.75396,48.323986
4.02133,3.0954719,0.29997963,15.306648,-30.278706,41.079933
4.0468903,2.9789202,0.38494673,13.95513,-24.309292,34.247654
4.0574994,2.8495145,0.42485878,13.01344,-18.080463,27.769543
4.035042,2.7288702,0.42180732,12.20072,-11.742773,21.587566
3.9671335,2.6226056,0.35855132,11.405013,-5.587847,15.570952
3.8611057,2.5217352,0.23370394,10.687499,-0.70532465,9.87309
3.8099146,2.4196978,0.090815894,9.549812,2.8871284,4.63107
3.8376522,2.3065712,-0.020834394,8.090385,6.1522493,0.07823635
3.8749819,2.1832528,-0.14390048,6.7302136,9.704968,-3.9388812
3.843798,2.053883,-0.32600245,5.433033,13.054193,-7.682713
3.725507,1.9152468,-0.57765496,4.390143,15.390352,-11.47322
3.5454912,1.7445452,-0.89949846,3.1390872,16.42652,-15.046819
3.3776002,1.505534,-1.2407191,1.7877676,16.043032,-17.869457
3.235824,1.2000563,-1.5801847,0.99996364,15.046467,-19.935993
3.0912497,0.8827002,-1.926236,0.8004623,13.420554,-21.44104
2.945875,0.58861256,-2.2697105,1.1029438,10.990013,-22.56077
2.7981625,0.32016754,-2.6222258,1.8362217,7.7889876,-23.417631
2.657126,0.07515376,-2.968998,2.7736442,3.8570573,-23.89148
2.5191789,-0.12444703,-3.3051252,3.5864286,-0.84061307,-23.972338
2.4073796,-0.28522566,-3.6083338,3.9180825,-6.1625886,-23.490047
2.331855,-0.4171632,-3.8599117,3.7246616,-11.785345,-22.126564
2.2786365,-0.52201706,-4.057346,3.3917668,-17.441603,-20.096731
2.1993523,-0.562385,-4.218191,2.9886382,-23.370546,-17.88765
2.1153998,-0.5210154,-4.2983747,2.2312436,-29.661486,-15.908518
2.07287,-0.42336985,-4.2605243,0.35316223,-36.281464,-14.086132
2.0828576,-0.32517725,-4.094703,-3.6729372,-43.143772,-12.032136
2.1844876,-0.26865327,-3.7041883,-8.072654,-48.678955,-9.569636
2.325082,-0.22657181,-3.2143662,-12.064487,-52.415314,-7.2598767
2.4855385,-0.23480195,-2.6783257,-15.546943,-54.766743,-5.708908
2.6658676,-0.30709305,-2.1135547,-18.12146,-55.971207,-4.9556546
2.8689296,-0.43909553,-1.5304018,-19.966717,-55.54413,-4.292569
3.0677443,-0.63534003,-0.96318436,-20.903736,-53.68352,-3.3947701
3.2084138,-0.83894664,-0.462704,-20.848753,-50.557957,-2.305375
3.267728,-1.0315025,-0.054573428,-19.772823,-46.692924,-1.0755515
3.2588773,-1.1930473,0.2668737,-18.013441,-42.350906,0.3153578
3.2141206,-1.3243392,0.5058175,-16.125784,-37.57517,2.136985
3.13403,-1.4176978,0.6354784,-14.114389,-32.7293,4.0352545
3.0277991,-1.4929767,0.68901414,-11.894795,-28.117035,5.950358
2.900539,-1.5468247,0.6817588,-9.342505,-24.002584,7.9075503
2.7605636,-1.5845064,0.627199,-6.763945,-20.616545,9.90163
2.6390445,-1.6230532,0.564034,-4.3361144,-17.395086,12.145137
2.5222602,-1.6645857,0.47542018,-2.2078345,-14.261493,14.699776
2.4134192,-1.6979654,0.37220448,-0.67279434,-11.42703,17.748024
2.3287086,-1.7169371,0.26281324,0.53579646,-8.777523,21.095387
2.2636049,-1.7195538,0.13877921,1.3049784,-6.664299,24.4008
2.2250595,-1.7065456,0.020533316,2.1845846,-4.9751577,27.662155
2.1973636,-1.6381359,-0.09102265,3.203838,-3.499264,30.809471
2.1660423,-1.5106066,-0.19844642,4.1797137,-2.1826308,33.709312
2.1225276,-1.3161086,-0.30689895,4.960841,-1.1416479,36.20394
2.0793958,-1.0656825,-0.40903527,5.521026,-0.34173244,38.23384
2.0434346,-0.7601612,-0.5043485,5.4679885,0.04764942,39.559925
2.0223982,-0.40741956,-0.58883876,5.040425,0.08667081,40.088303
2.033029,-0.047550987,-0.66303205,4.615211,0.0087662395,39.622196
2.0680854,0.31452543,-0.7366482,3.7049763,-0.4325509,38.252525
2.12991,0.6419622,-0.7936941,2.429719,-0.7922403,36.290215
2.1870286,0.94584686,-0.8511347,0.80338717,-0.97303176,33.660603
2.2286134,1.2230676,-0.91683,-1.2681897,-1.2978766,30.614231
2.262538,1.4757093,-0.9722968,-3.1579628,-1.4816928,27.093601
2.2879858,1.7243311,-1.029725,-5.100306,-1.6884083,23.023947
2.3074975,1.9484322,-1.0850309,-7.434945,-2.0265577,18.44605
2.3322573,2.1220975,-1.137501,-10.285245,-2.562806,13.429994
2.3616247,2.2203894,-1.163534,-12.969832,-2.876967,8.261818
2.3591583,2.2667708,-1.180017,-15.624377,-3.1638935,2.8084512
2.3270473,2.2467117,-1.1910216,-18.236544,-3.6808832,-2.8808897
2.313664,2.1269727,-1.1926819,-20.47686,-4.37656,-9.079934
2.3803058,1.8888617,-1.1688211,-21.682398,-4.250924,-15.317366
2.4267037,1.5418743,-1.1400177,-22.849712,-3.920938,-20.516062
2.4039247,1.1284333,-1.117354,-24.052649,-4.016006,-24.155426
2.3475704,0.69124216,-1.097504,-25.188896,-4.69823,-26.113527
2.2895565,0.277128,-1.0676768,-26.014297,-5.6720204,-26.652245
2.249542,-0.08738404,-1.0223111,-26.078772,-6.2485843,-26.13562
2.2145102,-0.38803032,-0.967622,-25.253931,-6.1753473,-25.633389
2.1557665,-0.6143143,-0.91687596,-23.836994,-5.669477,-25.171774
2.0694072,-0.76004034,-0.8707281,-22.30833,-5.088019,-24.314676
1.963055,-0.840481,-0.82721984,-20.898323,-4.49053,-23.110838
1.8500223,-0.8802876,-0.7909206,-19.58604,-3.8717947,-21.912447
1.753564,-0.89764035,-0.75173426,-18.328344,-3.1410153,-20.780329
1.6698455,-0.906081,-0.7187118,-17.28546,-2.3131528,-19.739037
1.5990561,-0.9227469,-0.6955285,-16.328663,-1.6313025,-18.715174
1.5491513,-0.893949,-0.6738218,-15.819063,-1.5803913,-18.131094
1.5008117,-0.86605424,-0.6527959,-15.325446,-1.5310769,-17.565332
1.4539877,-0.8390341,-0.63242924,-14.847305,-1.4833086,-17.01731
1.408631,-0.81286067,-0.6127008,-14.384148,-1.4370371,-16.486458
1.364695,-0.78750706,-0.5935903,-13.935498,-1.3922151,-15.972237
1.3221347,-0.7629474,-0.57507825,-13.500896,-1.3487966,-15.474116
1.2809067,-0.7391564,-0.5571456,-13.079899,-1.3067372,-14.991588
1.2409686,-0.7161099,-0.53977406,-12.672074,-1.2659937,-14.524158
1.2022798,-0.69378424,-0.52294594,-12.277006,-1.2265248,-14.071348
1.1648009,-0.67215675,-0.506644,-11.894292,-1.18829,-13.632698
1.1284935,-0.65120536,-0.4908517,-11.523542,-1.1512506,-13.207762
1.093321,-0.6309088,-0.47555298,-11.16438,-1.1153687,-12.796106
1.0592475,-0.6112464,-0.46073228,-10.81644,-1.080608,-12.397313
1.0262383,-0.5921982,-0.44637457,-10.479369,-1.0469332,-12.010978
0.9942601,-0.57374495,-0.43246526,-10.152825,-1.0143101,-11.636708
0.9632804,-0.5558679,-0.41899025,-9.836478,-0.9827057,-11.274125
0.93326783,-0.53854895,-0.40593594,-9.530006,-0.95208794,-10.922862
0.9041921,-0.5217706,-0.39328912,-9.233102,-0.92242587,-10.582562
0.87602377,-0.5055158,-0.38103697,-8.945462,-0.8936895,-10.252884
0.8487344,-0.4897683,-0.36916712,-8.666799,-0.8658498,-9.933492
0.8222964,-0.47451204,-0.3576676,-8.396829,-0.83887863,-9.624064
0.7966831,-0.45973173,-0.34652677,-8.13528,-0.81274885,-9.324289
0.77186865,-0.44541237,-0.33573347,-7.881889,-0.78743404,-9.033864
0.7478281,-0.4315396,-0.32527673,-7.6364,-0.7629087,-8.752496
0.7245372,-0.41809943,-0.3151461,-7.3985667,-0.7391481,-8.479902
0.7019725,-0.4050783,-0.3053313,-7.1681485,-0.71612835,-8.215807
0.6801112,-0.3924631,-0.29582247,-6.944914,-0.69382626,-7.9599457
0.6589315,-0.38024116,-0.2866101,-6.728638,-0.6722194,-7.71206
0.6384119,-0.3684002,-0.27768484,-6.5191035,-0.651286,-7.471901
0.6185318,-0.35692826,-0.26903778,-6.3160996,-0.63100505,-7.2392273
0.59927136,-0.34581384,-0.2606602,-6.119422,-0.61135614,-7.0138044
0.58061105,-0.3350458,-0.2525437,-5.928874,-0.59231955,-6.795407
0.56253225,-0.32461327,-0.24468009,-5.744263,-0.57387614,-6.583814
0.5450167,-0.31450582,-0.2370615,-5.5654044,-0.55600744,-6.378814
0.5280469,-0.30471328,-0.22968028,-5.3921185,-0.5386954,-6.180202
0.5116058,-0.29522583,-0.22252904,-5.224231,-0.52192277,-5.9877768
0.49567688,-0.28603393,-0.21560055,-5.0615735,-0.5056726,-5.8013463
0.48024416,-0.27712837,-0.2088879,-4.9039836,-0.48992866,-5.6207237
0.46529216,-0.2685002,-0.20238437,-4.7513022,-0.47467515,-5.4457273
0.45080587,-0.2601408,-0.19608338,-4.6033764,-0.45989677,-5.2761817
0.43677083,-0.25204176,-0.18997867,-4.460058,-0.44557866,-5.1119165
0.4231729,-0.24419497,-0.18406409,-4.3212037,-0.43170652,-4.952768
0.40999848,-0.23659258,-0.17833371,-4.186674,-0.41826642,-4.798576
0.39723435,-0.22922695,-0.17278181,-4.056334,-0.4052449,-4.649186
0.3848677,-0.22209069,-0.16740279,-3.9300528,-0.39262888,-4.5044484
0.3728862,-0.21517667,-0.16219129,-3.8077044,-0.38040575,-4.364218
0.36127782,-0.20847797,-0.15714209,-3.689166,-0.36856326,-4.228355
0.3500309,-0.20198785,-0.1522501,-3.574319,-0.35708955,-4.096722
0.3391342,-0.19569984,-0.14751045,-3.4630477,-0.3459731,-3.9691885
0.3285768,-0.18960762,-0.1429184,-3.3552415,-0.3352028,-3.8456259
0.31834814,-0.18370509,-0.13846931,-3.2507923,-0.3247679,-3.725911
0.30843797,-0.17798635,-0.13415876,-3.1495953,-0.31465787,-3.6099234
0.29883635,-0.17244567,-0.12998243,-3.051549,-0.30486262,-3.4975471
0.2895337,-0.16707751,-0.12593612,-2.9565554,-0.29537237,-3.38867
0.28052068,-0.16187648,-0.122015804,-2.8645196,-0.2861776,-3.2831826
0.27178827,-0.15683739,-0.11821754,-2.7753491,-0.2772691,-3.1809795
0.26332775,-0.15195517,-0.11453754,-2.688955,-0.26863796,-3.0819583
0.25513062,-0.14722498,-0.11097211,-2.6052506,-0.26027554,-2.9860203
0.24718872,-0.14264204,-0.107517675,-2.5241523,-0.25217348,-2.893069
0.23949406,-0.13820177,-0.104170784,-2.4455786,-0.24432364,-2.8030114
0.23203894,-0.13389975,-0.1009281,-2.3694513,-0.2367182,-2.7157576
0.22481592,-0.12973166,-0.09778636,-2.2956939,-0.22934952,-2.6312203
0.21781777,-0.12569332,-0.09474243,-2.2242327,-0.22221024,-2.5493147
0.21103749,-0.12178071,-0.09179327,-2.1549962,-0.21529323,-2.469959
0.20446828,-0.1179899,-0.08893591,-2.0879152,-0.20859155,-2.3930738
0.19810358,-0.1143171,-0.08616751,-2.0229223,-0.20209849,-2.318582
0.191937,-0.11075863,-0.08348528,-1.9599528,-0.19580758,-2.2464092
0.18596241,-0.10731095,-0.080886565,-1.8989437,-0.1897125,-2.1764832
0.1801738,-0.103970595,-0.07836874,-1.8398336,-0.18380715,-2.108734
0.17456539,-0.10073422,-0.07592929,-1.7825637,-0.17808564,-2.0430937
0.16913156,-0.09759859,-0.07356579,-1.7270765,-0.17254224,-1.979497
0.1638669,-0.09456058,-0.07127586,-1.6733167,-0.16717142,-1.9178798
0.15876612,-0.09161714,-0.06905721,-1.6212304,-0.16196777,-1.8581809
0.15382412,-0.088765316,-0.06690763,-1.5707655,-0.15692611,-1.8003402
0.14903596,-0.086002275,-0.06482497,-1.5218714,-0.15204139,-1.7443001
0.14439686,-0.083325244,-0.06280713,-1.4744995,-0.14730874,-1.6900046
