ax,ay,az,gx,gy,gz
-5.820962,4.3064027,-7.3737035,-18.1438,-15.647415,14.48195
-6.093519,4.235694,-8.639341,-22.440199,-27.850965,18.283705
-6.133101,3.757507,-9.6591425,-22.407495,-36.720913,19.31793
-6.2598867,3.300327,-10.519607,-18.998917,-43.86858,19.175959
-6.4722123,2.917288,-11.306745,-14.009807,-51.2539,17.6565
-6.5233135,2.5541556,-12.006809,-4.974421,-59.337105,17.906141
-6.4733143,2.4819133,-12.467703,3.5671518,-67.288994,19.64511
-6.543773,2.6276965,-12.783161,10.359363,-76.90368,20.029633
-6.661283,2.761067,-13.108389,15.802728,-87.92397,19.040333
-6.7270627,2.7810266,-13.512266,21.194052,-100.53005,16.907944
-6.6655884,2.7202086,-13.932353,27.335478,-113.8172,13.970244
-6.5151143,2.6012993,-14.313034,35.53403,-129.5777,9.874588
-6.0902233,2.529366,-14.510962,43.880474,-145.39175,5.799762
-5.4983306,2.5237832,-14.466972,51.074608,-160.97498,2.2073114
-4.7693005,2.4925513,-14.185749,57.461437,-176.32555,-1.6207049
-3.6966932,2.504757,-13.520391,62.84528,-190.76399,-6.4488716
-1.7687912,2.6248145,-12.119791,65.43507,-201.6475,-7.6376653
0.28606236,2.722191,-10.429224,64.06109,-207.85388,-5.4007673
2.2166553,2.6016014,-8.799829,60.999683,-210.29474,-1.8858744
4.1119018,2.369441,-7.238715,58.29474,-208.22977,1.7570745
5.9227724,2.1657622,-5.7684903,56.260994,-199.543,5.365475
7.466177,2.026801,-4.508364,55.22596,-186.99602,8.76438
8.733953,2.0235457,-3.441459,54.539673,-171.41113,11.936086
9.686381,2.1569688,-2.6078384,53.55329,-153.96843,15.459634
10.30168,2.3746955,-2.0276406,51.727226,-135.82492,19.180832
10.606701,2.607168,-1.7015139,49.18508,-117.92891,22.847563
10.688664,2.8261273,-1.587617,46.154213,-100.61184,26.05383
10.572294,3.0117216,-1.6765177,43.140385,-84.0778,28.680748
10.341846,3.186573,-1.8524114,40.207584,-68.400566,30.704891
10.001729,3.364102,-2.0767517,37.258755,-53.721115,32.04163
9.552637,3.5259886,-2.332209,34.26223,-40.404434,32.195915
8.968072,3.6592052,-2.6025796,31.484821,-28.578213,31.166525
8.3307,3.814397,-2.8075023,28.590614,-18.486992,28.592855
7.7171474,4.0061226,-2.9623806,25.01087,-10.175409,25.368961
7.164168,4.186352,-3.1320367,20.763783,-3.8757854,21.638922
6.6930356,4.2752924,-3.3702414,17.054932,0.82986885,17.078186
6.3034263,4.2969155,-3.6452765,14.235278,5.0691924,12.2885065
5.9380293,4.3164268,-3.9246557,12.056434,8.41984,7.8877316
5.5872283,4.336218,-4.204739,10.275663,10.914506,4.0416536
5.234031,4.3829045,-4.4668884,8.480517,12.657942,0.50155365
4.8629584,4.4383388,-4.7157702,6.509499,13.51008,-2.7562146
4.4763775,4.4924917,-4.9633603,4.5135446,13.215935,-5.792547
4.092246,4.540338,-5.209031,2.8033779,12.327082,-9.061373
3.7193935,4.5921736,-5.4445305,1.3461314,10.682454,-12.339005
3.3575752,4.6609097,-5.6628127,-0.149393,8.161601,-15.444813
3.0099173,4.752687,-5.8676004,-2.1654992,4.280815,-18.40982
2.6792572,4.8566947,-6.08113,-4.6546006,-0.7797362,-21.079775
2.3615475,4.9576435,-6.3051934,-7.6161637,-7.058239,-23.216331
2.0451329,5.068258,-6.532187,-11.202103,-14.400593,-24.963554
1.7108637,5.1505013,-6.7693768,-15.205207,-22.477478,-26.538334
1.340239,5.1930485,-6.9914923,-19.25207,-31.205173,-28.844324
0.98900706,5.199927,-7.113842,-23.27844,-40.30588,-32.305004
0.7419274,5.153928,-7.104961,-27.641134,-49.800804,-36.725006
0.6967258,5.0095367,-6.9867463,-32.199184,-59.30832,-41.691456
0.97245634,4.7624197,-6.802201,-36.264206,-67.641365,-46.984776
1.5901943,4.416848,-6.5909853,-39.941906,-74.0623,-51.53739
2.4842193,3.9095297,-6.422097,-42.97171,-77.581764,-53.65204
3.3252294,3.3423123,-6.2647843,-45.44997,-79.14979,-53.930016
3.9891644,2.7530422,-6.1470504,-47.2353,-79.49518,-52.907917
4.478956,2.1462095,-6.090698,-47.73251,-79.05889,-51.23029
4.838017,1.5511272,-6.061798,-46.584507,-78.00358,-49.00911
5.03522,1.0030863,-6.0354657,-44.286304,-76.372215,-46.713417
5.123474,0.49975997,-6.036194,-40.76022,-74.085464,-44.61392
5.148222,0.026943406,-6.076557,-35.960613,-71.35423,-42.482662
5.1119223,-0.4160947,-6.1316857,-30.284985,-68.365265,-39.74905
5.000474,-0.83800507,-6.207056,-23.364609,-65.41363,-36.49534
4.860473,-1.2374834,-6.3053455,-15.2942915,-62.296204,-33.08997
4.738829,-1.580761,-6.4197335,-5.862282,-58.88771,-29.555534
4.629354,-1.8343815,-6.5444884,4.6932096,-55.35595,-25.851416
4.5372853,-1.9687407,-6.6692142,15.874466,-51.852856,-22.072742
4.4645863,-1.9865155,-6.7941785,27.287577,-47.970924,-18.602629
4.399482,-1.8650717,-6.927333,39.12926,-43.829678,-15.6784935
4.351867,-1.6490455,-7.0256968,50.76946,-39.60825,-12.8045
4.3174915,-1.3425463,-7.102902,61.828796,-35.64781,-9.512203
4.297455,-0.9151159,-7.1158934,71.70914,-31.728428,-6.4613814
4.2635174,-0.4009778,-7.0456133,79.624435,-27.348225,-4.8257084
4.1609488,0.10378446,-6.9063706,86.09874,-22.977768,-3.8106594
3.9814649,0.58760935,-6.7553616,91.2039,-19.366337,-3.17178
3.7860632,1.0795916,-6.571954,94.816414,-16.565432,-3.0177684
3.617952,1.5809996,-6.3406005,96.678276,-14.193857,-3.3055663
3.4678075,2.052797,-6.1032963,96.62449,-12.275735,-3.8301775
3.329426,2.492521,-5.8814764,95.45224,-10.68841,-4.654926
3.197727,2.9135776,-5.6723566,93.37877,-9.49964,-5.7584634
3.101252,3.3492606,-5.439263,90.22245,-8.550503,-7.0721855
3.0514765,3.805864,-5.173953,85.82294,-7.587653,-8.357278
3.0329034,4.3010616,-4.876399,79.97526,-6.379606,-9.766105
3.0054455,4.815602,-4.599296,71.992645,-5.23504,-11.794644
3.0136814,5.345707,-4.360449,62.317333,-4.0637794,-14.290785
3.0647347,5.8679385,-4.17962,51.384575,-2.6599686,-16.849073
3.1514907,6.369215,-4.0711346,39.293915,-0.8225678,-19.415962
3.2295094,6.8428946,-4.0455365,26.05172,1.4842315,-22.532312
3.2870488,7.232477,-4.1581564,12.526033,3.9262245,-25.851849
3.313279,7.504732,-4.3916693,-0.63433313,6.4895563,-29.280241
3.291491,7.64183,-4.7006235,-13.091868,9.115046,-33.083374
3.2367327,7.6367364,-5.0469546,-24.435852,11.627024,-37.55101
3.192366,7.485919,-5.420658,-34.011105,13.046153,-42.809013
3.2983992,7.131897,-5.7861667,-42.210003,13.319513,-47.248543
3.5204523,6.674767,-6.098866,-49.185173,13.320998,-50.178448
3.7598836,6.139951,-6.3742185,-54.706696,13.686681,-51.877487
3.9454503,5.5831075,-6.6044164,-58.80362,14.317355,-52.61929
4.0595603,5.0385313,-6.785959,-61.58596,15.101659,-52.718193
4.0539846,4.540801,-6.8921914,-63.002007,15.613528,-52.003983
3.9671621,4.0980134,-6.934582,-63.67995,15.703457,-50.75771
3.8249447,3.707522,-6.919456,-63.854595,15.403816,-49.057133
3.6571984,3.3648314,-6.863297,-63.482784,14.865936,-47.438477
3.4957433,3.0455582,-6.741249,-62.644592,14.295406,-45.83823
3.332174,2.70391,-6.537199,-61.531822,13.672315,-44.18342
3.2118192,2.3846037,-6.3489327,-59.87701,13.028758,-42.561436
3.1297002,2.1118858,-6.180755,-57.752403,12.416776,-40.752277
3.0529904,1.8836656,-6.020245,-55.224186,11.896309,-38.849384
2.9877872,1.7098933,-5.8593645,-52.337322,11.833684,-36.73389
2.8956583,1.5972139,-5.7110014,-49.409492,11.894805,-34.4943
2.783902,1.5196718,-5.5709887,-46.546623,11.801782,-32.187744
2.6701229,1.4712701,-5.425659,-43.84557,11.487157,-29.745922
2.5542274,1.4370365,-5.2759275,-41.394466,10.895102,-27.167355
2.474618,1.3922474,-5.111489,-40.104298,10.555526,-26.32061
2.397496,1.3488578,-4.952188,-38.85444,10.226562,-25.500322
2.3227832,1.3068235,-4.797864,-37.643623,9.907872,-24.70566
2.250404,1.2661021,-4.64836,-36.470623,9.599137,-23.935818
2.1802847,1.2266521,-4.5035233,-35.33425,9.300042,-23.190012
2.1123543,1.1884339,-4.363209,-34.233356,9.010284,-22.46749
2.0465446,1.1514086,-4.2272744,-33.166824,8.729571,-21.76752
1.9827884,1.1155386,-4.095582,-32.13358,8.457619,-21.089396
1.9210217,1.080788,-3.9679985,-31.132572,8.194152,-20.432432
1.861182,1.0471215,-3.8443956,-30.162794,7.9389043,-19.795963
1.8032091,1.0145053,-3.7246487,-29.223269,7.6916194,-19.179348
1.7470442,0.98290634,-3.6086364,-28.313047,7.4520473,-18.581966
1.6926309,0.9522928,-3.496242,-27.431211,7.2199464,-18.003214
1.6399144,0.9226339,-3.3873527,-26.576874,6.9950833,-17.442509
1.5888414,0.89389974,-3.2818582,-25.749174,6.7772307,-16.899286
1.5393609,0.8660614,-3.1796527,-24.947277,6.56617,-16.372997
1.4914227,0.8390908,-3.0806332,-24.17038,6.361689,-15.863116
1.4449787,0.8129609,-2.9847,-23.417696,6.163582,-15.369128
1.3999822,0.78764546,-2.8917568,-22.688473,5.9716487,-14.890535
1.3563882,0.7631189,-2.8017104,-21.981976,5.7856975,-14.426858
1.3141526,0.7393567,-2.71447,-21.297495,5.6055408,-13.977631
1.273233,0.71633494,-2.629948,-20.634342,5.4309974,-13.542401
1.2335885,0.69403046,-2.5480592,-19.991852,5.261893,-13.120732
1.1951791,0.6724209,-2.468722,-19.369379,5.0980573,-12.712201
1.1579664,0.65148467,-2.391857,-18.7663,4.9393253,-12.316398
1.1219128,0.63120055,-2.317386,-18.182009,4.7855387,-11.932925
1.0869825,0.61154836,-2.245235,-17.61592,4.636543,-11.561398
1.0531403,0.5925083,-2.1753316,-17.067461,4.492188,-11.201444
1.0203521,0.57406133,-2.1076055,-16.536089,4.3523297,-10.852701
0.9885852,0.55618894,-2.0419886,-16.021265,4.2168274,-10.514821
0.9578077,0.5388732,-1.9784157,-15.522478,4.0855455,-10.187465
0.92798877,0.5220967,-1.9168227,-15.039225,3.958352,-9.870303
0.89909846,0.50584275,-1.8571479,-14.571021,3.8351202,-9.56302
0.87110794,0.49009493,-1.7993315,-14.117399,3.715726,-9.2653055
0.843989,0.47483754,-1.7433157,-13.677903,3.6000497,-8.976863
0.81771463,0.46005526,-1.6890441,-13.252093,3.4879758,-8.697402
0.7922584,0.4457333,-1.6364627,-12.839543,3.379392,-8.426643
0.7675949,0.43185735,-1.5855185,-12.439839,3.2741892,-8.164316
0.7436993,0.41841343,-1.5361606,-12.052582,3.1722624,-7.910158
0.7205478,0.40538815,-1.4883395,-11.677382,3.0735092,-7.6639132
0.69811714,0.3927684,-1.4420075,-11.313866,2.977831,-7.4253354
0.6763849,0.38054162,-1.3971182,-10.961668,2.8851316,-7.194186
0.6553293,0.3686955,-1.3536265,-10.620436,2.7953186,-6.9702344
0.6349293,0.3572182,-1.3114889,-10.289827,2.7083018,-6.753255
0.6151644,0.34609827,-1.2706631,-9.969513,2.6239944,-6.5430307
0.59601486,0.33532456,-1.2311085,-9.65917,2.542312,-6.339352
0.57746154,0.32488623,-1.1927854,-9.358491,2.4631722,-6.142015
0.55948585,0.3147729,-1.1556554,-9.067172,2.3864965,-5.950821
0.5420698,0.30497444,-1.1196814,-8.784923,2.3122082,-5.7655797
0.52519596,0.29548103,-1.0848273,-8.51146,2.2402325,-5.5861053
0.5088474,0.28628317,-1.0510583,-8.246511,2.1704974,-5.4122186
0.4930078,0.27737164,-1.0183406,-7.9898114,2.1029334,-5.2437453
0.47766134,0.26873752,-0.98664135,-7.741102,2.0374727,-5.0805163
0.4627926,0.26037222,-0.95592904,-7.500136,1.9740499,-4.9223695
0.44838676,0.25226733,-0.9261728,-7.266671,1.9126016,-4.7691455
0.43442938,0.24441476,-0.8973429,-7.0404744,1.8530661,-4.6206913
0.4209065,0.23680665,-0.8694105,-6.821319,1.795384,-4.476859
0.4078046,0.22943537,-0.8423476,-6.6089864,1.7394975,-4.337504
0.39511055,0.22229356,-0.81612724,-6.403263,1.6853509,-4.202487
0.38281167,0.21537407,-0.790723,-6.203944,1.6328897,-4.0716734
0.37089562,0.20866998,-0.7661097,-6.01083,1.5820618,-3.9449317
0.35935053,0.20217457,-0.74226254,-5.823727,1.5328159,-3.8221354
0.34816486,0.19588138,-0.71915776,-5.642449,1.4851032,-3.703162
0.33732736,0.18978408,-0.69677216,-5.4668136,1.4388757,-3.5878918
0.3268272,0.18387659,-0.6750834,-5.2966456,1.3940872,-3.4762099
