ax,ay,az,gx,gy,gz
-2.5227504,2.7409341,-7.364612,-30.351187,33.958492,18.921082
-3.1832526,2.5908785,-8.445424,-28.802103,21.762608,16.187551
-3.4504292,2.4542186,-9.005334,-26.417429,11.909083,15.512603
-3.567587,2.441435,-9.388376,-25.105154,4.8994856,15.853962
-3.8342314,2.5196805,-9.797124,-24.222172,-2.2330918,16.700026
-4.2363334,2.565905,-10.244257,-22.658098,-11.913739,16.703993
-4.5522842,2.5282385,-10.684248,-20.696012,-22.13048,16.802618
-4.776436,2.4089518,-11.163003,-17.25918,-31.652107,17.130152
-5.010906,2.2946208,-11.662846,-11.12625,-41.707634,16.398247
-5.197033,2.2558467,-12.1662035,-3.7875714,-52.7481,15.504918
-5.3429127,2.3234856,-12.607377,3.442902,-64.57129,13.745567
-5.4461317,2.4040833,-13.046554,10.0084715,-77.48623,11.819909
-5.482517,2.428447,-13.505942,16.002476,-92.11851,10.25587
-5.4046273,2.4088945,-13.908488,21.449738,-108.99773,9.334734
-5.150434,2.3228662,-14.133617,26.453125,-126.24938,9.114962
-4.8116302,2.2664125,-14.085409,30.518284,-143.73976,8.243876
-4.3170524,2.2729352,-13.689397,33.708157,-161.14854,5.274877
-3.352676,2.3521662,-12.795673,35.569553,-176.90225,0.48213795
-1.8822261,2.4801116,-11.506034,33.815556,-188.50038,-1.0206325
-0.11094327,2.5024757,-10.0141945,28.803406,-196.7424,1.7874613
1.5854101,2.3070703,-8.690533,23.464285,-201.24734,6.06656
3.1775622,1.9343088,-7.5745153,20.52357,-200.19185,8.554869
4.640089,1.5342547,-6.597075,20.280542,-194.19756,9.547813
5.952747,1.2285944,-5.7082996,21.981342,-183.86078,10.685899
6.990969,1.0969361,-4.905664,24.329252,-171.4153,12.042054
7.7427106,1.0955546,-4.198936,27.01758,-157.73569,13.080615
8.291695,1.2213805,-3.5778794,29.277555,-143.3285,13.964695
8.663347,1.416732,-3.0738876,30.543333,-128.6855,15.120065
8.871374,1.6221583,-2.7061698,30.555376,-113.93123,16.745121
8.9342,1.8206803,-2.4659362,29.793869,-99.524895,18.506172
8.818438,2.0092556,-2.3572662,28.471497,-85.75965,19.89845
8.630396,2.188033,-2.3174207,26.657394,-72.731186,20.87192
8.396059,2.3718467,-2.3146825,24.33746,-60.42106,21.201773
8.132166,2.5596929,-2.327383,21.440006,-48.49216,20.65493
7.8116918,2.7633953,-2.39199,18.109074,-37.058964,19.478266
7.4455066,2.9576073,-2.5179508,14.244716,-26.569391,17.607391
7.0571275,3.1282766,-2.6970792,10.016981,-17.392426,15.392424
6.6396084,3.2753232,-2.92067,5.6212707,-10.029551,13.03576
6.223267,3.4064593,-3.1612868,0.93418413,-4.606672,10.666234
5.820047,3.505353,-3.4434175,-3.6349683,-0.39643067,8.1448345
5.4473443,3.5676138,-3.7499557,-7.783775,2.7779515,5.549511
5.0914555,3.6083772,-4.058986,-11.4826975,5.1172833,3.0603292
4.734631,3.6348915,-4.363202,-14.56874,6.649941,0.60963476
4.360883,3.6572216,-4.659784,-16.78673,6.968647,-2.1286075
3.974442,3.6776192,-4.948234,-18.307705,6.4513106,-5.2136736
3.5809188,3.6959805,-5.2165995,-19.251627,5.266328,-8.693296
3.1968625,3.7045066,-5.4719276,-19.528837,3.5340295,-12.341175
2.8221633,3.7171109,-5.708654,-19.221191,1.4911121,-15.924607
2.421344,3.747826,-5.929222,-18.424366,-1.485536,-19.504053
1.9635197,3.8136747,-6.134269,-17.625868,-5.4952703,-23.291933
1.4933438,3.8871098,-6.3408737,-16.868761,-10.732164,-27.59304
1.0423626,3.946477,-6.555103,-15.993311,-17.03966,-32.39647
0.6521882,3.9943335,-6.7622905,-15.061407,-24.069809,-37.708527
0.35897127,4.018238,-6.92906,-14.075222,-31.83253,-42.628063
0.1454314,4.048542,-6.9729524,-13.542224,-40.614784,-47.257484
0.045092937,4.061956,-6.908172,-13.62505,-50.358814,-52.35902
0.19151928,3.9966838,-6.72915,-14.158448,-60.13092,-57.97503
0.6839472,3.818967,-6.4680104,-14.71259,-68.34776,-63.140064
1.464195,3.5341227,-6.1552324,-14.877976,-73.23543,-66.96357
2.410005,3.0899885,-5.8612227,-15.029538,-76.4981,-68.53985
3.3512115,2.5200546,-5.6520295,-14.890269,-78.97958,-67.243324
4.2439513,1.8662057,-5.5133996,-13.686109,-79.90105,-64.26002
5.0368476,1.2202554,-5.399691,-10.876749,-78.45496,-60.579556
5.678764,0.66542655,-5.27927,-6.2023296,-74.439415,-56.53032
6.132815,0.27452743,-5.123892,-0.74186003,-69.28726,-52.12523
6.4638333,-0.00901275,-4.9753585,5.0339184,-63.49179,-47.394268
6.7104483,-0.231073,-4.870518,10.977448,-57.335598,-42.291897
6.886287,-0.3839546,-4.8148055,17.08729,-50.75863,-36.821
6.9846764,-0.4548246,-4.7987156,23.484928,-43.59766,-31.167517
6.980318,-0.4294801,-4.820854,29.927357,-36.289005,-25.417114
6.906153,-0.34053633,-4.8674083,36.147373,-29.42986,-19.543468
6.784085,-0.20662795,-4.932958,42.032887,-23.033127,-13.740532
6.6207705,-0.045518883,-5.0183783,47.49903,-17.062983,-8.205026
6.422334,0.12392124,-5.1296554,52.758045,-11.800509,-3.1905985
6.212197,0.3032586,-5.231831,57.666546,-6.822929,1.3827288
5.9960876,0.48868945,-5.340062,62.20969,-2.2206893,5.688594
5.7690096,0.68653274,-5.4430866,66.2245,1.9188188,9.730504
5.5337486,0.8903202,-5.538369,69.58052,5.46874,13.65826
5.276838,1.0903671,-5.634631,72.18055,8.079177,17.393103
5.007717,1.2777599,-5.737898,74.528984,10.070154,20.770384
4.733267,1.4633236,-5.833609,76.79582,11.60075,23.484844
4.462842,1.6517863,-5.9086075,78.97811,12.73424,25.66222
4.2008286,1.8578466,-5.950649,80.84256,13.5721,27.383657
3.9476628,2.0717251,-5.960028,82.22695,13.947499,28.656504
3.7010972,2.298767,-5.9349866,83.28703,13.84487,29.426441
3.479686,2.544236,-5.8685427,84.00655,13.410127,29.435785
3.3073971,2.8191218,-5.752844,84.12077,12.686594,28.916134
3.1934552,3.1445322,-5.570442,83.09795,11.731505,28.100994
3.129041,3.477583,-5.3588867,80.37773,10.858485,27.26204
3.0696828,3.7841587,-5.1607933,76.8832,10.09736,26.313925
2.9924104,4.094786,-4.9691453,73.01395,9.360395,24.529764
2.930615,4.4462,-4.7553906,68.781906,8.713684,21.298029
2.9287488,4.853159,-4.504519,63.719063,8.482963,16.71661
2.997755,5.319558,-4.2169623,56.77472,8.866882,11.08072
3.1385303,5.8146353,-3.9257941,48.440327,9.673985,5.537025
3.2929666,6.3185973,-3.6703072,38.544403,10.955673,0.16456477
3.440905,6.81235,-3.482093,27.399809,13.0078945,-5.738697
3.569803,7.228028,-3.4139545,15.811024,16.13238,-12.920941
3.660863,7.532216,-3.4796684,3.8911514,19.375866,-21.002157
3.7103508,7.6821284,-3.7173183,-8.010072,21.474295,-28.861437
3.7600622,7.6524844,-4.06752,-19.390156,22.33434,-36.448742
3.8491483,7.431919,-4.4834986,-29.63492,22.14769,-43.736526
4.006399,7.024656,-4.911822,-38.288776,20.863619,-49.66732
4.2165213,6.513688,-5.298167,-44.765755,19.086412,-53.2819
4.417803,5.941388,-5.5920253,-49.479404,17.77834,-56.053505
4.5649977,5.374651,-5.807831,-52.576817,16.71699,-58.073505
4.680092,4.838972,-5.9388103,-54.543118,16.03167,-59.443665
4.7518992,4.323792,-6.0079126,-55.59291,15.685792,-59.904575
4.7565184,3.8450549,-6.0397606,-55.80264,15.59441,-59.104115
4.672797,3.4126503,-6.041078,-55.301514,15.673393,-57.736732
4.541274,3.038996,-6.014601,-54.15755,15.711861,-55.913506
4.402797,2.7316284,-5.948669,-52.537445,16.07835,-54.139687
4.2683716,2.480141,-5.856304,-50.768238,16.695972,-51.9837
4.1299505,2.2896059,-5.7362466,-49.32644,17.657667,-49.28439
3.9688635,2.1466396,-5.601458,-47.960133,18.67112,-46.229992
3.845163,2.0797336,-5.426873,-46.46533,18.089184,-44.78911
3.725328,2.0149183,-5.257744,-45.017227,17.52543,-43.393246
3.6092362,1.9521278,-5.093898,-43.61436,16.979288,-42.04099
3.4967701,1.8912983,-4.9351687,-42.25531,16.450203,-40.730965
3.387816,1.8323681,-4.781396,-40.938698,15.937639,-39.46185
3.282263,1.7752779,-4.632424,-39.663185,15.441076,-38.232353
3.1800048,1.7199694,-4.488102,-38.42749,14.960013,-37.041233
3.080938,1.6663872,-4.348284,-37.230354,14.493963,-35.887283
2.9849625,1.6144768,-4.2128286,-36.070576,14.042456,-34.769344
2.8919811,1.564186,-4.081599,-34.946983,13.605035,-33.686283
2.8019004,1.515464,-3.9544637,-33.858437,13.181258,-32.637005
2.714629,1.4682616,-3.8312933,-32.80384,12.7706995,-31.620455
2.6300795,1.4225312,-3.7119641,-31.782137,12.372945,-30.635609
2.5481663,1.3782269,-3.5963562,-30.79229,11.987593,-29.68147
2.4688072,1.3353039,-3.4843526,-29.833307,11.614255,-28.757082
2.3919222,1.293719,-3.3758407,-28.90422,11.252558,-27.861511
2.3174338,1.2534306,-3.2707117,-28.004095,10.902135,-26.993858
2.2452674,1.2143978,-3.1688592,-27.132029,10.562634,-26.153252
2.17535,1.1765816,-3.0701816,-26.287142,10.233715,-25.338842
2.1076117,1.1399441,-2.974579,-25.468584,9.915048,-24.549814
2.0419843,1.1044481,-2.8819556,-24.675537,9.60631,-23.785376
1.9784018,1.0700583,-2.7922184,-23.9072,9.307193,-23.044756
1.9168005,1.03674,-2.7052774,-23.162804,9.017395,-22.327213
1.8571184,1.0044597,-2.621045,-22.441599,8.736627,-21.632027
1.7992957,0.9731852,-2.539437,-21.742865,8.464606,-20.9585
1.7432743,0.9428849,-2.4603713,-21.065897,8.201059,-20.305952
1.6889981,0.9135285,-2.3837686,-20.410017,7.945722,-19.673735
1.6364126,0.8850866,-2.309552,-19.774569,7.6983385,-19.061209
1.5854651,0.85753053,-2.237647,-19.158915,7.458661,-18.467764
1.5361043,0.83083284,-2.1679819,-18.562433,7.2264485,-17.892801
1.488281,0.8049666,-2.1004863,-17.984531,7.001468,-17.335747
1.4419471,0.779906,-2.0350928,-17.42463,6.783495,-16.796041
1.3970562,0.75562584,-1.9717361,-16.882162,6.5723104,-16.273146
1.3535633,0.73210186,-1.9103523,-16.35659,6.3677025,-15.766533
1.3114249,0.7093104,-1.8508803,-15.847385,6.1694665,-15.275697
1.2705986,0.68722874,-1.7932601,-15.354037,5.977403,-14.800146
1.2310437,0.66583467,-1.7374343,-14.876052,5.7913213,-14.339404
1.1927204,0.6451068,-1.6833467,-14.41295,5.6110334,-13.893008
1.1555905,0.6250243,-1.6309434,-13.964269,5.4363594,-13.460513
1.1196167,0.6055672,-1.5801718,-13.529558,5.2671247,-13.041485
1.0847632,0.5867159,-1.5309811,-13.108383,5.103159,-12.635503
1.0509946,0.5684515,-1.4833219,-12.700322,4.9442987,-12.242163
1.0182776,0.55075586,-1.4371468,-12.304966,4.790385,-11.861069
0.98657924,0.5336112,-1.3924092,-11.921919,4.641263,-11.49184
0.9558677,0.51700026,-1.3490645,-11.550798,4.4967837,-11.134109
0.9261124,0.50090647,-1.3070693,-11.191233,4.356803,-10.787514
0.8972835,0.48531377,-1.2663816,-10.842861,4.22118,-10.451709
0.8693521,0.47020653,-1.2269607,-10.505336,4.08978,-10.12636
0.84229034,0.45556962,-1.188767,-10.178318,3.9624703,-9.811139
0.81607103,0.44138837,-1.1517624,-9.861482,3.8391242,-9.505733
0.790668,0.42764863,-1.1159097,-9.554509,3.719618,-9.209834
0.7660558,0.41433665,-1.0811733,-9.257092,3.6038325,-8.923147
0.7422098,0.40143907,-1.0475183,-8.968936,3.4916515,-8.645385
0.7191062,0.38894302,-1.0149109,-8.689749,3.3829627,-8.376269
0.6967218,0.37683594,-0.98331875,-8.419254,3.2776577,-8.115533
0.6750342,0.3651058,-0.95271,-8.15718,3.1756308,-7.862912
0.65402186,0.35374084,-0.9230541,-7.9032636,3.07678,-7.6181564
0.63366354,0.34272963,-0.89432144,-7.657252,2.9810064,-7.3810196
0.613939,0.33206123,-0.8664832,-7.4188986,2.8882143,-7.1512647
0.5948285,0.32172492,-0.8395116,-7.1879654,2.7983108,-6.9286623
0.5763129,0.3117104,-0.8133795,-6.964221,2.711206,-6.7129893
0.55837363,0.3020076,-0.78806096,-6.7474413,2.6268127,-6.50403
0.54099286,0.29260683,-0.7635306,-6.5374103,2.5450466,-6.3015757
0.5241531,0.2834987,-0.7397638,-6.333917,2.4658256,-6.1054235
0.50783753,0.27467412,-0.71673685,-6.1367583,2.3890707,-5.915377
