ax,ay,az,gx,gy,gz
-5.5509596,3.310939,-4.7764072,-75.9616,15.425595,-12.429204
-6.713558,3.7126298,-5.3346324,-78.44656,5.255124,-9.647969
-7.95078,3.6309884,-6.1685195,-81.04496,-8.830103,-14.143863
-8.954056,3.2505603,-7.4639144,-78.880875,-25.30098,-25.877281
-9.41831,2.7054853,-8.580102,-73.192116,-41.106724,-38.811546
-9.623301,1.9893302,-9.617375,-64.94805,-56.656864,-50.135597
-9.417017,1.283354,-10.544907,-56.07897,-72.65732,-57.728317
-8.789818,0.6500802,-11.310599,-44.260998,-87.42664,-62.768852
-8.090553,0.0013775013,-11.916504,-29.698893,-99.054825,-68.26242
-7.3083344,-0.58278674,-12.356533,-12.658812,-107.896904,-73.619545
-6.4552073,-1.0479704,-12.618867,5.85734,-114.00681,-77.89402
-5.604341,-1.4099025,-12.750779,24.85598,-118.11418,-80.29071
-4.7882996,-1.6451987,-12.7865505,45.282944,-119.77201,-82.76419
-3.976513,-1.7243106,-12.681932,65.14666,-120.02245,-85.16516
-3.1335092,-1.7282476,-12.4897175,84.0313,-120.059326,-85.698685
-2.2455285,-1.6282845,-12.16762,101.479675,-119.81412,-83.32193
-1.3938828,-1.3270167,-11.650788,116.28601,-119.38322,-78.222115
-0.5891234,-0.8508652,-10.923988,126.571075,-117.11359,-71.562614
0.14022276,-0.44540074,-10.131631,134.99149,-113.70755,-64.5488
0.84250385,-0.06976934,-9.338426,142.21774,-109.21651,-57.760845
1.5508636,0.2952393,-8.537861,148.09796,-103.49538,-50.609924
2.2386796,0.7631591,-7.6773543,151.49202,-96.487015,-43.074127
2.8416424,1.2673817,-6.7935643,151.57466,-87.12933,-35.44616
3.2696447,1.7562728,-5.978265,150.13957,-77.590385,-27.852137
3.5929089,2.241036,-5.219081,147.29993,-67.8522,-20.655828
3.8316479,2.6978748,-4.5310245,142.89629,-57.543633,-14.285867
3.9892135,3.120235,-3.9141965,136.91829,-46.394615,-8.550137
4.0598273,3.509333,-3.3852856,128.84715,-33.88983,-3.0765197
3.9416673,3.8488345,-3.0462313,121.15632,-22.52657,1.3639503
3.7223883,4.143427,-2.7888181,113.830284,-12.6862955,3.8333633
3.5036185,4.406808,-2.5744205,106.80564,-3.409756,4.430427
3.3102388,4.660146,-2.3966734,99.51441,5.4211097,3.7609112
3.1344986,4.9047065,-2.271462,91.0275,13.560509,2.5502896
2.9536526,5.132475,-2.2628536,81.63003,20.027243,1.5286831
2.7634902,5.3011174,-2.344646,71.78748,25.198952,0.4737768
2.554955,5.4124393,-2.50506,62.055496,29.181225,-0.8397194
2.3290815,5.475586,-2.7165225,52.51282,32.011196,-2.1076488
2.0719626,5.507367,-2.959231,43.351578,33.232716,-3.26289
1.7568611,5.48969,-3.234674,34.904232,33.353416,-4.804596
1.3997285,5.4164968,-3.522495,27.568624,32.412785,-7.097283
1.0287029,5.3111563,-3.7970607,21.529898,30.392914,-10.460017
0.6686041,5.194606,-4.0304,16.580236,27.279705,-15.056927
0.35761118,5.078801,-4.1964145,12.654733,23.00193,-20.965422
0.14533217,4.982379,-4.247895,9.198874,18.350151,-27.467758
0.019492188,4.881353,-4.2315183,6.23003,13.550677,-34.083782
-0.005127846,4.82098,-4.1189103,3.3665676,9.026633,-40.710876
0.06294204,4.7610955,-3.954445,0.2567635,4.948309,-46.839222
0.19289854,4.6537743,-3.7984774,-2.7539272,1.2303097,-52.381607
0.46760044,4.50213,-3.6255686,-5.5484076,-2.116201,-57.710472
0.8829783,4.2839503,-3.444228,-8.251195,-4.345586,-62.549614
1.3819067,3.9714684,-3.280137,-10.626365,-5.2035885,-66.0804
1.895036,3.6273103,-3.1202776,-12.637744,-5.0084743,-68.014824
2.386922,3.2831392,-2.957375,-14.33203,-3.497452,-68.11809
2.7909331,2.9286542,-2.8206527,-15.694669,-1.1519516,-67.02371
3.1123729,2.5870533,-2.7080302,-16.717495,1.8422896,-65.01771
3.3714545,2.2769704,-2.6124902,-17.41866,5.3990707,-62.467175
3.5842605,2.0022643,-2.5300357,-17.981863,9.384131,-59.224873
3.7586362,1.7650784,-2.4631124,-18.788769,13.939293,-54.905544
3.857506,1.5551416,-2.451903,-19.516914,18.560614,-49.847633
3.884753,1.353153,-2.4886158,-19.6804,22.81294,-44.341213
3.8695593,1.1795627,-2.54937,-19.211636,26.663523,-38.759354
3.846215,1.0529673,-2.6010323,-18.468609,30.254742,-33.34124
3.8306308,0.94253707,-2.658008,-17.58375,33.79608,-27.51381
3.8209693,0.8416286,-2.7386177,-16.68812,37.49455,-21.090641
3.794877,0.7471125,-2.8498886,-15.609183,41.33897,-14.104457
3.7383368,0.65967584,-3.0039194,-14.016374,44.96595,-6.7433367
3.6510274,0.59084713,-3.1809232,-11.687401,48.209625,0.76494575
3.527958,0.5903082,-3.3542516,-8.898209,50.45728,7.562732
3.3911405,0.6541407,-3.4804912,-6.0370803,52.14205,13.523841
3.2700298,0.73796684,-3.5921433,-3.3300724,53.422085,19.007177
3.1521897,0.81517935,-3.717874,-0.7054541,54.441814,24.26895
3.0124102,0.8840429,-3.8596866,2.1716816,55.09004,29.567657
2.8308902,0.9986425,-3.991032,5.170782,55.07921,34.36173
2.5861459,1.1941476,-4.0792,7.782647,54.497665,37.83838
2.3200376,1.3996129,-4.1538606,9.81379,53.326157,40.077538
2.046593,1.5709506,-4.240161,11.662585,51.505398,41.61954
1.7755569,1.7235476,-4.323045,13.476167,49.25395,42.752373
1.4982417,1.8726962,-4.40279,15.182552,46.12538,43.362576
1.2268949,2.0336034,-4.463161,16.61594,42.476254,43.275024
0.9804727,2.208472,-4.5031967,17.63538,38.30826,42.36092
0.7596492,2.3900437,-4.5193205,18.058523,33.872993,40.75528
0.5555731,2.5513163,-4.535365,18.012672,28.969612,38.965046
0.38649675,2.6929328,-4.547434,17.36152,23.133274,37.09795
0.2716062,2.8113623,-4.5448422,16.309145,17.102364,35.450027
0.17167486,2.904037,-4.554807,15.098694,10.75258,34.056248
0.085458,2.9794922,-4.567436,13.773614,4.241696,32.831604
0.010529791,3.0724993,-4.5539904,12.086668,-2.2605772,31.172903
-0.05495239,3.1665883,-4.517572,9.605323,-8.300958,28.299637
-0.11292634,3.2048838,-4.5177107,6.749425,-14.57393,24.930317
-0.13276653,3.2062664,-4.5289392,3.9192693,-21.020523,21.184174
-0.09399177,3.1837656,-4.5141864,1.1483477,-27.449842,17.14203
0.0070899474,3.1428142,-4.4639215,-1.7048179,-33.514767,12.939455
0.16698082,3.0645008,-4.397876,-4.6968827,-38.99404,8.28152
0.42125857,2.9054291,-4.3072896,-7.30972,-43.998226,3.6926243
0.748175,2.7127519,-4.1717997,-9.635676,-48.200817,0.056393776
1.0812179,2.5198731,-3.9995904,-12.004614,-51.736263,-2.3503222
1.3843079,2.3244195,-3.8004878,-14.392322,-54.494232,-4.1430073
1.6495892,2.117468,-3.5871897,-16.531174,-56.518566,-5.356507
1.8774861,1.9143482,-3.3572686,-18.528255,-57.99472,-6.0778584
2.0644398,1.6996902,-3.1517975,-20.184101,-59.10217,-6.421873
2.2165291,1.477261,-2.9610035,-21.271275,-59.833572,-6.6540294
2.352034,1.2663202,-2.763935,-21.90497,-59.859657,-6.9017453
2.4683278,1.0684375,-2.5665016,-22.154795,-58.958847,-6.9244504
2.5385497,0.89140743,-2.3828833,-22.211985,-57.68621,-6.742613
2.5762641,0.72664267,-2.2160752,-21.966402,-56.204,-6.402666
2.5939798,0.5827102,-2.0564337,-21.49237,-54.564484,-5.9648232
2.5924828,0.4512148,-1.9073193,-20.779926,-52.791668,-5.439778
2.5792413,0.33145154,-1.762441,-19.592876,-50.85355,-4.8702626
2.5832572,0.23842722,-1.6118081,-18.144142,-48.660122,-3.991149
2.596566,0.16712125,-1.4569412,-16.497108,-46.207973,-2.8692675
2.6163182,0.11641397,-1.3001863,-14.871162,-43.507126,-1.6054759
2.5347428,0.11278424,-1.2596471,-14.407487,-42.150593,-1.555418
2.455719,0.10926805,-1.220376,-13.958315,-40.836494,-1.5069258
2.3791661,0.105861805,-1.182333,-13.52319,-39.56349,-1.4599501
2.3050067,0.102562055,-1.1454792,-13.101666,-38.33028,-1.4144429
2.2331648,0.09936543,-1.1097772,-12.693317,-37.135612,-1.3703579
2.1635678,0.09626869,-1.0751908,-12.297728,-35.978275,-1.3276504
2.096145,0.093268685,-1.0416847,-11.914495,-34.85709,-1.286277
2.0308278,0.09036237,-1.0092252,-11.543233,-33.77092,-1.2461959
1.9675502,0.08754681,-0.97777927,-11.183562,-32.71867,-1.2073662
1.906248,0.08481915,-0.947315,-10.83512,-31.699266,-1.1697488
1.8468593,0.08217663,-0.9178016,-10.497555,-30.711683,-1.1333055
1.789324,0.07961658,-0.88920933,-10.170525,-29.754921,-1.0979997
1.733584,0.07713641,-0.86150914,-9.853698,-28.828012,-1.0637954
1.679583,0.074733615,-0.8346732,-9.546756,-27.930023,-1.0306582
1.6272665,0.07240578,-0.8086744,-9.249389,-27.060043,-0.9985548
1.5765818,0.07015054,-0.7834865,-8.961297,-26.217201,-0.96745265
1.5274777,0.06796564,-0.7590841,-8.682189,-25.400642,-0.9373205
1.4799048,0.06584887,-0.73544264,-8.411784,-24.609547,-0.9081279
1.4338152,0.06379809,-0.7125383,-8.149811,-23.843115,-0.8798455
1.3891625,0.061811257,-0.69034797,-7.8960047,-23.100578,-0.8524448
1.3459017,0.059886355,-0.6688494,-7.6501102,-22.38119,-0.8258983
1.3039894,0.058021452,-0.648021,-7.4118805,-21.684223,-0.80017924
1.2633834,0.05621467,-0.6278417,-7.1810756,-21.00898,-0.77526176
1.2240428,0.054464202,-0.6082913,-6.9574637,-20.35478,-0.75112087
1.1859282,0.05276828,-0.58935016,-6.7408204,-19.720968,-0.72773224
1.1490012,0.051125202,-0.5709992,-6.5309277,-19.106905,-0.7050724
1.1132249,0.049533322,-0.5532201,-6.3275747,-18.511974,-0.68311864
1.0785632,0.047991037,-0.5359948,-6.1305575,-17.93558,-0.66184884
1.0449814,0.0464968,-0.51930624,-5.939678,-17.377142,-0.6412417
1.0124457,0.045049116,-0.5031376,-5.7547455,-16.836103,-0.62127656
0.9809236,0.04364653,-0.4874726,-5.5755734,-16.311916,-0.60193336
0.95038337,0.042287633,-0.47229552,-5.401983,-15.804059,-0.58319265
0.9207944,0.04097106,-0.45759124,-5.233799,-15.31202,-0.5650357
0.8921271,0.039695498,-0.44334492,-5.0708537,-14.835307,-0.5474443
0.8643526,0.038459662,-0.4295423,-4.9129834,-14.373441,-0.5304008
0.8374431,0.037262317,-0.41616958,-4.76003,-13.925961,-0.51388806
0.81137174,0.03610226,-0.40321335,-4.6118402,-13.492415,-0.49788967
0.78611225,0.034978334,-0.39066058,-4.468265,-13.0723715,-0.48238945
0.7616394,0.033889405,-0.37849873,-4.329161,-12.665409,-0.46737194
0.7379287,0.03283439,-0.3667156,-4.1943893,-12.27112,-0.4528221
0.7149563,0.03181222,-0.3552994,-4.063814,-11.889109,-0.43872532
0.6926992,0.030821886,-0.3442387,-3.9373047,-11.518992,-0.4250675
0.6711352,0.029862387,-0.3335224,-3.8147347,-11.160401,-0.41183496
0.65024257,0.028932765,-0.3231398,-3.6959813,-10.812976,-0.39901444
0.63000053,0.028032089,-0.31308043,-3.5809255,-10.476368,-0.38659313
0.61038876,0.027159456,-0.3033343,-3.469452,-10.150241,-0.37455857
0.59138757,0.026313992,-0.29389164,-3.3614492,-9.834268,-0.3628987
0.572978,0.025494853,-0.28474295,-3.2568092,-9.528132,-0.3516019
0.5551416,0.024701217,-0.2758791,-3.1554272,-9.231529,-0.3406568
0.5378606,0.02393229,-0.26729125,-3.0572016,-8.9441595,-0.33005244
0.52111757,0.023187302,-0.25897074,-2.962034,-8.665737,-0.31977823
0.50489575,0.022465508,-0.2509093,-2.8698294,-8.395983,-0.30982393
0.48917902,0.021766188,-0.24309881,-2.7804954,-8.134627,-0.3001795
0.47395158,0.021088637,-0.2355315,-2.6939425,-7.8814077,-0.29083535
0.45919818,0.02043218,-0.22819977,-2.6100843,-7.6360717,-0.2817821
0.44490412,0.01979616,-0.22109628,-2.5288365,-7.398373,-0.27301067
0.431055,0.01917994,-0.21421394,-2.4501183,-7.1680746,-0.26451233
0.41763708,0.018582903,-0.20754585,-2.3738506,-6.944946,-0.25627854
0.40463683,0.018004453,-0.20108534,-2.2999573,-6.7287626,-0.24830109
0.3920413,0.01744401,-0.19482596,-2.2283642,-6.51931,-0.24057198
0.37983787,0.016901014,-0.18876143,-2.159,-6.3163776,-0.23308347
0.36801434,0.016374923,-0.1828857,-2.0917947,-6.1197624,-0.22582808
0.35655886,0.015865209,-0.17719287,-2.026682,-5.929268,-0.21879856
0.34546,0.015371361,-0.17167726,-1.963596,-5.7447033,-0.21198787
0.33470663,0.014892886,-0.16633336,-1.9024738,-5.565884,-0.20538917
0.32428804,0.014429307,-0.1611558,-1.8432544,-5.3926315,-0.1989959
0.31419376,0.013980158,-0.15613942,-1.7858784,-5.224772,-0.19280165
0.30441368,0.013544991,-0.15127918,-1.7302885,-5.062138,-0.18680023
0.29493806,0.01312337,-0.14657025,-1.676429,-4.904567,-0.18098561
