ax,ay,az,gx,gy,gz
-3.097301,1.4272858,-4.0191274,-25.080227,31.904837,-12.540113
-3.3816082,1.3899852,-4.5503273,-30.113993,25.311089,-19.07004
-3.5058305,1.1017259,-5.0979877,-32.769127,17.170834,-21.231037
-3.4875116,0.8471931,-5.5626354,-35.056824,9.411206,-19.111485
-3.5282533,0.6044664,-6.023816,-36.00374,3.6164315,-16.039108
-3.748975,0.3119685,-6.5750933,-34.27772,-1.8203144,-14.718149
-4.0211596,-0.025576955,-7.147416,-28.697126,-8.756101,-15.892916
-4.164021,-0.33627567,-7.6677456,-22.02288,-15.678633,-17.201483
-4.2704854,-0.6341716,-8.144682,-14.222155,-22.863884,-18.47206
-4.3794374,-0.92642075,-8.58286,-5.604297,-30.40843,-20.003778
-4.425288,-1.2198255,-8.973603,3.9647481,-38.309177,-21.889639
-4.354015,-1.5137951,-9.302915,15.817378,-46.955753,-24.163166
-4.0924306,-1.7418851,-9.495802,28.142052,-55.09611,-25.670763
-3.7356513,-1.9232701,-9.594763,40.22925,-62.89168,-26.052977
-3.3169494,-2.0683877,-9.603546,52.36651,-70.38481,-25.704098
-2.8360848,-2.1281693,-9.462086,64.13844,-76.99468,-25.091099
-2.3073983,-2.0823162,-9.149512,74.78381,-82.499535,-23.15039
-1.7772936,-1.9133482,-8.647003,83.88765,-86.59953,-20.664848
-1.2946709,-1.7199721,-8.099462,91.49744,-89.91827,-17.752323
-0.8354008,-1.5057544,-7.5168037,97.62938,-92.80831,-14.548778
-0.369068,-1.3016825,-6.9184766,102.868515,-95.04318,-11.061234
0.11173754,-1.0615315,-6.2947326,107.42513,-96.32538,-7.680922
0.6222609,-0.6860824,-5.5347576,110.482,-96.02429,-4.7991204
1.0898587,-0.28953072,-4.751666,112.0196,-94.31297,-2.1020446
1.526358,0.12594905,-3.951761,112.10254,-91.246765,0.3111764
1.9289556,0.54194903,-3.1744647,110.49787,-86.55968,2.3558977
2.2885442,0.93792,-2.452569,106.951546,-80.48278,4.1488376
2.6195023,1.3101791,-1.789436,102.1488,-73.29425,5.7092824
2.9079225,1.6450794,-1.1961689,96.13076,-64.88111,7.0930424
3.1370103,1.9323179,-0.699165,88.97737,-55.42221,8.362416
3.2877188,2.1598797,-0.33292603,81.2707,-45.614403,9.4164505
3.368498,2.329965,-0.09139858,73.493645,-36.13664,10.289946
3.4035363,2.4594333,0.028879475,65.720764,-27.26715,10.957812
3.4170702,2.5671082,0.0756177,57.88807,-18.643284,11.439931
3.3873198,2.65491,0.035321638,49.97257,-10.476508,11.993568
3.2888913,2.7147143,-0.10720061,42.444153,-3.2826867,12.413261
3.127205,2.7459662,-0.32557932,35.755527,2.411873,12.380081
2.9352198,2.7715669,-0.5898863,29.727335,7.262326,11.85583
2.7236526,2.805137,-0.86888975,24.248701,11.349264,10.914741
2.4714713,2.837456,-1.1665756,19.289007,14.478369,9.676488
2.186733,2.8605025,-1.4798422,15.0461035,16.592693,8.059924
1.8810138,2.8761601,-1.7958001,11.870364,17.3352,5.815691
1.5607607,2.8792124,-2.091488,9.475355,17.057325,3.3386338
1.2484847,2.9052699,-2.3422787,7.67514,15.997191,0.45892194
0.9446947,2.9507966,-2.5399892,6.2529073,14.3520355,-2.911105
0.64846236,3.0072374,-2.684688,5.02815,12.0229225,-6.752807
0.37718546,3.0621786,-2.7784789,3.780186,9.092555,-11.150216
0.1216945,3.0864897,-2.8381064,2.6980484,5.8018293,-16.128918
-0.10645469,3.0737557,-2.8774135,1.9318436,1.8770263,-22.138191
-0.25924698,3.0409107,-2.8836718,1.3593372,-2.4619398,-28.924242
-0.27262837,2.980137,-2.840006,0.82973987,-7.051821,-36.246735
-0.11332308,2.8584375,-2.7342527,0.3737783,-11.118944,-42.84096
0.20953457,2.7018769,-2.519336,-0.048547685,-14.056806,-48.28122
0.5788325,2.5564566,-2.2408826,-0.6377115,-15.75138,-52.721184
0.9672266,2.4297612,-1.9250476,-1.7731382,-16.487232,-56.235756
1.3648529,2.286873,-1.6181661,-3.6422663,-16.17074,-58.85353
1.7286129,2.086881,-1.3723578,-5.6640224,-14.840192,-60.300083
2.0599265,1.8583597,-1.1955038,-7.530698,-13.261681,-60.972286
2.409558,1.6397562,-1.0343612,-9.553833,-11.3249445,-60.65329
2.7487857,1.4112985,-0.9174457,-11.705892,-8.8248205,-59.212425
3.0354812,1.1640011,-0.8716312,-13.655157,-5.927147,-56.84497
3.2651641,0.92445374,-0.87624365,-15.162479,-2.806611,-53.611244
3.4610395,0.69847023,-0.9221599,-16.418156,0.5111942,-49.55892
3.6262558,0.47784242,-1.0028934,-17.455307,4.088292,-44.481514
3.7428472,0.2673955,-1.1258026,-18.044472,7.915704,-38.728123
3.8190148,0.07890243,-1.28385,-17.951117,12.024007,-32.57926
3.8639457,-0.079443656,-1.4704382,-16.697073,16.170826,-25.815647
3.872457,-0.18068027,-1.6736937,-14.819565,20.220545,-18.694736
3.841687,-0.21297894,-1.8681368,-12.804377,24.114656,-11.596809
3.7774768,-0.22509663,-2.0711563,-10.617243,27.833698,-4.3685374
3.6872277,-0.23346741,-2.2980413,-8.022963,31.292812,3.0542219
3.5677006,-0.23288023,-2.5499568,-4.5230937,33.876404,10.618804
3.4305637,-0.1820138,-2.7946243,-0.6117653,35.56638,18.09226
3.288683,-0.05924304,-2.9913034,3.1978495,37.080685,25.185972
3.091111,0.1503213,-3.1381893,6.2868743,38.636166,30.971794
2.8150692,0.38163525,-3.2693515,8.54281,39.742844,35.38816
2.4984007,0.58466476,-3.4074254,10.179099,39.37788,38.44487
2.2153106,0.74451625,-3.5331433,11.706255,38.219044,41.01468
1.957404,0.9035674,-3.6321576,13.255111,36.25807,43.2623
1.6971564,1.1004755,-3.6792245,14.599886,33.910282,44.85217
1.4217787,1.324199,-3.6935515,15.58781,31.161428,45.544643
1.1477492,1.548679,-3.6816661,16.005938,28.02273,44.789127
0.90389025,1.7499925,-3.6617317,16.057312,24.326324,43.360935
0.726394,1.9577988,-3.618387,15.567842,20.176733,41.569843
0.6171379,2.1877918,-3.5350833,14.302071,15.912654,39.579144
0.53376395,2.4242792,-3.4204671,11.9479065,11.702517,37.458538
0.431114,2.6104095,-3.3371592,8.720715,7.310704,35.110615
0.31821606,2.7401671,-3.311589,5.326426,2.7659538,32.13299
0.24418387,2.8585837,-3.295831,1.8640873,-1.6379762,28.622446
0.19770168,2.99063,-3.2763746,-1.8688538,-6.097051,24.632418
0.17067635,3.1060479,-3.2479498,-6.213672,-10.548404,20.41725
0.15590622,3.1556168,-3.237336,-10.992186,-14.952284,16.123575
0.17156045,3.1402593,-3.262117,-15.621303,-19.566341,11.74617
0.2452664,3.1345246,-3.2769768,-20.411442,-24.37056,7.173025
0.3790497,3.0945616,-3.27191,-25.559982,-29.288332,2.538209
0.57130927,2.9642642,-3.2493343,-30.63373,-33.78169,-1.6372223
0.81224513,2.7671728,-3.2095258,-35.673336,-37.780266,-4.26889
1.0958438,2.5389132,-3.1461558,-40.865032,-41.528805,-5.632979
1.3729155,2.258912,-3.082251,-45.744434,-44.512737,-6.6050725
1.6067151,1.9061261,-3.0327597,-49.524532,-46.365505,-7.5751843
1.7787848,1.531549,-2.988854,-52.10677,-47.57666,-8.286002
1.9082239,1.187732,-2.9183812,-53.706367,-48.22942,-8.538029
1.9985052,0.89383477,-2.8076942,-54.665,-48.503456,-8.515362
2.034698,0.61200583,-2.6766036,-54.87526,-48.39928,-8.39246
1.9992853,0.2933311,-2.5257206,-54.29414,-48.02408,-8.761054
1.9415181,-0.062091693,-2.399884,-51.809555,-47.666355,-10.058916
2.065612,-0.243044,-2.2040818,-49.29052,-46.645756,-10.7638645
2.2168875,-0.28964755,-1.9700875,-47.884277,-44.975506,-10.077772
2.2792408,-0.3323896,-1.8150678,-47.239807,-43.10627,-8.600283
2.289182,-0.39381513,-1.7419018,-46.823006,-41.122356,-6.7331295
2.2655396,-0.47255787,-1.722509,-46.150887,-38.989273,-4.6294293
2.218161,-0.55183,-1.7343103,-44.824203,-36.437656,-2.8427677
2.1800275,-0.62965125,-1.7554381,-43.166054,-33.62906,-1.0168428
2.151285,-0.6971522,-1.7714163,-41.051758,-30.603851,0.8699436
2.0842285,-0.6754217,-1.7162006,-39.77216,-29.649918,0.84282714
2.0192678,-0.65437037,-1.6627105,-38.53255,-28.725798,0.8165581
1.956337,-0.63397676,-1.6108918,-37.331676,-27.830553,0.7911099
1.8953719,-0.61422026,-1.5606918,-36.168316,-26.963274,0.7664567
1.836311,-0.5950808,-1.5120597,-35.04129,-26.123081,0.74257344
1.7790942,-0.5765389,-1.4649462,-33.949455,-25.309124,0.71943593
1.7236637,-0.5585759,-1.4193034,-32.891705,-24.520578,0.69702077
1.6699634,-0.54117364,-1.3750854,-31.866972,-23.756645,0.67530525
1.6179389,-0.5243144,-1.3322473,-30.874218,-23.016554,0.65426743
1.5675378,-0.5079813,-1.2907459,-29.912443,-22.299555,0.63388604
1.5187092,-0.4921577,-1.2505392,-28.980673,-21.604925,0.61414057
1.4714036,-0.47682774,-1.2115868,-28.077969,-20.931965,0.595011
1.4255736,-0.4619759,-1.1738493,-27.203419,-20.279993,0.5764781
1.3811728,-0.44758725,-1.1372887,-26.356144,-19.648355,0.5585232
1.3381566,-0.43364725,-1.1018682,-25.53529,-19.036411,0.5411281
1.2964815,-0.4201419,-1.067552,-24.740026,-18.44355,0.5242754
1.2561057,-0.4070576,-1.0343057,-23.969559,-17.86917,0.5079481
1.2169886,-0.39438117,-1.0020957,-23.223108,-17.312695,0.4921298
1.1790906,-0.38209987,-0.97088975,-22.499924,-16.773565,0.47680452
1.1423739,-0.37020132,-0.94065636,-21.79928,-16.251238,0.46195692
1.1068015,-0.3586736,-0.9113652,-21.12047,-15.745191,0.44757202
1.0723376,-0.34750512,-0.8829869,-20.462816,-15.254912,0.43363538
1.0389476,-0.33668464,-0.85549283,-19.825653,-14.779911,0.42013302
1.006598,-0.32620135,-0.8288554,-19.208344,-14.31971,0.40705138
0.97525626,-0.31604463,-0.8030479,-18.610266,-13.873847,0.39437732
0.944891,-0.30620435,-0.77804446,-18.030823,-13.441875,0.38209808
0.9154716,-0.29667065,-0.7538199,-17.46943,-13.02336,0.3702014
0.88696873,-0.28743392,-0.73035,-16.925526,-12.617883,0.35867533
0.8593537,-0.2784849,-0.70761114,-16.398563,-12.225036,0.34750828
0.83259887,-0.26981464,-0.6855806,-15.888016,-11.844425,0.33668905
0.80667734,-0.2614144,-0.66423625,-15.39337,-11.47567,0.3262068
0.78156316,-0.25327584,-0.64355665,-14.91413,-11.118399,0.31605107
0.7572312,-0.24539073,-0.62352115,-14.449816,-10.772255,0.3062116
0.73365694,-0.23775119,-0.6041096,-13.999963,-10.436892,0.29667857
0.71081686,-0.23034957,-0.5853026,-13.564118,-10.111973,0.28744245
0.68868804,-0.22317843,-0.5670812,-13.141847,-9.797172,0.2784939
0.66724837,-0.21623062,-0.5494273,-12.732725,-9.492174,0.2698241
0.6464763,-0.20949917,-0.5323231,-12.336344,-9.196673,0.2614242
0.62635106,-0.20297731,-0.51575154,-11.952305,-8.910376,0.25328588
0.6068525,-0.19665854,-0.49969596,-11.580225,-8.632992,0.245401
0.587961,-0.19053651,-0.48414034,-11.219729,-8.364244,0.2377616
0.5696578,-0.18460512,-0.46906903,-10.87046,-8.103866,0.23036009
0.55192447,-0.1788584,-0.45446703,-10.532064,-7.851594,0.22318903
0.5347433,-0.17329061,-0.44031966,-10.2042055,-7.607177,0.21624124
0.51809704,-0.16789617,-0.42661273,-9.886555,-7.37037,0.20950978
0.50196904,-0.16266969,-0.4133326,-9.578794,-7.140936,0.2029879
0.4863432,-0.15760593,-0.40046594,-9.280614,-6.918645,0.19666906
0.47120386,-0.15269981,-0.38799983,-8.991718,-6.7032747,0.19054696
0.45653585,-0.14794645,-0.37592188,-8.711817,-6.4946094,0.18461545
0.44232446,-0.14334106,-0.3642199,-8.440629,-6.292441,0.1788686
0.42855555,-0.13887906,-0.35288227,-8.177884,-6.096566,0.17330068
0.41521525,-0.13455598,-0.34189758,-7.9233193,-5.9067893,0.1679061
0.40229028,-0.13036747,-0.33125487,-7.6766796,-5.722921,0.16267946
0.3897677,-0.12630935,-0.32094347,-7.437718,-5.544776,0.15761553
0.37763494,-0.12237758,-0.3109531,-7.2061954,-5.3721776,0.15270925
0.3658799,-0.1185682,-0.30127373,-6.98188,-5.204952,0.1479557
0.3544908,-0.11487741,-0.2918957,-6.7645483,-5.042932,0.14335014
0.34345624,-0.11130152,-0.2828096,-6.5539823,-4.8859563,0.13888796
0.3327652,-0.10783694,-0.27400634,-6.349971,-4.7338667,0.13456467
0.32240695,-0.104480214,-0.26547712,-6.1523104,-4.586512,0.13037597
0.31237116,-0.101227984,-0.2572134,-5.960803,-4.4437447,0.12631766
0.30264777,-0.098077,-0.24920698,-5.775257,-4.3054214,0.122385696
0.29322708,-0.095024094,-0.24144976,-5.595487,-4.171404,0.118576124
0.28409964,-0.09206623,-0.23393403,-5.421314,-4.0415583,0.11488514
0.27525634,-0.08920044,-0.22665225,-5.2525616,-3.9157548,0.11130905
0.2666883,-0.08642386,-0.21959713,-5.0890627,-3.7938673,0.107844286
