ax,ay,az,gx,gy,gz
-1.3181938,1.5445595,-1.2872845,12.318294,29.630268,-13.261029
-1.2509197,1.6429216,-1.3166898,7.845082,30.431082,-10.606618
-1.40962,1.5123879,-1.6195965,2.9626648,28.210583,-8.835793
-1.7135193,1.3120403,-2.0231383,-0.24300908,21.991837,-9.466957
-1.8371289,1.1928585,-2.1517556,-3.0370839,14.413274,-12.789433
-1.6368648,1.1031862,-1.989616,-5.514123,9.1998005,-14.076872
-1.2742141,1.0011097,-1.6940826,-7.636745,7.642817,-13.452887
-1.0797824,0.91074234,-1.5442787,-8.011638,7.349662,-13.219666
-1.0223576,0.80295545,-1.5014135,-6.410968,6.441079,-13.757658
-0.985444,0.6919211,-1.4498248,-4.141295,4.9641514,-14.613202
-0.95686036,0.60107833,-1.3743814,-1.6827176,3.20879,-15.857569
-0.8979436,0.5179338,-1.2596787,1.180817,1.6756264,-17.29938
-0.7945335,0.4871552,-1.105785,4.413382,0.7143809,-18.907085
-0.6554582,0.4847412,-0.9279532,6.863361,0.5049737,-20.026117
-0.5407585,0.46807548,-0.7825368,8.518306,0.53834367,-20.517582
-0.44725025,0.45984188,-0.6671006,9.344886,0.32672003,-20.463823
-0.36616778,0.45495614,-0.56962365,9.422081,-0.10542635,-20.028109
-0.3044625,0.43172455,-0.49763846,9.280002,-0.5581347,-19.449976
-0.24617912,0.4097274,-0.44346872,9.010442,-0.68526894,-18.827219
-0.2092386,0.37777704,-0.4136527,8.354538,-0.57211936,-17.930164
-0.21110651,0.33974475,-0.41302654,8.036775,-0.6659878,-17.206131
-0.21333244,0.3218544,-0.41665778,7.9364743,-0.85628533,-16.629992
-0.23722863,0.30689102,-0.44164285,8.181658,-1.3437223,-16.180872
-0.28722462,0.3066039,-0.47865382,8.6545,-2.1082208,-15.942589
-0.3556825,0.31747338,-0.53126544,9.135178,-3.0812688,-15.884138
-0.4662268,0.33286572,-0.6299684,9.682557,-4.784059,-16.45524
-0.6320515,0.33597863,-0.8015682,10.458574,-7.0777836,-17.453932
-0.81456894,0.33047932,-1.0088359,11.526518,-10.045542,-18.764618
-1.0207775,0.31749645,-1.258226,13.274804,-13.768478,-20.629644
-1.2335805,0.30996317,-1.5310668,16.068436,-18.251686,-23.262274
-1.4048486,0.3016817,-1.7964507,20.337177,-23.473955,-26.689596
-1.5028747,0.25591943,-2.042276,25.892166,-28.61075,-29.892576
-1.5777584,0.21330063,-2.2880318,32.870323,-33.68722,-32.834152
-1.639672,0.21261892,-2.5374596,40.91631,-39.611015,-36.172478
-1.6146361,0.25453687,-2.6942582,48.277622,-45.818893,-39.743004
-1.524547,0.3335097,-2.7864583,54.41077,-52.574673,-43.252308
-1.3177515,0.45520276,-2.7333763,59.0082,-59.222267,-45.951756
-1.0097448,0.56319886,-2.5455704,61.412827,-65.08596,-46.97391
-0.6594347,0.6371725,-2.2902372,62.398052,-69.46525,-45.82222
-0.33892003,0.6959273,-2.0238106,62.52899,-72.39979,-43.459297
-0.08218864,0.78246146,-1.7715726,62.234024,-73.815834,-41.12786
0.12759198,0.91265684,-1.5044563,61.310883,-74.11052,-39.387653
0.33200487,1.026034,-1.2336513,59.692802,-73.28526,-37.982693
0.55826455,1.1057793,-0.9683594,57.83928,-71.3355,-36.264153
0.7777111,1.2014096,-0.72043526,55.458084,-68.785286,-34.07414
0.9691931,1.2978263,-0.49468476,52.330452,-65.82236,-31.5793
1.144493,1.3765632,-0.28321636,49.2328,-62.497078,-29.223196
1.3389449,1.4419498,-0.065554835,46.217033,-58.23924,-26.805775
1.5199198,1.4841604,0.12511986,43.17629,-53.134247,-24.227087
1.6697127,1.5229079,0.2772793,39.876896,-47.30371,-21.55151
1.6133977,1.4715443,0.2679274,38.531956,-45.708286,-20.824635
1.5592493,1.4221567,0.2589353,37.238754,-44.174232,-20.125723
1.5071591,1.3746464,0.250285,35.994713,-42.698498,-19.45338
1.457027,1.328922,0.24195985,34.797432,-41.27823,-18.806309
1.4087591,1.2848979,0.23394428,33.644676,-39.910778,-18.1833
1.3622681,1.2424945,0.2262238,32.534355,-38.59367,-17.583225
1.3174722,1.2016371,0.21878481,31.464518,-37.32458,-17.00503
1.2742949,1.1622561,0.21161461,30.433334,-36.10135,-16.447727
1.2326642,1.1242857,0.20470126,29.439093,-34.921932,-15.910388
1.192513,1.0876646,0.19803357,28.480179,-33.784428,-15.392142
1.1537774,1.0523348,0.19160098,27.555077,-32.687035,-14.89217
1.1163979,1.0182418,0.18539359,26.662361,-31.628054,-14.4097
1.0803179,0.985334,0.179402,25.800682,-30.605892,-13.944005
1.0454842,0.953563,0.17361738,24.968767,-29.61904,-13.494396
1.0118465,0.9228828,0.16803136,24.165415,-28.666067,-13.060224
0.97935706,0.89324987,0.16263603,23.389486,-27.745626,-12.640871
0.9479706,0.86462295,0.15742387,22.639898,-26.856434,-12.235757
0.9176443,0.836963,0.15238775,21.91563,-25.997276,-11.844325
0.8883374,0.8102328,0.14752093,21.215708,-25.166998,-11.466051
0.86001104,0.784397,0.14281695,20.539206,-24.3645,-11.100434
0.8326285,0.759422,0.1382697,19.885242,-23.58874,-10.747
0.80615455,0.7352757,0.13387331,19.25298,-22.838722,-10.405292
0.7805558,0.7119276,0.12962228,18.641615,-22.113497,-10.074881
0.7558001,0.6893485,0.12551126,18.050388,-21.412157,-9.755351
0.7318571,0.6675106,0.12153518,17.47857,-20.73384,-9.446311
0.70869756,0.64638734,0.117689215,16.925463,-20.077723,-9.147384
0.6862936,0.6259532,0.113968715,16.3904,-19.443007,-8.858209
0.6646185,0.60618377,0.11036926,15.872745,-18.828941,-8.578441
0.6436466,0.5870558,0.10688659,15.371884,-18.234798,-8.307751
0.62335354,0.5685469,0.10351663,14.887235,-17.659885,-8.045821
0.60371566,0.55063564,0.10025548,14.418233,-17.103537,-7.792349
0.5847105,0.5333015,0.09709941,13.964342,-16.565111,-7.547043
0.5663163,0.51652455,0.0940448,13.5250435,-16.043997,-7.3096237
0.5485124,0.500286,0.091088206,13.099842,-15.539603,-7.079823
0.53127867,0.48456752,0.08822631,12.688258,-15.051365,-6.8573823
0.51459605,0.46935162,0.08545592,12.289835,-14.578737,-6.6420536
0.4984459,0.45462143,0.08277396,11.904129,-14.121197,-6.433599
0.48281053,0.44036075,0.080177486,11.530718,-13.678239,-6.231788
0.46767277,0.42655393,0.077663645,11.16919,-13.24938,-6.0364003
0.45301613,0.41318598,0.07522971,10.819154,-12.834151,-5.847223
0.43882477,0.40024236,0.07287303,10.480228,-12.432103,-5.66405
0.42508337,0.3877091,0.07059108,10.152049,-12.042803,-5.4866858
0.41177717,0.3755728,0.0683814,9.834264,-11.6658325,-5.314938
0.3988919,0.36382046,0.06624162,9.526532,-11.300787,-5.148624
0.3864139,0.35243955,0.064169474,9.228526,-10.94728,-4.9875665
0.37432992,0.34141803,0.062162753,8.939931,-10.604935,-4.831595
0.36262718,0.3307442,0.060219347,8.6604395,-10.273391,-4.6805434
0.35129333,0.32040685,0.0583372,8.389759,-9.952298,-4.534254
0.34031647,0.3103951,0.05651434,8.1276045,-9.641318,-4.3925724
0.32968512,0.3006985,0.05474886,7.8737016,-9.340128,-4.25535
0.31938818,0.29130688,0.053038906,7.627785,-9.048411,-4.122444
0.30941492,0.28221047,0.051382706,7.389599,-8.765864,-3.9937162
0.29975498,0.27339986,0.049778532,7.158895,-8.492193,-3.8690321
0.29039833,0.26486588,0.048224732,6.9354353,-8.227116,-3.7482631
0.2813353,0.2565997,0.04671969,6.7189875,-7.9703555,-3.6312838
0.27255654,0.24859276,0.045261852,6.509329,-7.721649,-3.5179734
0.264053,0.24083689,0.043849718,6.3062434,-7.4807405,-3.4082155
0.25581595,0.23332404,0.04248184,6.109522,-7.2473807,-3.3018973
0.2478369,0.22604653,0.041156806,5.9189625,-7.021331,-3.1989093
0.2401077,0.21899691,0.039873265,5.7343698,-6.802359,-3.0991461
0.23262043,0.21216793,0.038629897,5.5555553,-6.5902414,-3.0025055
0.22536744,0.20555264,0.037425436,5.3823357,-6.384761,-2.9088888
0.21834132,0.19914427,0.036258653,5.2145343,-6.185708,-2.8182006
0.21153492,0.1929363,0.03512835,5.0519805,-5.9928794,-2.730348
0.20494129,0.1869224,0.034033388,4.8945084,-5.806079,-2.645242
0.19855374,0.18109646,0.032972645,4.7419577,-5.625117,-2.5627959
0.19236578,0.17545256,0.031945046,4.594174,-5.449809,-2.482926
0.18637112,0.16998495,0.030949548,4.4510064,-5.2799773,-2.405551
0.18056367,0.16468813,0.029985141,4.31231,-5.11545,-2.3305924
0.17493758,0.15955667,0.029050848,4.1779447,-4.95606,-2.2579746
0.16948712,0.15458544,0.028145721,4.0477743,-4.801646,-2.1876237
0.16420679,0.14976937,0.02726885,3.9216669,-4.652052,-2.119469
0.15909123,0.14510359,0.026419342,3.799495,-4.5071263,-2.053441
0.15413532,0.14058341,0.025596341,3.6811352,-4.366723,-1.9894733
0.14933401,0.13620424,0.024799017,3.5664682,-4.2307,-1.9275014
0.14468248,0.13196169,0.024026565,3.455378,-4.09892,-1.8674626
0.14017604,0.12785146,0.023278205,3.3477528,-3.9712503,-1.8092965
0.13581012,0.123869404,0.022553185,3.243484,-3.847562,-1.7529444
0.13158035,0.12001152,0.021850772,3.1424665,-3.7277308,-1.6983494
0.12748247,0.11627393,0.021170259,3.0445988,-3.6116357,-1.6454566
0.123512335,0.11265286,0.020510962,2.9497821,-3.49916,-1.5942128
0.11966596,0.109144665,0.019872218,2.8579211,-3.3901906,-1.5445664
0.115939476,0.10574582,0.019253382,2.7689235,-3.2846177,-1.4964675
0.11232914,0.10245292,0.018653836,2.6826997,-3.1823351,-1.4498677
0.108831316,0.09926263,0.018072972,2.5991628,-3.0832403,-1.4047203
0.105442494,0.09617176,0.017510211,2.5182295,-2.9872334,-1.3609797
0.10215927,0.09317721,0.016964985,2.439818,-2.8942182,-1.3186021
0.09897835,0.09027596,0.016436748,2.3638494,-2.8041012,-1.2775449
0.09589653,0.08746509,0.01592497,2.290248,-2.7167919,-1.2377669
0.09291072,0.08474181,0.015429134,2.2189395,-2.6322026,-1.199228
0.09001793,0.08210336,0.014948745,2.1498525,-2.5502486,-1.1618899
0.08721526,0.0795471,0.014483321,2.0829175,-2.4708474,-1.1257149
0.08449988,0.07707047,0.014032396,2.0180676,-2.3939197,-1.0906668
0.08186909,0.07467098,0.013595515,1.9552377,-2.3193882,-1.0567102
0.07932024,0.072346225,0.013172242,1.8943648,-2.247178,-1.0238113
0.07685077,0.070093885,0.012762153,1.8353877,-2.177217,-0.9919372
0.07445821,0.067911685,0.012364835,1.7782476,-2.1094346,-0.9610557
0.07214017,0.06579745,0.011979891,1.7228869,-2.0437634,-0.931136
0.069894314,0.06374905,0.011606935,1.6692504,-1.9801375,-0.90214807
0.0677184,0.061764453,0.011245594,1.617284,-1.9184928,-0.87406284
0.065610245,0.059841648,0.010895506,1.566936,-1.8587677,-0.8468522
0.063567735,0.057978723,0.010556318,1.5181559,-1.8009026,-0.8204889
0.06158883,0.056173805,0.010227692,1.4708947,-1.7448393,-0.79494655
0.059671544,0.05442509,0.0099093,1.4251051,-1.6905217,-0.7701995
0.057813957,0.05273083,0.009600822,1.3807412,-1.6378955,-0.74622303
0.05601421,0.051089317,0.009301948,1.3377588,-1.5869077,-0.72299314
0.0542705,0.049498916,0.009012381,1.2961147,-1.5375077,-0.7004865
0.05258108,0.047958035,0.008731829,1.2557671,-1.4896456,-0.6786806
0.05094426,0.04646513,0.008460011,1.2166758,-1.4432738,-0.6575537
0.0493584,0.045018703,0.0081966575,1.1788015,-1.3983457,-0.63708454
0.04782192,0.043617312,0.007941503,1.1421065,-1.3548166,-0.61725265
0.046333272,0.04225955,0.0076942923,1.1065539,-1.3126425,-0.5980382
0.044890974,0.04094406,0.007454778,1.0721083,-1.2717814,-0.579422
0.043493576,0.039669525,0.0072227204,1.0387349,-1.2321925,-0.56138533
0.042139683,0.03843467,0.0069978875,1.0064006,-1.1938362,-0.5439102
0.040827937,0.037238255,0.006780054,0.97507286,-1.1566739,-0.52697915
0.039557032,0.03607909,0.0065690023,0.94472045,-1.1206685,-0.5105751
0.03832569,0.034956012,0.0063645206,0.91531295,-1.0857841,-0.4946818
0.03713268,0.033867896,0.0061664046,0.8868209,-1.0519856,-0.47928327
0.035976812,0.032813653,0.0059744567,0.8592159,-1.0192393,-0.4643641
0.034856927,0.03179223,0.0057884837,0.83247024,-0.9875124,-0.4499094
0.033771902,0.030802604,0.0056083,0.8065572,-0.9567732,-0.43590465
0.032720655,0.029843785,0.005433726,0.78145075,-0.9269909,-0.42233586
0.031702135,0.028914815,0.0052645863,0.757126,-0.8981358,-0.4091895
0.03071532,0.028014762,0.0051007117,0.73355836,-0.8701789,-0.39645237
0.029759225,0.02714273,0.0049419384,0.7107244,-0.84309226,-0.38411173
0.028832892,0.026297841,0.0047881077,0.68860126,-0.8168488,-0.37215525
0.027935395,0.025479253,0.004639066,0.6671668,-0.7914223,-0.360571
0.027065836,0.024686148,0.0044946633,0.64639956,-0.76678735,-0.34934732
0.026223347,0.023917733,0.004354756,0.6262788,-0.7429192,-0.33847302
