ax,ay,az,gx,gy,gz
-1.2263747,0.8654624,-0.8872808,-15.536505,19.253813,1.6645606
-0.9793863,1.1801867,-0.57172585,-36.487946,27.1218,5.7571445
-0.81283104,0.9658674,-0.63741714,-43.27671,33.110775,9.557529
-0.8821529,0.7164409,-0.88212264,-40.975098,35.434544,12.656664
-1.1234303,0.5977719,-1.2084457,-34.22715,33.35639,13.109946
-1.3295594,0.6001265,-1.3331512,-28.108303,30.341265,9.092026
-1.4744905,0.599823,-1.4386052,-23.617346,25.00023,3.1337302
-1.4027995,0.53160876,-1.4189253,-20.043497,20.623644,-1.877406
-1.2784797,0.4428368,-1.3503542,-17.145117,17.708048,-5.364904
-1.1496664,0.386519,-1.2420298,-14.291813,16.594292,-8.163502
-1.077689,0.3567158,-1.1837299,-10.983263,16.031347,-10.3851795
-1.0771989,0.33709735,-1.1621287,-7.697014,14.613409,-12.445689
-1.0625926,0.32578608,-1.127246,-5.108119,12.727542,-14.060826
-1.0093964,0.31604266,-1.0752771,-3.2538068,11.020566,-15.012164
-0.9559937,0.31773633,-1.0263366,-1.8544124,9.563996,-15.590508
-0.90354556,0.30383903,-0.97687584,-0.29718345,8.626077,-15.980695
-0.8549345,0.2753647,-0.93911624,1.8444476,8.0504675,-16.458721
-0.81119984,0.25259364,-0.90216494,4.0133953,7.4473195,-16.945019
-0.75351256,0.23983914,-0.84645444,5.5989017,6.809151,-17.006586
-0.68559206,0.24196799,-0.77385116,6.2024593,6.177307,-16.55156
-0.6117285,0.24771935,-0.69266576,6.082337,5.8781486,-15.803218
-0.57027894,0.23860049,-0.64006215,6.064416,5.6269717,-15.087634
-0.53369224,0.22781956,-0.5853005,6.3638086,5.540515,-14.464611
-0.49627504,0.21881148,-0.5315745,6.7795205,5.4876556,-13.774473
-0.46167237,0.21844135,-0.48032618,7.265172,5.39537,-13.118906
-0.40284604,0.21828254,-0.4137626,7.4763474,5.6984673,-12.344464
-0.34377736,0.20458156,-0.35915536,7.4694877,6.214142,-11.269196
-0.31980616,0.181675,-0.33155936,7.849818,6.6927,-10.263041
-0.31365636,0.15920965,-0.31973577,8.941625,6.9932556,-9.403139
-0.29759106,0.15510699,-0.28281823,10.2128315,7.6460595,-8.715204
-0.24782726,0.15224493,-0.21917105,11.645256,9.098851,-8.035785
-0.17483807,0.15597837,-0.14991124,12.430546,11.316413,-7.13514
-0.10829017,0.18707529,-0.08740252,11.854906,13.863111,-6.260923
-0.0636731,0.20212476,-0.05302613,10.134756,16.376076,-4.835752
-0.032773,0.22678024,-0.03795707,7.949199,18.771736,-3.1333444
0.012461375,0.2509234,-0.02807496,5.2783947,21.412624,-1.1965371
0.050909262,0.27112344,-0.04437356,2.4678385,24.88961,1.1387489
0.009467655,0.29533556,-0.16163138,0.20414034,28.243118,3.3680434
-0.10795103,0.33852187,-0.36396566,-0.9988135,30.634525,5.0141373
-0.27249867,0.4092575,-0.6344803,-1.9331115,31.547516,5.913211
-0.48993173,0.47655445,-0.9774028,-3.175758,30.367737,6.275875
-0.7755036,0.49601257,-1.4239829,-2.9611144,25.676853,5.139951
-1.2141528,0.4536958,-2.0824108,-0.2231034,16.987225,1.9056008
-1.6187345,0.46284157,-2.7929192,5.0525103,3.8290186,-3.1624286
-1.963363,0.6015558,-3.4999409,11.9638815,-14.010537,-10.466793
-2.1327562,0.78984624,-4.1791296,20.466805,-35.312347,-18.847816
-2.035188,0.9252576,-4.860056,30.765718,-59.95521,-25.94565
-1.3761828,0.91862935,-5.2288933,42.578487,-81.725655,-30.619944
-0.45300296,1.0166974,-5.1264772,53.10477,-97.89469,-32.533016
0.49489978,1.4189849,-4.5399466,57.870396,-107.83405,-33.07101
1.2927558,1.6287017,-3.8708665,60.245663,-112.05663,-32.87374
1.8509636,1.6863036,-3.353919,61.462322,-112.390656,-29.449541
2.1305828,1.8024503,-3.0027122,60.467278,-112.2838,-24.736374
2.3552861,1.887488,-2.6720574,58.02356,-110.711075,-19.63596
2.5662334,1.9749289,-2.3402157,54.78306,-107.0556,-14.937532
2.713841,2.0760474,-2.0809166,52.292313,-101.45601,-11.197599
2.7504783,2.1756823,-1.9522141,50.179382,-95.92411,-9.370254
2.7520685,2.2048934,-1.8747321,48.03678,-91.07815,-8.477087
2.797869,2.1792839,-1.7614429,45.651913,-86.29412,-7.388601
2.862302,2.1354318,-1.6266097,42.828896,-81.18107,-5.8139143
2.9297256,2.0902998,-1.4777236,39.520576,-75.32642,-4.29079
3.0026937,2.05002,-1.336058,36.59898,-68.110634,-3.7266264
3.0573537,2.0245848,-1.2715491,34.571922,-60.729527,-3.0163815
3.0488944,1.9830681,-1.2634059,32.70542,-54.84913,-1.8662299
2.9507983,1.9192643,-1.2227567,31.653147,-53.084396,-1.8061852
2.856051,1.8576385,-1.1834952,30.636793,-51.379906,-1.7481903
2.7645202,1.7981049,-1.1455665,29.654945,-49.733284,-1.6921643
2.676081,1.7405821,-1.1089189,28.70626,-48.142277,-1.6380306
2.5906146,1.6849929,-1.0735033,27.789465,-46.604748,-1.5857166
2.508008,1.6312637,-1.0392725,26.903345,-45.118668,-1.535153
2.4281535,1.5793246,-1.0061823,26.04675,-43.682102,-1.4862741
2.350949,1.529109,-0.9741902,25.218576,-42.2932,-1.439017
2.2762964,1.4805534,-0.9432555,24.41778,-40.950214,-1.3933222
2.2041028,1.433597,-0.9133398,23.64336,-39.651463,-1.3491324
2.134279,1.388182,-0.8844061,22.894363,-38.395344,-1.3063933
2.06674,1.3442532,-0.85641915,22.169872,-37.18033,-1.2650527
2.0014043,1.3017575,-0.8293453,21.469019,-36.004948,-1.2250607
1.9381943,1.2606443,-0.80315214,20.790966,-34.86781,-1.1863698
1.877035,1.220865,-0.7778089,20.134912,-33.767563,-1.1489341
1.8178552,1.1823732,-0.7532859,19.500092,-32.70293,-1.1127101
1.7605863,1.1451242,-0.7295547,18.885769,-31.67267,-1.0776558
1.7051624,1.1090752,-0.70658803,18.291239,-30.675604,-1.0437309
1.6515205,1.0741853,-0.6843598,17.715822,-29.710592,-1.0108966
1.5995997,1.0404149,-0.6628448,17.15887,-28.776546,-0.97911584
1.549342,1.0077262,-0.6420189,16.619757,-27.872417,-0.94835305
1.5006912,0.97608256,-0.6218589,16.09788,-26.997196,-0.91857386
1.4535933,0.9454491,-0.6023424,15.592663,-26.149914,-0.88974524
1.4079967,0.91579205,-0.583448,15.103548,-25.329638,-0.8618355
1.3638511,0.8870788,-0.5651549,14.63,-24.535467,-0.834814
1.3211087,0.85927826,-0.5474432,14.171504,-23.766539,-0.8086513
1.2797232,0.83236015,-0.5302938,13.727562,-23.022018,-0.78331923
1.2396498,0.8062955,-0.51368815,13.297695,-22.301104,-0.75879025
1.2008455,0.7810564,-0.49760836,12.881443,-21.603022,-0.73503816
1.1632689,0.7566157,-0.4820373,12.478359,-20.927025,-0.7120375
1.1268799,0.7329475,-0.46695837,12.088016,-20.272392,-0.6897638
1.09164,0.7100267,-0.4523556,11.709997,-19.638432,-0.6681934
1.0575118,0.68782896,-0.4382135,11.343905,-19.024471,-0.6473035
1.0244595,0.666331,-0.4245172,10.989353,-18.429865,-0.62707216
0.9924482,0.6455102,-0.41125235,10.645969,-17.853987,-0.6074781
0.96144456,0.6253447,-0.398405,10.313394,-17.296236,-0.58850074
0.9314161,0.60581356,-0.38596174,9.99128,-16.75603,-0.5701203
0.90233153,0.5868963,-0.37390965,9.67929,-16.232801,-0.5523176
0.8741607,0.5685734,-0.36223617,9.377102,-15.726013,-0.53507423
0.84687436,0.5508258,-0.3509292,9.084402,-15.235136,-0.51837224
0.8204443,0.5336351,-0.3399771,8.800888,-14.759664,-0.5021944
0.79484326,0.51698357,-0.32936847,8.526265,-14.299105,-0.48652396
0.7700448,0.50085413,-0.31909245,8.260253,-13.852984,-0.47134483
0.7460235,0.48523012,-0.30913845,8.002577,-13.420845,-0.45664135
0.7227546,0.47009552,-0.29949623,7.752972,-13.002241,-0.44239846
0.70021427,0.4554348,-0.29015598,7.511183,-12.596745,-0.42860153
0.67837954,0.441233,-0.28110805,7.2769623,-12.203941,-0.41523647
0.657228,0.42747557,-0.27234322,7.05007,-11.823428,-0.4022896
0.63673806,0.41414848,-0.2638526,6.830275,-11.454818,-0.3897477
0.6168889,0.40123814,-0.25562745,6.6173534,-11.0977335,-0.37759802
0.59766024,0.3887314,-0.24765944,6.411088,-10.751813,-0.36582813
0.57903254,0.37661552,-0.23994046,6.211269,-10.416704,-0.35442612
0.5609869,0.3648782,-0.23246267,6.0176935,-10.092065,-0.34338036
0.5435049,0.35350758,-0.22521847,5.830165,-9.777568,-0.33267966
0.52656895,0.34249207,-0.21820053,5.6484933,-9.472893,-0.32231313
0.5101619,0.33182052,-0.21140172,5.4724946,-9.1777315,-0.31227034
0.49426696,0.32148212,-0.20481516,5.3019905,-8.891785,-0.30254105
0.4788682,0.31146643,-0.19843419,5.136808,-8.614763,-0.29311547
0.46394998,0.3017633,-0.19225237,4.976781,-8.346387,-0.28398404
0.44949725,0.29236293,-0.18626343,4.8217473,-8.086385,-0.2751375
0.43549547,0.28325585,-0.18046133,4.6715503,-7.8344946,-0.266567
0.42193043,0.27443287,-0.17484024,4.526038,-7.590462,-0.25826386
0.4087885,0.26588506,-0.16939446,4.385065,-7.3540406,-0.25021964
0.3960564,0.25760382,-0.16411851,4.2484884,-7.1249924,-0.24242634
0.38372135,0.24958082,-0.15900709,4.1161704,-6.9030867,-0.23487604
0.37177086,0.24180797,-0.15405503,3.9879777,-6.6880994,-0.22756115
0.36019295,0.23427744,-0.14925736,3.8637817,-6.4798145,-0.2204743
0.34897596,0.22698165,-0.14460924,3.7434573,-6.278023,-0.21360837
0.3381086,0.21991329,-0.14010601,3.6268835,-6.0825205,-0.20695646
0.32757995,0.21306522,-0.13574313,3.5139427,-5.8931117,-0.20051186
0.31737942,0.20643057,-0.13151622,3.404522,-5.7096057,-0.19426812
0.3074968,0.20000269,-0.12742102,3.298511,-5.5318184,-0.18821894
0.29792207,0.19377509,-0.123453446,3.1958034,-5.359571,-0.18235825
0.28864568,0.18774152,-0.11960948,3.0962958,-5.1926904,-0.17668018
0.27965835,0.18189594,-0.11588529,2.9998887,-5.0310097,-0.17117901
0.27095097,0.17623249,-0.11227712,2.906485,-4.8743653,-0.16584924
0.2625149,0.17074546,-0.10878135,2.8159912,-4.7226014,-0.1606855
0.25434157,0.16542937,-0.10539448,2.7283163,-4.575565,-0.15568261
0.24642286,0.16027886,-0.10211311,2.6433725,-4.4331083,-0.15083556
0.2387508,0.15528879,-0.09893396,2.5610745,-4.2950892,-0.14613949
0.23131771,0.15045413,-0.09585382,2.48134,-4.1613693,-0.14158969
0.22411613,0.14577007,-0.09286962,2.4040887,-4.0318136,-0.1371816
0.21713883,0.14123188,-0.08997835,2.3292434,-3.9062934,-0.13291079
0.21037884,0.13683504,-0.087177135,2.2567291,-3.784682,-0.12877299
0.20382936,0.13257511,-0.08446315,2.186473,-3.6668582,-0.12476406
0.19748385,0.12844785,-0.08183368,2.1184049,-3.5527034,-0.12087997
0.19133593,0.12444911,-0.079286106,2.0524564,-3.4421034,-0.11711683
0.18537948,0.12057489,-0.076817855,1.9885614,-3.3349476,-0.113470875
0.17960848,0.11682132,-0.074426465,1.9266561,-3.2311282,-0.10993845
0.17401719,0.113184616,-0.072109535,1.8666785,-3.1305418,-0.10651602
0.16860001,0.109661154,-0.06986475,1.8085685,-3.0330875,-0.10320015
0.16335149,0.10624741,-0.06768986,1.7522677,-2.9386675,-0.09998753
0.1582664,0.10293995,-0.06558269,1.6977199,-2.8471873,-0.09687494
0.15333962,0.09973547,-0.06354113,1.6448706,-2.7585557,-0.09385926
0.14856625,0.09663076,-0.061563127,1.5936668,-2.6726832,-0.09093747
0.14394149,0.093622714,-0.059646714,1.5440571,-2.5894847,-0.08810666
0.13946071,0.09070832,-0.057789963,1.495992,-2.5088763,-0.08536398
0.13511945,0.087884665,-0.055991024,1.4494233,-2.4307775,-0.08270668
0.13091333,0.08514892,-0.054248087,1.4043044,-2.3551104,-0.08013213
0.12683818,0.08249835,-0.052559417,1.3605902,-2.2817988,-0.07763772
0.122889884,0.07993029,-0.050923314,1.3182371,-2.2107697,-0.075220965
0.11906451,0.077442184,-0.04933815,1.2772024,-2.1419518,-0.07287945
0.115358226,0.075031534,-0.047802337,1.2374451,-2.0752764,-0.070610836
0.11176733,0.07269593,-0.046314333,1.1989256,-2.0106766,-0.06841284
0.10828821,0.07043304,-0.044872653,1.1616052,-1.9480879,-0.06628328
0.104917414,0.0682406,-0.04347585,1.1254467,-1.8874477,-0.064220004
0.10165154,0.06611641,-0.042122535,1.0904138,-1.8286953,-0.062220965
0.09848735,0.06405834,-0.04081135,1.0564715,-1.7717718,-0.060284156
0.09542164,0.062064342,-0.03954098,1.0235858,-1.7166203,-0.05840764
0.09245138,0.060132418,-0.03831016,0.9917239,-1.6631858,-0.05658954
0.089573584,0.05826063,-0.03711765,0.9608538,-1.6114147,-0.054828037
0.08678537,0.056447115,-0.035962265,0.9309447,-1.5612551,-0.05312137
0.084083945,0.05469005,-0.034842845,0.90196663,-1.5126569,-0.05146783
0.08146662,0.052987687,-0.033758275,0.87389064,-1.4655716,-0.04986576
0.07893077,0.05133831,-0.032707464,0.84668857,-1.4199522,-0.048313566
0.076473854,0.04974028,-0.031689364,0.82033336,-1.3757526,-0.04680969
