ax,ay,az,gx,gy,gz
-0.17000155,3.740943,0.37454885,2.7745707,-4.106401,-12.318294
-0.3057939,5.0412483,0.1960887,-10.499594,-4.302038,-20.582474
-0.6784708,5.7039814,-0.18753791,-18.428278,-14.253274,-36.969097
-0.91312605,6.281487,-0.4074883,-21.059158,-32.056107,-57.93709
-0.69428676,6.9757175,0.06101691,-26.815187,-39.917423,-74.92646
-0.44799033,7.5998263,0.29965055,-36.225574,-45.614178,-87.101974
-0.37177536,8.03888,0.38876224,-47.87689,-49.8797,-97.04964
-0.37381425,8.322145,0.3657953,-59.969334,-52.754215,-106.47562
-0.42487618,8.589927,0.24125114,-73.298325,-56.567204,-118.60398
-0.49711502,8.797037,0.006617651,-85.7155,-61.412045,-132.10132
-0.51053596,8.813356,-0.3140271,-96.22282,-66.69422,-145.3642
-0.45621327,8.682373,-0.67328346,-104.77026,-72.127625,-158.67502
-0.26884726,8.281351,-0.98911643,-110.63417,-76.439644,-169.09344
0.0505769,7.777134,-1.2241613,-116.55134,-80.364716,-173.8706
0.47626153,7.1759343,-1.3602377,-122.41709,-82.954926,-175.887
0.92232466,6.490026,-1.4833823,-126.293335,-83.12178,-177.57854
1.4797876,5.702566,-1.5673493,-128.47353,-80.91805,-178.72939
2.1938138,4.770553,-1.5790969,-129.65128,-76.516525,-176.26234
2.9454672,3.8114088,-1.6016272,-129.6364,-70.32104,-168.2828
3.622296,2.7952945,-1.6719388,-127.07941,-63.05788,-158.3127
4.227066,1.8775407,-1.7003678,-122.40558,-55.01555,-146.90652
4.761368,1.1428949,-1.6329898,-117.35835,-46.25652,-134.67119
5.192887,0.5323176,-1.5221168,-112.59711,-36.659634,-121.84683
5.5410414,0.014733296,-1.402211,-108.38831,-25.519907,-107.7034
5.749667,-0.38137642,-1.3806417,-104.09412,-14.324529,-93.21834
5.8597507,-0.7352385,-1.4207166,-99.2338,-3.3061519,-78.136444
5.925997,-0.9690987,-1.4752572,-93.84217,7.4289083,-62.74854
5.9457097,-1.0304769,-1.5141435,-88.66284,17.906414,-48.09
5.896156,-0.96921957,-1.5645221,-83.33334,27.696241,-34.590717
5.733325,-0.8452987,-1.6414806,-78.19349,36.35198,-22.067179
5.5394897,-0.72505885,-1.72984,-73.45361,44.373634,-9.27783
5.3341527,-0.5175828,-1.8226178,-69.67016,51.868702,3.519493
5.1325626,-0.1782242,-1.8909883,-66.994286,59.64417,14.639336
4.930318,0.19100273,-2.0080588,-64.40735,66.663994,22.667747
4.668401,0.5059947,-2.1889508,-61.884754,72.34274,28.969501
4.3885374,0.790555,-2.3947494,-59.827335,76.49244,34.376278
4.106173,1.0683392,-2.6279714,-57.9154,79.25973,38.85886
3.8119783,1.3433435,-2.893684,-56.223167,80.55855,42.37003
3.4939198,1.6273926,-3.1865523,-54.506413,79.63861,43.763474
3.121391,1.9325194,-3.5239244,-52.448624,76.856,42.79706
2.7079809,2.2331161,-3.9178083,-50.885567,70.88019,39.992386
2.3022082,2.508494,-4.3330584,-50.214077,61.95335,36.013737
1.9441836,2.7584271,-4.8027673,-49.496296,50.324215,31.26479
1.6496338,2.9450278,-5.310846,-50.48883,35.122654,27.029842
1.3498636,3.0486295,-5.978144,-51.881245,15.950661,22.332441
1.0348952,3.135413,-6.746807,-51.382782,-6.265044,15.176518
0.8658742,3.2349772,-7.5240784,-47.989216,-30.176699,6.1248274
0.97453403,3.341164,-8.148983,-44.480194,-53.077343,-2.2787204
1.2087102,3.4313383,-8.684094,-39.852627,-75.028046,-11.05759
1.749192,3.5145624,-8.956209,-32.889328,-93.86702,-21.066761
2.5341206,3.6796048,-8.897988,-25.135077,-108.31205,-32.371986
3.5125432,3.749158,-8.513774,-18.811901,-118.086044,-42.027576
4.431723,3.6630626,-8.000113,-13.3204,-123.520584,-47.501156
5.215934,3.5370946,-7.4552994,-9.846266,-125.80099,-47.531086
5.8618917,3.4454272,-6.897155,-7.979348,-126.49021,-44.585606
6.42249,3.4001021,-6.3028607,-8.394824,-124.98072,-39.33348
6.834403,3.4001646,-5.752267,-9.872934,-121.03151,-33.321507
7.024112,3.4124491,-5.3384027,-10.825545,-115.812775,-28.452917
7.098072,3.3914933,-4.9889235,-11.59251,-109.437035,-24.693901
7.0821095,3.3195238,-4.7263565,-12.163234,-102.96778,-21.22552
7.039976,3.212153,-4.490134,-12.608753,-96.4114,-17.6098
7.020085,3.0925686,-4.237526,-13.256194,-89.1868,-13.420676
7.0052156,2.9906187,-3.9844253,-14.455128,-80.781334,-8.7499
6.7793403,2.8941894,-3.8559518,-13.989038,-78.17663,-8.467769
6.5612197,2.801071,-3.7318895,-13.538951,-75.66135,-8.195325
6.350545,2.711131,-3.6120617,-13.104228,-73.23193,-7.93218
6.1470227,2.6242447,-3.4963024,-12.684263,-70.884995,-7.6779695
5.9503746,2.5402932,-3.384453,-12.278483,-68.61733,-7.4323454
5.760337,2.4591634,-3.2763631,-11.886344,-66.42589,-7.1949773
5.576658,2.3807483,-3.1718903,-11.507325,-64.30777,-6.965552
5.399098,2.304946,-3.0708978,-11.140935,-62.260227,-6.7437706
5.2274303,2.2316587,-2.9732568,-10.786702,-60.280624,-6.529348
5.0614376,2.1607943,-2.8788433,-10.444179,-58.366463,-6.322014
4.900912,2.0922637,-2.7875397,-10.112938,-56.515347,-6.1215086
4.745656,2.0259829,-2.6992333,-9.79257,-54.724995,-5.927585
4.59548,1.9618709,-2.6138163,-9.482685,-52.99323,-5.7400074
4.450204,1.8998505,-2.531186,-9.18291,-51.317963,-5.5585494
4.3096538,1.8398477,-2.4512439,-8.892887,-49.697193,-5.382994
4.1736636,1.7817918,-2.3738956,-8.612274,-48.12901,-5.2131352
4.042075,1.7256149,-2.2990506,-8.340744,-46.611584,-5.048774
3.914735,1.6712519,-2.2266223,-8.07798,-45.14315,-4.8897195
3.791498,1.6186403,-2.1565275,-7.823683,-43.722027,-4.7357893
3.6722229,1.5677202,-2.0886862,-7.577561,-42.346596,-4.586808
3.5567749,1.5184339,-2.0230217,-7.3393364,-41.015297,-4.4426074
3.4450247,1.4707264,-1.9594605,-7.108742,-39.72664,-4.3030252
3.3368475,1.4245441,-1.8979316,-6.885521,-38.479187,-4.1679063
3.2321236,1.3798361,-1.8383666,-6.669425,-37.27155,-4.0371003
3.1307375,1.336553,-1.7807003,-6.4602165,-36.102406,-3.9104633
3.0325782,1.2946476,-1.7248693,-6.257667,-34.970474,-3.787857
2.9375389,1.254074,-1.6708128,-6.061555,-33.874516,-3.6691477
2.8455164,1.2147883,-1.6184722,-5.8716683,-32.81335,-3.5542064
2.7564116,1.1767483,-1.5677912,-5.6878023,-31.78583,-3.4429097
2.6701288,1.1399131,-1.5187153,-5.509759,-30.79085,-3.3351376
2.5865755,1.1042432,-1.471192,-5.337349,-29.827349,-3.230775
2.5056632,1.0697006,-1.4251707,-5.1703877,-28.8943,-3.1297112
2.4273057,1.0362487,-1.3806025,-5.008699,-27.990713,-3.0318384
2.3514204,1.0038522,-1.3374405,-4.852111,-27.115635,-2.9370534
2.2779272,0.972477,-1.2956389,-4.700459,-26.26814,-2.8452563
2.206749,0.9420901,-1.2551541,-4.5535836,-25.44734,-2.7563508
2.137811,0.9126596,-1.2159437,-4.4113317,-24.652376,-2.6702435
2.0710413,0.8841548,-1.1779666,-4.2735543,-23.882418,-2.5868447
2.0063708,0.85654604,-1.1411831,-4.1401076,-23.136662,-2.5060675
1.9437318,0.82980466,-1.1055554,-4.0108533,-22.414333,-2.4278278
1.8830595,0.80390286,-1.0710462,-3.885657,-21.714685,-2.3520448
1.8242912,0.7788139,-1.03762,-3.7643898,-21.036993,-2.27864
1.7673662,0.75451183,-1.0052422,-3.6469262,-20.380556,-2.2075377
1.7122259,0.7309717,-0.9738795,-3.5331452,-19.7447,-2.1386642
1.6588135,0.7081693,-0.94349957,-3.4229295,-19.128769,-2.0719492
1.6070741,0.68608105,-0.9140713,-3.3161666,-18.532133,-2.007324
1.5569549,0.66468453,-0.8855645,-3.2127464,-17.954178,-1.9447223
1.5084045,0.6439577,-0.85795,-3.1125636,-17.394314,-1.88408
1.4613731,0.6238794,-0.8311995,-3.0155153,-16.851967,-1.8253354
1.415813,0.6044291,-0.8052858,-2.9215028,-16.326586,-1.7684282
1.3716775,0.58558714,-0.7801824,-2.83043,-15.817633,-1.7133006
1.3289218,0.5673342,-0.75586385,-2.7422044,-15.324592,-1.6598964
1.2875023,0.5496517,-0.7323053,-2.6567361,-14.846959,-1.6081612
1.247377,0.53252167,-0.70948285,-2.5739386,-14.384251,-1.5580425
1.2085053,0.5159268,-0.6873734,-2.4937272,-13.935997,-1.5094895
1.1708474,0.49985018,-0.6659544,-2.416021,-13.501742,-1.4624529
1.1343656,0.48427558,-0.64520425,-2.3407414,-13.081048,-1.416885
1.0990226,0.4691872,-0.62510186,-2.267812,-12.673487,-1.3727397
1.0647829,0.4545698,-0.60562694,-2.1971588,-12.278647,-1.3299723
1.0316116,0.44040856,-0.58675987,-2.1287107,-11.89613,-1.2885396
0.9994754,0.42668918,-0.56848145,-2.0623982,-11.525549,-1.2483997
0.9683418,0.41339785,-0.55077326,-1.9981548,-11.166529,-1.2095122
0.93817943,0.40052113,-0.5336175,-1.9359152,-10.818708,-1.1718377
0.90895784,0.38804603,-0.51699686,-1.8756169,-10.481736,-1.1353383
0.8806475,0.37596,-0.5008945,-1.8171992,-10.1552725,-1.0999771
0.85322,0.3642508,-0.48529428,-1.760603,-9.838989,-1.0657187
0.82664764,0.35290673,-0.47018045,-1.7057714,-9.532568,-1.0325283
0.8009037,0.3419163,-0.45553783,-1.6526493,-9.235699,-1.0003728
0.77596223,0.33126846,-0.44135165,-1.601183,-8.948084,-0.9692195
0.7517982,0.32095253,-0.42760763,-1.5513211,-8.669435,-0.9390373
0.72838736,0.31095812,-0.414292,-1.5030133,-8.399469,-0.9097958
0.70570606,0.3012752,-0.40139136,-1.4562109,-8.137918,-0.8814657
0.68373156,0.291894,-0.3888927,-1.4108669,-7.884517,-0.85401833
0.6624418,0.28280511,-0.37678352,-1.366936,-7.639013,-0.82742625
0.6418154,0.27399942,-0.36505166,-1.3243737,-7.4011574,-0.80166274
0.62183166,0.26546812,-0.3536853,-1.2831377,-7.1707125,-0.7767019
0.6024705,0.25720257,-0.34267306,-1.2431862,-6.9474473,-0.7525188
0.58371246,0.24919453,-0.33200386,-1.2044795,-6.7311378,-0.729089
0.5655388,0.24143595,-0.32166705,-1.1669785,-6.521566,-0.70638907
0.54793125,0.23391904,-0.3116522,-1.1306455,-6.3185225,-0.68439627
0.5308721,0.22663628,-0.30194932,-1.0954443,-6.1218038,-0.66308844
0.51434433,0.21958035,-0.29254866,-1.0613396,-5.931212,-0.6424443
0.4983313,0.21274418,-0.28344077,-1.0282971,-5.7465563,-0.6224432
0.482817,0.20612092,-0.27461657,-0.9962836,-5.5676517,-0.603065
0.46778587,0.19970393,-0.26606715,-0.9652672,-5.3943186,-0.58429027
0.45322287,0.1934868,-0.257784,-0.93521667,-5.2263837,-0.5661003
0.43911335,0.18746325,-0.24975881,-0.90610194,-5.0636787,-0.5484767
0.42544323,0.1816273,-0.24198352,-0.8778939,-4.90604,-0.531402
0.41219878,0.17597307,-0.23445034,-0.85056424,-4.7533107,-0.51485896
0.39936677,0.17049491,-0.22715174,-0.8240856,-4.6053367,-0.49883103
0.38693428,0.16518733,-0.2200804,-0.79843146,-4.461971,-0.4833022
0.37488896,0.16004501,-0.21322927,-0.77357614,-4.3230686,-0.46825692
0.36321867,0.15506282,-0.20659144,-0.74949473,-4.1884913,-0.45368007
0.35191172,0.15023574,-0.2001603,-0.7261631,-4.0581045,-0.4395571
0.34095687,0.14555897,-0.19392937,-0.7035579,-3.9317775,-0.42587388
0.33034307,0.1410278,-0.18789247,-0.68165654,-3.8093834,-0.41261667
0.32005975,0.1366377,-0.18204351,-0.6604371,-3.6908002,-0.39977223
0.31009656,0.1323843,-0.17637666,-0.6398783,-3.575909,-0.38732767
0.3004436,0.12826331,-0.17088623,-0.61995953,-3.4645946,-0.37527055
0.2910911,0.124270625,-0.16556676,-0.6006609,-3.3567457,-0.3635888
0.28202984,0.12040224,-0.16041288,-0.5819631,-3.2522547,-0.35227078
0.27325064,0.11665429,-0.15541945,-0.5638474,-3.1510165,-0.34130508
0.2647448,0.11302302,-0.15058148,-0.54629576,-3.0529304,-0.3306808
0.2565037,0.109504804,-0.14589413,-0.52929044,-2.9578977,-0.32038724
0.2485192,0.10609611,-0.1413527,-0.5128146,-2.8658233,-0.31041414
0.24078324,0.10279353,-0.13695265,-0.4968516,-2.7766156,-0.3007515
0.23328812,0.099593766,-0.13268958,-0.48138556,-2.6901848,-0.2913897
0.22602634,0.09649361,-0.12855922,-0.46640098,-2.6064448,-0.28231934
0.21899061,0.09348997,-0.124557436,-0.4518829,-2.5253117,-0.27353132
0.21217391,0.09057983,-0.12068023,-0.43781677,-2.4467041,-0.26501688
0.2055694,0.08776028,-0.11692372,-0.4241885,-2.3705437,-0.25676748
0.1991705,0.0850285,-0.113284156,-0.4109845,-2.2967541,-0.2487749
0.19297078,0.08238176,-0.109757885,-0.3981915,-2.2252614,-0.24103113
0.18696406,0.079817414,-0.106341384,-0.38579676,-2.1559944,-0.2335284
0.18114434,0.0773329,-0.10303124,-0.37378785,-2.0888836,-0.22625925
0.17550577,0.07492572,-0.09982414,-0.36215279,-2.023862,-0.21921636
0.17004272,0.07259347,-0.096716866,-0.35087988,-1.9608643,-0.21239272
