ax,ay,az,gx,gy,gz
0.5527323,4.045491,-0.33909398,-32.515747,-30.40664,16.0356
0.81825197,4.3730664,-0.06126896,-29.906258,-31.39024,6.737538
0.97458285,4.6994424,0.07454765,-29.354208,-31.54205,-1.6529928
1.0405382,4.974743,0.09840473,-27.741364,-32.23264,-9.600919
0.94572425,5.268782,-0.032490235,-25.001476,-37.205067,-19.086905
0.8026211,5.6519275,-0.1095274,-26.26789,-43.593132,-28.877304
0.6478161,6.0397277,-0.18067303,-31.90963,-50.525375,-37.073658
0.6000863,6.4334726,-0.14829238,-41.314495,-55.098175,-42.523823
0.5890589,6.7258377,-0.14994588,-52.493217,-57.405685,-45.59991
0.5285418,6.8308825,-0.2741316,-63.802868,-58.15467,-49.118427
0.45648274,6.82082,-0.44984996,-71.78258,-58.2241,-55.410645
0.46083495,6.8012786,-0.5727173,-77.36655,-57.009674,-64.73451
0.5915194,6.6910276,-0.6733488,-82.34965,-55.032715,-74.2386
0.8560377,6.4236155,-0.776548,-88.77735,-53.494717,-80.505424
1.1750816,6.0411825,-0.8728666,-96.55045,-51.922127,-81.43744
1.4271505,5.6136875,-1.0203203,-103.35757,-50.559593,-81.1832
1.6416017,5.1359553,-1.1626592,-107.3104,-48.253002,-82.33147
1.8456384,4.611337,-1.2776377,-108.18357,-44.766712,-84.39413
2.0185702,4.089216,-1.3726814,-107.99396,-41.0853,-85.487
2.1688826,3.5474076,-1.4762943,-107.904144,-37.948868,-83.54748
2.2611516,3.0307248,-1.6021793,-107.32068,-35.65714,-80.44867
2.3255966,2.560783,-1.7082423,-106.51826,-33.746532,-77.16704
2.3804257,2.0828373,-1.8000636,-105.10105,-31.333715,-74.201035
2.4101849,1.5806296,-1.8972965,-102.507065,-28.316095,-71.47096
2.4125454,1.0808507,-2.0078273,-98.48865,-25.320156,-68.06711
2.3857992,0.6447385,-2.1013355,-93.50112,-22.968567,-64.331474
2.3807201,0.274222,-2.1331995,-87.96638,-21.131884,-60.552643
2.4065175,-0.017872073,-2.092797,-82.25603,-19.329222,-56.897205
2.452703,-0.26110247,-1.9981513,-76.406006,-17.31141,-53.266823
2.5335786,-0.46760336,-1.8536377,-70.74452,-14.478815,-48.89874
2.6343586,-0.6180802,-1.6870819,-65.48154,-11.164345,-43.97932
2.715234,-0.74616617,-1.5415337,-60.455395,-7.710071,-38.603706
2.7957861,-0.8413687,-1.4005595,-55.783806,-4.411685,-33.20177
2.9248831,-0.90097284,-1.2216815,-51.551006,-0.7697573,-27.566809
3.072966,-0.93231386,-1.0346637,-47.5224,3.4532084,-21.800648
3.186937,-0.96681833,-0.87531066,-43.669945,8.29896,-16.029547
3.2642105,-0.964102,-0.74102956,-39.718983,12.729018,-10.723163
3.3534083,-0.9010525,-0.61067665,-35.855556,16.539267,-5.7969565
3.474564,-0.80072165,-0.4618397,-32.890827,20.653296,-0.668065
3.6071672,-0.6633178,-0.3362788,-31.607815,25.67621,5.2014337
3.7246485,-0.5252903,-0.2742122,-31.256771,31.579353,11.660253
3.789803,-0.37444216,-0.29013136,-31.64623,37.883926,18.254633
3.7801023,-0.23094219,-0.38411155,-32.226845,44.51301,24.507395
3.7041614,-0.07917556,-0.55689746,-32.45071,51.108334,30.223906
3.5760171,0.09394519,-0.78311205,-31.515707,57.054977,35.119873
3.439936,0.28687856,-1.0257667,-29.788507,62.947487,39.528496
3.279577,0.5045749,-1.3185391,-28.174662,67.937546,43.293926
3.0682826,0.72392416,-1.6504551,-26.749872,71.619606,46.020916
2.8166904,0.9433241,-2.0152495,-25.52364,73.4479,47.760586
2.5343103,1.1845437,-2.3947005,-24.016764,72.159966,47.604336
2.2427273,1.4286436,-2.7764697,-23.02148,68.301704,46.492805
1.9161133,1.6717099,-3.199601,-22.935076,60.994778,44.412117
1.5445216,1.8962492,-3.6913679,-23.318888,49.83051,40.981163
1.1479132,2.1046982,-4.276413,-23.588785,34.422516,35.892597
0.7639997,2.3147707,-4.942265,-22.340279,13.867387,26.99184
0.55843407,2.5608366,-5.6582875,-19.183916,-9.200169,16.279629
0.5029456,2.8171344,-6.3694453,-15.137101,-34.07392,4.7015905
0.6402984,3.067318,-7.042979,-10.944467,-59.261112,-6.378113
1.0199084,3.1995866,-7.6320434,-6.2380157,-83.563995,-16.544472
1.7925059,3.2287853,-7.880051,-1.70476,-102.24782,-24.711403
1.7342812,3.1239069,-7.6240892,-1.6493856,-98.926575,-23.90872
1.6780947,3.0227,-7.3770876,-1.5959495,-95.7216,-23.134136
1.6238618,2.9250119,-7.1386733,-1.5443712,-92.62805,-22.386482
1.5715021,2.830698,-6.908495,-1.4945748,-89.641365,-21.664656
1.5209402,2.7396224,-6.6862187,-1.4464879,-86.75722,-20.967611
1.4721042,2.6516557,-6.4715304,-1.4000424,-83.97152,-20.29436
1.4249262,2.5666754,-6.264131,-1.355174,-81.2804,-19.643967
1.3793416,2.4845653,-6.0637364,-1.3118209,-78.680176,-19.015541
1.3352894,2.4052155,-5.870078,-1.269925,-76.16736,-18.408237
1.2927113,2.3285205,-5.6828995,-1.229431,-73.73862,-17.821257
1.2515516,2.254381,-5.5019574,-1.1902863,-71.39079,-17.253832
1.2117578,2.1827016,-5.327019,-1.1524404,-69.12088,-16.705236
1.1732793,2.1133916,-5.157864,-1.1158456,-66.926,-16.174774
1.1360683,2.0463645,-4.9942803,-1.080456,-64.80342,-15.661785
1.1000788,1.9815378,-4.8360662,-1.0462283,-62.75051,-15.165635
1.0652668,1.9188323,-4.6830297,-1.0131205,-60.76478,-14.68572
1.0315907,1.8581724,-4.5349855,-0.9810928,-58.843826,-14.221462
0.99901015,1.799486,-4.3917575,-0.9501071,-56.98537,-13.772307
0.9674866,1.7427037,-4.2531767,-0.92012674,-55.18721,-13.337726
0.9369834,1.6877592,-4.119081,-0.8911167,-53.44725,-12.91721
0.90746504,1.6345887,-3.9893155,-0.8630433,-51.76347,-12.510271
0.8788977,1.5831313,-3.8637304,-0.8358744,-50.133938,-12.116444
0.85124886,1.5333282,-3.742183,-0.80957896,-48.556797,-11.735278
0.8244872,1.4851233,-3.6245358,-0.78412735,-47.030262,-11.366343
0.7985827,1.4384623,-3.5106566,-0.75949085,-45.55262,-11.009224
0.7735064,1.3932931,-3.4004185,-0.73564214,-44.122223,-10.663524
0.7492306,1.3495659,-3.2936995,-0.71255463,-42.737488,-10.328858
0.7257285,1.3072324,-3.1903818,-0.6902031,-41.396885,-10.00486
0.7029745,1.2662461,-3.0903525,-0.6685628,-40.098953,-9.691174
0.6809436,1.2265626,-2.9935024,-0.6476104,-38.842274,-9.387458
0.6596121,1.1881388,-2.8997269,-0.62732315,-37.625484,-9.093382
0.63895696,1.1509334,-2.8089244,-0.60767907,-36.447277,-8.808631
0.6189559,1.1149062,-2.7209978,-0.58865714,-35.30638,-8.532898
0.5995877,1.0800188,-2.6358528,-0.570237,-34.20158,-8.265888
0.5808316,1.0462339,-2.553399,-0.55239904,-33.1317,-8.007318
0.5626677,1.013516,-2.473549,-0.5351243,-32.0956,-7.7569118
0.54507697,0.98183024,-2.3962178,-0.5183946,-31.092188,-7.5144057
0.52804065,0.95114326,-2.3213243,-0.50219226,-30.120407,-7.2795444
0.511541,0.92142296,-2.24879,-0.4865003,-29.179237,-7.0520806
0.49556068,0.8926381,-2.1785388,-0.47130224,-28.267689,-6.8317766
0.480083,0.8647586,-2.1104972,-0.45658222,-27.384815,-6.618402
0.46509185,0.83775556,-2.0445945,-0.4423249,-26.529692,-6.4117346
0.45057166,0.81160074,-1.9807622,-0.4285155,-25.701433,-6.2115602
0.43650737,0.7862672,-1.918934,-0.41513968,-24.899181,-6.0176706
0.42288443,0.76172864,-1.8590461,-0.40218362,-24.122105,-5.8298655
0.4096888,0.73795974,-1.8010366,-0.38963392,-23.3694,-5.6479506
0.39690685,0.714936,-1.7448457,-0.37747765,-22.640295,-5.4717393
0.38452545,0.69263375,-1.6904159,-0.36570236,-21.934036,-5.30105
0.3725319,0.67103016,-1.6376908,-0.35429588,-21.2499,-5.1357074
0.36091387,0.650103,-1.5866168,-0.3432466,-20.587189,-4.975542
0.3496595,0.62983084,-1.5371413,-0.33254313,-19.945219,-4.8203897
0.33875728,0.610193,-1.4892141,-0.3221746,-19.323338,-4.6700926
0.3281961,0.5911695,-1.4427859,-0.31213042,-18.720907,-4.524496
0.31796515,0.5727408,-1.3978095,-0.3024003,-18.137316,-4.383453
0.30805406,0.55488825,-1.3542393,-0.29297435,-17.571968,-4.246819
0.29845273,0.53759366,-1.3120308,-0.283843,-17.02429,-4.1144557
0.2891514,0.52083945,-1.271141,-0.274997,-16.493725,-3.9862278
0.2801406,0.50460863,-1.2315288,-0.2664273,-15.979734,-3.8620055
0.27141127,0.4888847,-1.1931535,-0.25812528,-15.481796,-3.741663
0.26295447,0.47365177,-1.1559765,-0.25008246,-14.999406,-3.6250782
0.25476173,0.45889437,-1.1199603,-0.24229075,-14.532075,-3.5121331
0.24682467,0.44459763,-1.0850682,-0.23474224,-14.079332,-3.4027135
0.23913532,0.43074706,-1.051265,-0.2274293,-13.6407175,-3.2967086
0.23168592,0.4173287,-1.0185167,-0.22034456,-13.21579,-3.1940114
0.22446893,0.4043289,-0.9867899,-0.21348085,-12.804119,-3.0945182
0.21747705,0.3917347,-0.9560529,-0.20683123,-12.405291,-2.9981287
0.21070327,0.37953326,-0.92627454,-0.20038903,-12.018901,-2.9047456
0.20414072,0.36771235,-0.8974249,-0.19414772,-11.644561,-2.8142745
0.19778281,0.35626006,-0.8694748,-0.18810105,-11.281895,-2.7266247
0.19162314,0.3451648,-0.8423962,-0.1822429,-10.930535,-2.6417077
0.1856555,0.3344155,-0.8161618,-0.17656739,-10.59013,-2.559438
0.17987388,0.32400125,-0.7907452,-0.17106879,-10.260336,-2.479733
0.17427248,0.31391162,-0.76612085,-0.1657416,-9.940822,-2.4025123
0.16884567,0.30413646,-0.742264,-0.16058041,-9.631267,-2.3276985
0.16358797,0.29466593,-0.7191506,-0.1555801,-9.331358,-2.2552161
0.15849411,0.28549054,-0.69675744,-0.1507356,-9.040795,-2.1849926
0.153559,0.27660108,-0.6750621,-0.14604206,-8.759287,-2.1169572
0.14877765,0.26798856,-0.6540428,-0.14149475,-8.486549,-2.0510418
0.14414527,0.2596444,-0.6336783,-0.13708913,-8.22231,-1.9871799
0.1396572,0.25156018,-0.6139483,-0.13282077,-7.9663024,-1.9253076
0.13530895,0.24372782,-0.5948329,-0.12868537,-7.7182703,-1.8653629
0.13109615,0.23613943,-0.57631296,-0.1246788,-7.477965,-1.8072855
0.12701458,0.22878744,-0.55837,-0.12079703,-7.245145,-1.7510172
0.12306015,0.22166443,-0.5409858,-0.11703617,-7.0195765,-1.6965015
0.119228885,0.2147633,-0.52414316,-0.11339245,-6.8010345,-1.6436839
0.115516946,0.2080771,-0.5078251,-0.10986222,-6.5892987,-1.5925113
0.11192062,0.20159914,-0.49201524,-0.10644194,-6.384157,-1.5429324
0.10843629,0.19532293,-0.47669774,-0.10312817,-6.185405,-1.4948976
0.10506047,0.18924217,-0.4618573,-0.099917606,-5.9928417,-1.4483588
0.10178978,0.18335077,-0.44747898,-0.09680702,-5.806276,-1.4032692
0.09862094,0.17764285,-0.43354842,-0.0937933,-5.6255193,-1.3595837
0.09555078,0.17211266,-0.42005166,-0.09087343,-5.450392,-1.3172586
0.09257622,0.16675468,-0.40697515,-0.08804447,-5.2807174,-1.2762514
0.089694284,0.16156353,-0.39430586,-0.08530361,-5.1163263,-1.2365212
0.08690208,0.15653403,-0.38203102,-0.08264809,-4.957054,-1.1980281
0.08419682,0.15166113,-0.3701384,-0.08007526,-4.802741,-1.1607335
0.08157579,0.14693995,-0.35861608,-0.07758253,-4.6532326,-1.1246
0.07903637,0.14236575,-0.3474525,-0.07516742,-4.5083795,-1.0895917
0.07657601,0.137934,-0.3366365,-0.0728275,-4.3680363,-1.0556734
0.074192256,0.13364021,-0.32615724,-0.07056043,-4.2320623,-1.022811
0.07188272,0.12948011,-0.31600428,-0.06836395,-4.100322,-0.9909718
0.069645084,0.12544952,-0.3061674,-0.066235855,-3.9726832,-0.9601239
0.067477114,0.121544436,-0.29663676,-0.06417401,-3.8490183,-0.93023634
0.06537664,0.11776091,-0.28740284,-0.062176354,-3.7292035,-0.90127933
0.06334156,0.11409518,-0.2784564,-0.060240895,-3.6131186,-0.8732238
0.061369833,0.11054358,-0.26978847,-0.058365688,-3.5006478,-0.8460417
0.05945949,0.107102536,-0.26139042,-0.05654886,-3.3916783,-0.8197058
0.05760862,0.10376862,-0.2532538,-0.054788593,-3.2861013,-0.79418975
0.05581537,0.10053849,-0.24537045,-0.05308312,-3.183811,-0.76946807
0.054077942,0.09740892,-0.23773254,-0.051430747,-3.084705,-0.74551606
0.052394606,0.09437678,-0.2303324,-0.04982981,-2.9886844,-0.7223096
0.05076367,0.09143903,-0.22316264,-0.048278715,-2.8956528,-0.69982564
0.049183507,0.08859273,-0.21621607,-0.0467759,-2.8055174,-0.6780416
0.047652535,0.08583503,-0.20948574,-0.04531987,-2.718188,-0.65693563
0.04616922,0.08316319,-0.20296493,-0.043909166,-2.6335769,-0.6364867
0.04473208,0.08057451,-0.19664711,-0.04254238,-2.5516,-0.6166744
0.043339677,0.07806642,-0.19052596,-0.041218136,-2.4721746,-0.5974788
0.041990623,0.0756364,-0.18459535,-0.039935116,-2.395222,-0.5788808
0.04068356,0.07328203,-0.17884937,-0.03869204,-2.320665,-0.56086165
0.039417185,0.07100095,-0.17328224,-0.037487652,-2.2484283,-0.54340345
