ax,ay,az,gx,gy,gz
-8.63917,-0.9618269,-17.827435,-58.150528,-37.564888,-18.477442
-7.4183807,-1.8352734,-16.998652,-99.075455,-82.24944,-21.742458
-6.1947513,-2.9494612,-16.016016,-107.828255,-105.57219,-9.528578
-5.1000323,-3.4350467,-15.928126,-115.393974,-127.347046,3.7565386
-3.9076948,-3.9081817,-15.554598,-113.68845,-143.94852,12.1558275
-2.8745918,-4.475451,-15.181981,-93.470146,-155.13556,19.446846
-1.7922065,-5.1098094,-14.62549,-67.45437,-161.27931,29.024008
-0.90736854,-5.3852925,-14.063578,-45.125668,-164.42091,41.72152
-0.29539645,-5.314544,-13.49599,-28.970423,-168.03113,56.127632
0.15104072,-4.8652396,-12.836277,-16.039846,-172.32741,69.17484
0.6529512,-4.1204143,-11.878687,-4.182335,-175.52457,77.34801
1.2599906,-2.9841905,-10.52878,6.1162715,-175.80959,82.925735
1.8560286,-1.4487479,-9.078267,8.37093,-174.3199,85.62833
2.4078882,0.16124882,-7.541052,5.4239445,-170.31491,85.28042
2.866848,1.7262776,-6.0860744,-0.8579404,-163.60765,82.26765
3.226305,3.1617718,-4.8075676,-9.71005,-152.9279,75.588104
3.3938868,4.3873854,-3.9375446,-19.950882,-142.24207,67.21185
3.4452152,5.315458,-3.3393054,-31.651669,-132.64674,57.80272
3.457458,5.91031,-2.9580357,-42.93353,-123.98872,47.248955
3.5088117,6.2191253,-2.6868007,-52.530582,-115.982285,35.130394
3.6393437,6.3079424,-2.4632206,-59.796257,-107.48373,20.281221
3.8306608,6.0503936,-2.2395442,-65.7202,-98.80507,5.548793
4.022584,5.5235868,-2.0342479,-70.48896,-90.37346,-6.8661084
4.1747212,4.8163424,-1.8530208,-74.966446,-82.56843,-14.902677
4.28798,3.9877386,-1.6820143,-78.86999,-75.506676,-19.830198
4.3974953,3.0586092,-1.4948748,-80.39045,-67.599686,-22.945833
4.4989643,2.066589,-1.344805,-79.521675,-58.52349,-24.858772
4.556828,1.0896342,-1.3024838,-77.30633,-49.000546,-24.506197
4.5240207,0.23801824,-1.3667574,-73.96408,-39.651737,-21.350767
4.3637705,-0.41302475,-1.5401003,-69.551926,-31.368412,-16.377094
4.0803776,-0.8335094,-1.7880472,-63.75947,-24.85706,-11.161503
3.7112718,-1.0443395,-2.083855,-57.186657,-19.623749,-6.624527
3.333706,-1.1327716,-2.3926604,-49.785492,-15.57987,-2.7393794
2.9432604,-1.0947161,-2.7303684,-42.49895,-12.933681,1.180573
2.4862769,-0.8831142,-3.1126862,-35.49635,-12.552293,4.9509406
2.0053337,-0.5132736,-3.5309188,-30.580128,-16.595848,6.8352537
1.6382928,-0.095855765,-3.8456795,-25.85229,-22.57277,6.7844863
1.3873322,0.30259386,-4.049441,-22.527636,-29.340794,5.773644
1.2092777,0.6664534,-4.1708913,-19.297613,-35.674786,4.6603575
1.0628583,1.0300101,-4.2965717,-17.391272,-42.43156,3.3718042
0.9500467,1.3454695,-4.4123363,-16.699734,-50.207462,1.3448741
0.9413642,1.493923,-4.4379005,-16.564833,-57.932526,-0.48117277
1.0111909,1.5282766,-4.3678865,-16.846117,-64.97511,-1.4103472
1.1353714,1.4638983,-4.2148523,-16.480148,-70.71311,-1.1797721
1.2788622,1.39138,-4.015247,-16.172485,-75.33485,-0.031889603
1.4389598,1.3417091,-3.768966,-17.139696,-78.814735,1.5811623
1.6225171,1.2286794,-3.4400299,-17.314945,-81.13567,2.8137562
1.7951547,1.1135182,-3.0807934,-17.617043,-82.82224,4.1009626
2.0047617,0.97521377,-2.6582687,-17.81131,-83.45908,5.5801144
2.257528,0.82663685,-2.1661015,-17.44747,-82.402885,7.485138
2.5390317,0.6901548,-1.640998,-15.765913,-78.62733,9.346812
2.4538174,0.66699195,-1.5859232,-15.236781,-75.98845,9.033116
2.3718424,0.64470965,-1.5329419,-14.727763,-73.44989,8.731346
2.2929485,0.62326485,-1.4819522,-14.237878,-71.00675,8.440918
2.2169886,0.60261756,-1.4328586,-13.766211,-68.654465,8.16129
2.1438248,0.58273035,-1.3855722,-13.311907,-66.38877,7.891956
2.0733287,0.56356823,-1.34001,-12.8741665,-64.20569,7.6324425
2.0053797,0.5450985,-1.2960941,-12.452244,-62.101486,7.382305
1.939865,0.5272904,-1.2537513,-12.045435,-60.07266,7.141129
1.8766781,0.5101151,-1.2129132,-11.653081,-58.115925,6.9085226
1.8157194,0.49354535,-1.173515,-11.274563,-56.228188,6.684118
1.7568945,0.47755572,-1.1354959,-10.909294,-54.406532,6.467569
1.7001148,0.46212196,-1.0987988,-10.5567255,-52.648212,6.2585487
1.6452966,0.44722137,-1.0633692,-10.216336,-50.950626,6.056749
1.5923604,0.43283233,-1.0291561,-9.887632,-49.31133,5.8618774
1.541231,0.4189345,-0.9961108,-9.570149,-47.727985,5.673658
1.4918377,0.40550846,-0.96418744,-9.263446,-46.1984,5.4918284
1.4441127,0.39253592,-0.93334234,-8.967101,-44.720474,5.31614
1.3979918,0.37999946,-0.90353405,-8.680717,-43.292233,5.146358
1.3534142,0.36788246,-0.87472314,-8.403916,-41.911777,4.982257
1.3103218,0.35616916,-0.84687215,-8.136337,-40.577316,4.8236227
1.2686594,0.34484455,-0.81994534,-7.8776374,-39.287136,4.670253
1.228374,0.33389428,-0.79390866,-7.627489,-38.039604,4.5219526
1.1894157,0.32330468,-0.7687295,-7.3855805,-36.83316,4.378537
1.1517361,0.31306273,-0.7443769,-7.1516123,-35.666325,4.2398295
1.1152896,0.3031559,-0.7208212,-6.9253006,-34.537666,4.1056604
1.0800321,0.29357225,-0.6980339,-6.706372,-33.44583,3.9758687
1.0459216,0.2843004,-0.675988,-6.4945655,-32.389515,3.8502994
1.0129178,0.27532938,-0.6546574,-6.289631,-31.367474,3.728804
0.9809822,0.2666487,-0.63401717,-6.0913296,-30.37851,3.611241
0.9500777,0.2582483,-0.61404335,-5.8994308,-29.421478,3.497474
0.92016894,0.25011855,-0.59471303,-5.7137146,-28.49528,3.3873723
0.89122176,0.24225019,-0.5760042,-5.5339694,-27.598858,3.2808104
0.8632034,0.2346343,-0.5578957,-5.3599916,-26.731201,3.1776679
0.83608246,0.22726233,-0.54036725,-5.1915865,-25.891335,3.077829
0.80982864,0.22012608,-0.5233992,-5.0285654,-25.078321,2.981182
0.7844129,0.21321762,-0.50697273,-4.8707485,-24.291262,2.8876204
0.7598072,0.20652935,-0.49106988,-4.7179613,-23.529287,2.7970407
0.7359847,0.20005395,-0.47567317,-4.5700374,-22.791563,2.709344
0.7129193,0.19378437,-0.46076584,-4.4268146,-22.077288,2.6244345
0.69058615,0.1877138,-0.4463317,-4.288139,-21.385687,2.5422206
0.66896105,0.18183571,-0.43235523,-4.153859,-20.716013,2.462613
0.6480208,0.17614378,-0.41882136,-4.023833,-20.067547,2.385527
0.62774307,0.17063192,-0.4057157,-3.89792,-19.439598,2.3108795
0.60810626,0.16529427,-0.39302424,-3.7759864,-18.831495,2.2385914
0.58908945,0.16012517,-0.38073355,-3.6579032,-18.242594,2.1685858
0.57067263,0.15511914,-0.3688306,-3.5435455,-17.672272,2.1007888
0.55283636,0.15027092,-0.35730284,-3.4327927,-17.119928,2.035129
0.53556186,0.1455754,-0.3461382,-3.3255281,-16.584982,1.9715375
0.51883113,0.14102769,-0.335325,-3.22164,-16.066874,1.9099475
0.50262666,0.13662302,-0.32485193,-3.1210198,-15.565063,1.8502947
0.4869316,0.13235681,-0.31470805,-3.0235622,-15.079026,1.7925172
0.47172955,0.12822463,-0.30488285,-2.9291666,-14.608258,1.7365546
0.45700485,0.12422218,-0.29536614,-2.8377347,-14.152271,1.6823493
0.4427422,0.12034534,-0.28614807,-2.749172,-13.710594,1.6298449
0.42892691,0.1165901,-0.27721912,-2.663387,-13.28277,1.5789875
0.41554475,0.11295258,-0.26857013,-2.5802915,-12.868359,1.5297244
0.40258196,0.109429054,-0.26019216,-2.4998,-12.466933,1.482005
0.3900252,0.106015906,-0.25207663,-2.42183,-12.078083,1.4357804
0.37786162,0.10270962,-0.24421519,-2.346301,-11.701408,1.3910033
0.36607876,0.09950683,-0.23659983,-2.2731366,-11.336524,1.3476276
0.35466462,0.09640426,-0.22922277,-2.2022612,-10.983056,1.3056093
0.3436075,0.093398735,-0.22207646,-2.1336029,-10.640646,1.2649053
0.33289614,0.09048719,-0.21515362,-2.0670917,-10.308942,1.2254741
0.32251963,0.087666675,-0.2084472,-2.0026596,-9.987609,1.1872755
0.31246746,0.0849343,-0.20195037,-1.9402413,-9.676318,1.1502709
0.30272934,0.08228731,-0.19565655,-1.8797733,-9.374753,1.1144226
0.29329544,0.079723,-0.18955934,-1.8211943,-9.082609,1.0796939
0.28415617,0.07723878,-0.18365255,-1.7644447,-8.79959,1.04605
0.27530226,0.074832134,-0.1779302,-1.7094672,-8.525408,1.0134566
0.2667248,0.072500624,-0.17238651,-1.656206,-8.259785,0.9818808
0.25841504,0.07024188,-0.16701585,-1.6046073,-8.002453,0.9512905
0.25036463,0.06805363,-0.1618128,-1.5546188,-7.7531524,0.9216549
0.24256541,0.06593367,-0.15677209,-1.5061903,-7.5116305,0.89294404
0.23500952,0.06387984,-0.15188865,-1.4592726,-7.2776437,0.8651289
0.22768933,0.061890077,-0.14715755,-1.4138185,-7.0509562,0.83818144
0.22059745,0.059962377,-0.14257401,-1.369782,-6.831339,0.8120745
0.21372674,0.058094796,-0.13813342,-1.3271189,-6.618571,0.78678167
0.20707028,0.05628545,-0.13383129,-1.2857862,-6.412437,0.76227754
0.20062135,0.054532513,-0.1296633,-1.2457421,-6.2127304,0.7385375
0.19437349,0.05283423,-0.12562525,-1.2069465,-6.01925,0.7155375
0.18832038,0.051188886,-0.12171307,-1.1693602,-5.831801,0.69325453
0.18245596,0.049594827,-0.11792284,-1.1329455,-5.650194,0.6716661
0.17677431,0.048050452,-0.11425074,-1.0976658,-5.4742484,0.6507505
0.17126971,0.046554208,-0.11069308,-1.0634855,-5.3037853,0.6304867
0.16593668,0.04510459,-0.10724629,-1.0303704,-5.1386347,0.61085445
0.1607698,0.04370014,-0.1039069,-0.9982871,-4.97863,0.59183395
0.15576392,0.042339455,-0.10067156,-0.9672035,-4.823611,0.57340604
0.15091401,0.04102116,-0.09753702,-0.9370884,-4.6734214,0.5555523
0.1462152,0.039743938,-0.09450013,-0.9079115,-4.527911,0.5382548
0.14166278,0.038506504,-0.09155786,-0.8796435,-4.386934,0.5214961
0.13725215,0.037307616,-0.08870724,-0.8522561,-4.250348,0.5052596
0.13297892,0.03614608,-0.08594541,-0.82572186,-4.118017,0.48952872
0.12883879,0.035020716,-0.08326961,-0.8000141,-3.989808,0.4742879
0.12482762,0.033930406,-0.08067716,-0.775107,-3.8655922,0.45952174
0.12094138,0.032874055,-0.07816545,-0.7509757,-3.7452452,0.44521552
0.117176175,0.031850602,-0.07573196,-0.727596,-3.6286464,0.43135485
0.11352823,0.030859025,-0.073374264,-0.7049444,-3.515679,0.41792583
0.10999389,0.029898329,-0.07108999,-0.6829982,-3.4062295,0.40491506
0.10656962,0.028967548,-0.068876855,-0.6617354,-3.3001885,0.39230946
0.10325197,0.028065754,-0.06673263,-0.6411348,-3.1974497,0.38009638
0.10003764,0.027192041,-0.064655185,-0.62117565,-3.09791,0.36826363
0.0969234,0.026345534,-0.062642425,-0.60183805,-3.00147,0.35679933
0.093906134,0.025525387,-0.060692336,-0.5831026,-2.908033,0.345692
0.09098282,0.024730776,-0.058802973,-0.56495047,-2.8175054,0.33493054
0.08815052,0.023960907,-0.056972437,-0.5473636,-2.7297964,0.32450417
0.085406415,0.023215009,-0.055198897,-0.5303242,-2.6448183,0.31440243
0.08274775,0.022492334,-0.053480577,-0.51381546,-2.5624862,0.3046152
0.08017186,0.021792162,-0.051815756,-0.49782068,-2.4827175,0.2951327
0.07767617,0.021113787,-0.050202772,-0.48232388,-2.4054322,0.28594545
0.07525818,0.020456534,-0.04864,-0.46730956,-2.3305533,0.2770442
0.07291547,0.019819744,-0.04712589,-0.45276272,-2.2580056,0.2684201
0.0706457,0.019202778,-0.045658916,-0.43866873,-2.1877165,0.2600645
0.06844659,0.01860502,-0.044237614,-0.42501354,-2.1196158,0.25196904
0.06631594,0.018025873,-0.04286056,-0.4117835,-2.0536351,0.2441256
0.06425163,0.017464755,-0.041526377,-0.3989653,-1.9897087,0.23652634
0.062251583,0.016921107,-0.040233728,-0.38654616,-1.9277723,0.22916366
0.0603138,0.016394382,-0.038981322,-0.37451366,-1.8677641,0.22203021
0.05843634,0.015884055,-0.037767906,-0.36285573,-1.8096241,0.21511881
0.05661733,0.015389615,-0.036592264,-0.35156074,-1.753294,0.20842257
0.054854948,0.014910567,-0.03545322,-0.34061736,-1.6987175,0.2019348
0.053147428,0.014446432,-0.034349635,-0.33001465,-1.6458399,0.19564898
0.051493064,0.013996745,-0.033280406,-0.319742,-1.5946084,0.18955886
0.049890198,0.013561058,-0.03224446,-0.30978915,-1.5449718,0.18365832
0.04833723,0.013138933,-0.031240765,-0.3001461,-1.4968804,0.17794146
0.046832606,0.012729949,-0.030268313,-0.29080328,-1.450286,0.17240255
0.04537482,0.012333697,-0.029326133,-0.28175128,-1.4051421,0.16703607
0.04396241,0.011949779,-0.028413283,-0.27298105,-1.3614035,0.16183665
0.042593975,0.011577812,-0.027528848,-0.26448384,-1.3190265,0.15679908
0.041268133,0.011217425,-0.026671946,-0.25625113,-1.2779685,0.15191832
