ax,ay,az,gx,gy,gz
-0.9309176,1.5663779,-9.313721,-100.54273,313.1683,-17.700161
-0.9228569,-1.430303,-8.897899,-99.603745,323.11536,34.093304
-0.5767925,-2.9597495,-10.128223,-59.032284,331.14462,51.715443
-0.6674221,-2.9767025,-11.150241,-42.234737,319.5876,60.54163
-0.7557327,-3.2796288,-11.781775,-19.185287,303.5572,69.646866
-1.0298282,-2.9142885,-12.542735,-3.7581043,280.56317,74.181145
-1.8281263,-2.5160382,-13.6128,-0.7738054,243.77719,75.69361
-2.3320298,-2.3995414,-14.401879,-8.331238,193.67627,76.72776
-2.4034164,-2.322919,-14.813032,-14.874023,144.084,73.54311
-2.281435,-2.4065628,-15.038876,-19.775421,97.03682,69.371506
-2.1476376,-2.4516556,-15.182718,-23.356407,52.52354,65.03005
-1.727586,-2.673702,-15.101931,-24.772642,13.608711,63.218765
-1.1682981,-3.010585,-14.815341,-19.547586,-18.846155,65.685905
-0.4483257,-3.2759993,-14.277192,-10.634199,-45.03386,69.85471
0.16858207,-3.0254562,-13.703913,-3.4532673,-69.16342,74.23648
0.8996792,-2.4943168,-12.795167,0.6812917,-90.44829,76.23197
1.8677931,-1.9514369,-11.446463,7.530093,-102.882484,77.90074
2.759746,-1.051887,-9.934631,14.489625,-104.97584,77.333
3.4432728,0.2623919,-8.425966,16.126057,-101.99826,75.09596
3.858475,1.5125407,-7.1238604,12.727219,-97.41814,70.18142
4.1085854,2.60247,-5.9694276,9.340835,-90.57306,62.62869
4.2517314,3.6320312,-5.0706453,4.054356,-83.180534,53.309914
4.3585997,4.51741,-4.3637257,-3.0268927,-74.396286,41.794907
4.3609586,5.2352796,-3.9751847,-10.81329,-65.46903,29.226892
4.244351,5.7034583,-3.8315105,-18.164377,-57.198837,15.57693
3.989955,5.9411106,-3.89319,-24.241276,-51.72825,1.1206237
3.8068316,5.9226894,-4.045598,-31.237804,-50.127342,-13.608185
3.9673579,5.3237057,-4.071841,-39.606876,-49.371906,-24.581886
4.3273563,4.139332,-3.7691517,-45.991493,-46.565002,-28.958862
4.69646,2.8696463,-3.4220576,-50.858673,-41.73532,-29.0169
5.007922,1.5785924,-3.1263528,-51.874138,-34.564564,-28.320719
5.195909,0.39577717,-2.9224455,-48.010094,-25.81952,-27.496206
5.235773,-0.49295288,-2.8445475,-43.21125,-17.548588,-24.353735
5.100547,-1.0193958,-2.8469296,-38.50464,-10.043588,-18.88463
4.8510094,-1.2752655,-2.9744282,-32.915768,-3.663762,-12.261034
4.5267606,-1.3191575,-3.2014315,-26.587914,1.3540722,-6.3526554
4.1110263,-1.1852982,-3.529373,-18.846096,4.3685493,-2.2710688
3.6052768,-0.87775695,-3.954871,-11.94436,3.3567698,-0.06943618
3.094347,-0.4649579,-4.3933296,-6.2499905,-0.10536217,0.99547017
2.581207,-0.028181653,-4.861871,-1.4306624,-5.752416,0.9479175
2.0780134,0.4253731,-5.367234,1.6375372,-13.753633,0.04292402
1.6397406,0.83974206,-5.8690257,1.5853615,-24.480917,-0.93947357
1.3718058,1.0860392,-6.225442,-1.0494634,-36.875896,-1.5116158
1.3801365,1.1002165,-6.248211,-2.398823,-47.39164,-1.3915688
1.4994849,1.0808184,-6.11359,-3.0882077,-55.991344,-1.1014612
1.6968127,0.9941932,-5.863579,-3.5492969,-63.229427,-0.49266157
2.008878,0.81453097,-5.4783607,-3.2519317,-68.62685,1.4309012
2.3788528,0.68318635,-5.029835,-5.4033346,-72.21828,6.376619
2.2977474,0.6598935,-4.858346,-5.219111,-69.75604,6.159212
2.2198434,0.63752013,-4.6936264,-5.0421596,-67.391,5.950387
2.144974,0.6160183,-4.535323,-4.8721013,-65.11808,5.7496967
2.072985,0.59534365,-4.3831096,-4.708585,-62.932602,5.5567265
2.0037324,0.5754549,-4.2366824,-4.5512843,-60.830204,5.371092
1.9370829,0.55631375,-4.095759,-4.3998966,-58.806828,5.192435
1.8729118,0.53788435,-3.9600759,-4.254138,-56.858696,5.020422
1.8111032,0.52013344,-3.829388,-4.1137457,-54.982277,4.854741
1.751548,0.5030297,-3.703465,-3.9784722,-53.17428,4.695101
1.6941448,0.48654398,-3.5820918,-3.848086,-51.431606,4.5412292
1.638798,0.47064883,-3.4650667,-3.722371,-49.75136,4.3928695
1.5854177,0.45531848,-3.3521996,-3.601123,-48.130817,4.249781
1.5339197,0.4405287,-3.2433126,-3.4841504,-46.56742,4.1117387
1.4842246,0.42625666,-3.1382372,-3.3712723,-45.05875,3.9785285
1.436257,0.4124808,-3.0368152,-3.262319,-43.60253,3.8499496
1.3899466,0.39918083,-2.9388964,-3.157129,-42.196617,3.7258122
1.345226,0.38633746,-2.8443394,-3.0555508,-40.83897,3.605937
1.302032,0.3739325,-2.7530103,-2.95744,-39.527668,3.4901536
1.2603045,0.36194873,-2.6647818,-2.8626597,-38.260887,3.3783011
1.2199863,0.35036972,-2.5795333,-2.771081,-37.036892,3.2702265
1.1810235,0.3391799,-2.4971504,-2.6825807,-35.85404,3.1657848
1.1433643,0.32836452,-2.417524,-2.5970416,-34.710766,3.064838
1.1069598,0.31790945,-2.3405507,-2.5143523,-33.605583,2.9672542
1.0717634,0.30780134,-2.2661314,-2.434407,-32.53707,2.8729084
1.0377305,0.29802734,-2.1941721,-2.3571043,-31.503883,2.7816815
1.0048183,0.2885753,-2.1245832,-2.2823477,-30.504725,2.6934593
0.9729867,0.27943352,-2.0572784,-2.2100453,-29.538364,2.6081333
0.94219667,0.27059087,-1.9921762,-2.1401086,-28.603626,2.5255992
0.9124111,0.2620367,-1.9291977,-2.0724535,-27.699383,2.4457576
0.8835945,0.25376084,-1.868268,-2.0069995,-26.824556,2.3685136
0.85571295,0.24575348,-1.8093153,-1.9436692,-25.978115,2.2937758
0.82873374,0.23800528,-1.7522707,-1.8823886,-25.15907,2.2214568
0.80262566,0.23050727,-1.6970679,-1.8230866,-24.366468,2.151473
0.7773587,0.2232508,-1.6436436,-1.7656952,-23.599403,2.0837438
0.7529041,0.21622767,-1.591937,-1.7101489,-22.857,2.0181923
0.7292342,0.20942988,-1.5418894,-1.6563851,-22.138418,1.9547441
0.70632243,0.2028498,-1.4934448,-1.6043432,-21.442852,1.8933281
0.68414325,0.19648013,-1.4465492,-1.5539652,-20.769526,1.8338758
0.66267204,0.19031377,-1.4011506,-1.5051954,-20.117693,1.7763212
0.64188516,0.18434395,-1.3571988,-1.45798,-19.486635,1.7206011
0.62175983,0.17856415,-1.3146461,-1.4122674,-18.875664,1.6666543
0.60227424,0.17296804,-1.2734457,-1.3680077,-18.284111,1.6144223
0.58340716,0.16754958,-1.2335533,-1.325153,-17.711334,1.5638483
0.5651383,0.16230291,-1.1949257,-1.283657,-17.15672,1.5148778
0.547448,0.1572224,-1.1575214,-1.2434752,-16.61967,1.4674581
0.53031737,0.15230264,-1.1213005,-1.2045646,-16.099611,1.4215387
0.51372814,0.14753835,-1.0862243,-1.1668838,-15.595988,1.3770707
0.49766275,0.14292452,-1.0522557,-1.1303928,-15.108269,1.3340067
0.48210424,0.13845624,-1.0193589,-1.0950532,-14.635936,1.2923014
0.46703616,0.13412881,-0.987499,-1.0608275,-14.178492,1.2519107
0.45244268,0.1299377,-0.9566426,-1.0276798,-13.735457,1.2127923
0.43830857,0.1258785,-0.9267575,-0.99557555,-13.306367,1.1749052
0.42461902,0.121946976,-0.8978124,-0.96448106,-12.890774,1.1382098
0.41135982,0.118139036,-0.8697772,-0.934364,-12.488245,1.1026679
0.39851713,0.11445073,-0.84262276,-0.90519315,-12.098361,1.0682425
0.3860777,0.11087823,-0.81632084,-0.87693816,-11.720719,1.034898
0.37402862,0.10741784,-0.7908443,-0.84956986,-11.354928,1.0026
0.36235747,0.104065984,-0.76616687,-0.8230599,-11.000609,0.97131497
0.35105222,0.10081921,-0.74226314,-0.79738116,-10.6574,0.9410107
0.34010124,0.09767418,-0.7191084,-0.7725071,-10.324945,0.91165614
0.32949328,0.09462767,-0.69667906,-0.74841213,-10.002904,0.8832211
0.3192175,0.09167655,-0.674952,-0.72507167,-9.690948,0.8556764
0.30926335,0.088817805,-0.653905,-0.7024618,-9.388755,0.8289939
0.2996207,0.086048506,-0.63351655,-0.6805594,-9.096018,0.80314624
0.29027963,0.083365835,-0.61376584,-0.65934205,-8.812438,0.77810717
0.28123066,0.08076705,-0.59463274,-0.6387882,-8.537726,0.75385106
0.2724646,0.078249514,-0.57609785,-0.618877,-8.271602,0.73035324
0.2639725,0.075810656,-0.5581422,-0.599588,-8.013795,0.70758975
0.25574574,0.073448,-0.5407476,-0.58090174,-7.7640433,0.6855376
0.24777599,0.071159154,-0.52389634,-0.56279916,-7.522094,0.6641743
0.24005513,0.06894179,-0.5075714,-0.545262,-7.2877007,0.6434782
0.23257536,0.066793665,-0.49175623,-0.52827245,-7.0606265,0.6234284
0.2253291,0.0647126,-0.47643477,-0.5118133,-6.8406415,0.60400444
0.21830903,0.062696494,-0.46159157,-0.49586785,-6.627523,0.58518684
0.21150804,0.06074331,-0.4472116,-0.48042005,-6.4210553,0.5669565
0.20491926,0.058851067,-0.4332803,-0.46545428,-6.22103,0.549295
0.19853604,0.057017863,-0.41978365,-0.45095542,-6.0272455,0.5321845
0.19235194,0.05524184,-0.40670803,-0.43690884,-5.839506,0.5156078
0.18636073,0.053521216,-0.39404023,-0.42330036,-5.657622,0.49954805
0.18055636,0.05185425,-0.38176748,-0.41011629,-5.4814105,0.48398915
0.17493297,0.05023926,-0.36987743,-0.39734334,-5.3106933,0.46891546
0.16948493,0.04867463,-0.35835811,-0.3849686,-5.145299,0.45431173
0.16420673,0.047158774,-0.34719792,-0.3729797,-4.985061,0.44016328
0.15909307,0.045690175,-0.3363856,-0.3613645,-4.8298182,0.4264559
0.15413879,0.04426735,-0.32591033,-0.35011137,-4.6794143,0.41317573
0.14933893,0.042888872,-0.31576154,-0.33920893,-4.533698,0.4003095
0.14468867,0.041553352,-0.305929,-0.3286463,-4.392523,0.38784426
0.1401833,0.04025945,-0.2964029,-0.3184128,-4.2557473,0.37576744
0.13581833,0.03900587,-0.28717363,-0.3084982,-4.123234,0.36406696
0.13158937,0.03779135,-0.27823195,-0.29889253,-3.9948487,0.35273105
0.12749216,0.036614664,-0.26956883,-0.28958613,-3.870464,0.3417483
0.1235226,0.035474643,-0.2611756,-0.28056964,-3.7499545,0.33110774
0.11967671,0.03437013,-0.25304386,-0.27183408,-3.633199,0.32079864
0.11595062,0.03330003,-0.24516544,-0.2633706,-3.5200806,0.3108107
0.11234059,0.032263264,-0.23753242,-0.2551708,-3.410486,0.30113384
0.10884301,0.031258788,-0.23013715,-0.24722639,-3.3043048,0.29175845
0.10545438,0.0302856,-0.22297223,-0.23952942,-3.201431,0.28267506
0.10217128,0.029342722,-0.21603046,-0.23207217,-3.1017613,0.27387455
0.09899043,0.02842921,-0.2093049,-0.2248472,-3.0051956,0.26534817
0.09590865,0.027544148,-0.20278879,-0.21784721,-2.9116375,0.25708732
0.09292284,0.026686648,-0.19647561,-0.21106525,-2.820993,0.24908371
0.090030015,0.025855854,-0.19035903,-0.20449446,-2.7331712,0.24132937
0.08722727,0.025050929,-0.18443292,-0.1981283,-2.6480844,0.23381649
0.0845118,0.024271071,-0.17869136,-0.19196038,-2.565647,0.22653757
0.08188089,0.023515496,-0.17312858,-0.18598452,-2.4857767,0.2194853
0.079331905,0.022783449,-0.167739,-0.18019475,-2.4083934,0.21265262
0.07686228,0.022074195,-0.16251725,-0.17458525,-2.3334196,0.20603271
0.07446957,0.021387026,-0.1574581,-0.16915041,-2.2607803,0.1996189
0.07215134,0.020721251,-0.15255645,-0.16388479,-2.1904027,0.19340481
0.069905296,0.020076208,-0.14780743,-0.15878312,-2.1222162,0.1873842
0.06772919,0.019451246,-0.14320627,-0.1538403,-2.0561528,0.18155104
0.065620825,0.018845743,-0.13874836,-0.14905137,-1.9921464,0.17589949
0.06357811,0.018259093,-0.13442925,-0.14441153,-1.9301326,0.1704239
0.06159899,0.017690705,-0.13024461,-0.13991615,-1.8700496,0.16511877
0.059681486,0.017140014,-0.12619025,-0.13556072,-1.8118372,0.15997882
0.057823677,0.016606469,-0.122262105,-0.13134089,-1.755437,0.15499888
0.05602371,0.016089533,-0.11845627,-0.12725244,-1.7007928,0.15017399
0.05427978,0.0155886905,-0.1147689,-0.12329126,-1.6478497,0.1454993
0.052590135,0.01510344,-0.11119633,-0.11945341,-1.5965549,0.14097016
0.050953098,0.014633296,-0.107734986,-0.11573503,-1.5468569,0.136582
0.04936702,0.014177789,-0.1043814,-0.112132415,-1.4987061,0.13233045
0.04783032,0.013736461,-0.1011322,-0.10864195,-1.4520543,0.12821126
0.04634146,0.0133088725,-0.09798416,-0.10526014,-1.4068547,0.1242203
0.044898946,0.012894595,-0.09493412,-0.101983614,-1.3630623,0.12035358
0.04350134,0.012493215,-0.09197903,-0.098809086,-1.320633,0.116607234
0.042147238,0.012104329,-0.08911592,-0.095733374,-1.2795247,0.11297751
0.04083529,0.011727548,-0.08634195,-0.09275342,-1.239696,0.10946078
0.039564185,0.011362498,-0.08365432,-0.08986622,-1.2011071,0.10605352
0.03833265,0.01100881,-0.081050366,-0.0870689,-1.1637197,0.10275233
0.037139446,0.010666133,-0.078527465,-0.08435866,-1.1274959,0.099553905
0.035983387,0.010334123,-0.0760831,-0.08173279,-1.0923997,0.09645504
0.03486332,0.010012448,-0.07371483,-0.07918865,-1.0583961,0.09345264
