ax,ay,az,gx,gy,gz
-0.83091664,1.1527377,-1.2963754,12.595569,5.215502,-23.138391
-0.5879582,1.718429,-0.8406941,20.320734,16.602346,-31.220037
-1.1635302,2.06634,-1.1303496,21.426693,23.348001,-37.423195
-1.865019,1.6963525,-1.6409328,35.546047,26.5376,-43.681656
-1.995633,0.8867288,-2.1592739,36.372364,23.023624,-42.54148
-1.7793984,-0.0027345498,-2.5463095,23.686674,16.243896,-41.713287
-1.7044098,-1.1641442,-3.0475235,12.448234,7.513856,-42.092903
-1.6339855,-2.5145295,-3.5665824,4.6865897,-3.5317624,-38.436924
-1.3152616,-3.8974128,-3.8903017,-0.23882712,-14.566665,-30.40336
-0.84683406,-5.1144185,-4.074555,-4.3492203,-24.57925,-18.613844
-0.3469873,-6.002267,-4.0319695,-0.70418817,-30.006449,-4.540764
-0.015729494,-6.3632255,-3.9950125,5.945215,-34.062588,9.932344
0.2152884,-6.2892942,-3.983147,13.449015,-37.957024,23.222946
0.45129627,-5.915183,-3.9621904,19.614908,-41.88439,33.73662
0.610834,-5.46456,-3.962177,21.775072,-46.97497,42.617783
0.7770884,-5.029547,-3.7867568,24.462791,-50.38587,50.578945
0.9415684,-4.358027,-3.5332088,25.379396,-52.855835,56.85528
1.0986532,-3.631212,-3.2677917,25.261623,-54.303585,61.389095
1.2471898,-2.8425007,-2.9557278,25.049297,-54.978176,64.10885
1.3994199,-1.9495575,-2.6258788,24.50994,-55.00623,65.15636
1.51885,-1.063117,-2.2831643,21.756405,-54.526688,64.72173
1.6083757,-0.26544145,-1.9670148,17.979456,-53.730537,62.87389
1.6867268,0.43322915,-1.691011,14.522059,-52.668648,59.286003
1.7752517,1.0348144,-1.4770423,11.086333,-51.351032,54.688858
1.8629932,1.545802,-1.3213396,6.766689,-50.028427,49.50625
1.9223427,1.9622703,-1.2206243,1.9813459,-48.854763,43.537174
1.9254341,2.2464693,-1.1521099,-2.1505392,-47.85044,37.04772
1.9188148,2.4522893,-1.1125914,-5.9259624,-47.004486,30.298687
1.9237751,2.5894353,-1.0922829,-9.686993,-46.13152,23.671381
1.9332805,2.6758513,-1.1017246,-13.062233,-45.243267,16.881636
1.9380316,2.7239816,-1.1405004,-16.929672,-44.59043,9.486437
1.9518646,2.6497655,-1.1602956,-21.098486,-44.040176,2.4249089
1.9938117,2.4694016,-1.1598035,-25.652418,-43.328,-3.729946
2.0572207,2.1763756,-1.1505119,-30.791311,-42.647648,-8.864444
2.1280475,1.7945336,-1.0889382,-34.814934,-41.344585,-12.843634
2.1700706,1.4112304,-1.0048904,-37.30181,-39.501167,-15.943085
2.1770272,1.0081867,-0.8747478,-38.922016,-37.62623,-18.290337
2.1979544,0.6069592,-0.70382,-39.74841,-35.48106,-19.632298
2.2228258,0.26765332,-0.5039819,-39.725334,-32.818886,-19.948832
2.2332168,0.02812381,-0.3151205,-40.140747,-29.8401,-19.98043
2.2216594,-0.20298134,-0.14049628,-40.039852,-26.61399,-20.003948
2.1883116,-0.48116198,0.01595516,-38.826912,-23.09992,-19.472485
2.1304088,-0.73562294,0.13874514,-37.12068,-19.743458,-18.285192
2.0698,-0.9755105,0.25116098,-34.354008,-16.349722,-16.628464
2.0135953,-1.1884032,0.34387282,-29.784811,-12.634977,-14.897126
1.961415,-1.3400031,0.39263135,-24.418772,-8.942349,-13.3677435
1.9174964,-1.4504886,0.41028175,-19.246702,-5.16819,-11.673916
1.86274,-1.5090525,0.38883594,-15.722849,-1.17053,-9.699324
1.7798314,-1.5164833,0.32484636,-14.9454,2.594292,-7.6768003
1.685413,-1.5411494,0.25494045,-14.370399,6.239459,-5.3657727
1.579664,-1.5177376,0.13612123,-13.599583,9.262994,-2.844227
1.4367021,-1.4295461,-0.04749934,-12.395467,11.244313,-1.0342327
1.2942305,-1.3642168,-0.2369347,-11.408403,12.291919,-0.0026116115
1.1945013,-1.3724921,-0.39952493,-8.974359,13.16816,0.75676274
1.10451,-1.374894,-0.58333284,-5.5774045,14.311059,2.0156212
0.95658094,-1.3361539,-0.84581494,-2.0053868,14.477285,3.969382
0.7323634,-1.2434508,-1.1885638,1.8779477,13.104069,5.6993933
0.5382051,-1.1084446,-1.5459006,5.510952,10.19223,6.286736
0.41745183,-0.98170507,-1.869038,7.915136,5.957012,6.1391764
0.38903365,-0.89034796,-2.1212807,10.029106,1.8086696,5.911389
0.40189552,-0.77547926,-2.344912,9.8222885,-2.6414573,6.3181195
0.4138212,-0.69780684,-2.5509307,8.491648,-7.418266,7.171337
0.41017503,-0.63349986,-2.7398975,6.982399,-12.7075815,8.09944
0.4170051,-0.56138647,-2.8802261,5.2733636,-18.398674,8.57038
0.45764104,-0.5340902,-2.9532223,4.5027776,-23.67443,8.575451
0.49888065,-0.5641093,-2.9939296,4.3307767,-28.407553,8.974264
0.5307402,-0.6273045,-2.971274,4.4697437,-32.905632,10.116543
0.5817418,-0.6323493,-2.8866174,4.6411266,-37.17955,11.599042
0.6472212,-0.5768633,-2.757444,4.656644,-41.12853,12.844558
0.7059179,-0.49058175,-2.616426,4.3972235,-44.908382,13.591043
0.7610033,-0.3903953,-2.4398608,4.088148,-48.56813,13.688854
0.863703,-0.28943166,-2.1799998,3.471054,-51.78622,13.639798
1.0221025,-0.20396738,-1.8734447,2.624358,-54.08395,13.648568
1.2106473,-0.12709029,-1.5514874,1.6642262,-55.374897,13.767388
1.4118202,-0.057425283,-1.2320527,0.66214865,-55.430466,13.833965
1.5859677,-0.014121622,-0.9456331,-0.4578002,-54.213326,13.670457
1.7132738,-0.016393906,-0.70971775,-1.4717582,-52.34319,13.63962
1.8089297,-0.039594878,-0.5160605,-2.3717515,-49.909344,14.084003
1.8733982,-0.083500296,-0.3563285,-2.8053532,-46.841866,15.143737
1.913742,-0.12068796,-0.21898068,-2.888167,-43.11355,16.802294
1.8534522,-0.116885856,-0.21208201,-2.7971792,-41.755318,16.27296
1.7951049,-0.11320625,-0.2054056,-2.7091231,-40.440845,15.760683
1.7386334,-0.10964494,-0.19894382,-2.623898,-39.168636,15.264874
1.683974,-0.10619791,-0.1926894,-2.5414076,-37.93725,14.784975
1.6310654,-0.102861285,-0.1866353,-2.461559,-36.745296,14.320446
1.5798483,-0.09963134,-0.18077478,-2.3842638,-35.59146,13.87077
1.5302662,-0.0965045,-0.17510132,-2.3094358,-34.474453,13.435449
1.4822644,-0.09347732,-0.1696087,-2.2369928,-33.39305,13.014002
1.4357904,-0.09054649,-0.16429089,-2.1668556,-32.346066,12.605968
1.3907934,-0.08770881,-0.15914209,-2.0989473,-31.332355,12.210904
1.347225,-0.084961206,-0.15415674,-2.033195,-30.350826,11.828381
1.3050377,-0.08230072,-0.14932947,-1.9695272,-29.400417,11.457986
1.2641866,-0.0797245,-0.14465506,-1.9078759,-28.480106,11.09932
1.224628,-0.077229775,-0.14012855,-1.848175,-27.588913,10.752003
1.1863196,-0.0748139,-0.1357451,-1.790361,-26.725887,10.415663
1.1492208,-0.07247431,-0.13150005,-1.7343726,-25.89011,10.089943
1.1132926,-0.07020853,-0.12738894,-1.6801506,-25.080704,9.774499
1.0784968,-0.068014175,-0.12340742,-1.6276377,-24.29681,9.468998
1.0447971,-0.065888934,-0.119551316,-1.576779,-23.53761,9.1731205
1.012158,-0.06383059,-0.115816586,-1.5275211,-22.802303,8.886557
0.98054564,-0.061836995,-0.11219932,-1.4798126,-22.090128,8.609006
0.949927,-0.059906065,-0.10869577,-1.4336038,-21.400337,8.340179
0.9202702,-0.058035795,-0.10530228,-1.3888465,-20.732218,8.079799
0.8915446,-0.056224246,-0.10201535,-1.3454946,-20.085075,7.8275933
0.8637204,-0.05446955,-0.09883155,-1.3035032,-19.458242,7.5833025
0.836769,-0.052769884,-0.09574762,-1.2628288,-18.851068,7.346674
0.81066245,-0.051123507,-0.09276038,-1.2234296,-18.262932,7.1174636
0.78537405,-0.049528725,-0.08986674,-1.1852651,-17.693224,6.8954363
0.76087785,-0.047983896,-0.08706375,-1.148296,-17.141363,6.680364
0.7371486,-0.04648744,-0.08434852,-1.1124845,-16.606781,6.472026
0.7141621,-0.045037825,-0.08171829,-1.077794,-16.088932,6.270209
0.6918949,-0.043633565,-0.07917035,-1.0441889,-15.587287,6.074707
0.6703242,-0.042273235,-0.07670211,-1.011635,-15.101334,5.88532
0.649428,-0.04095544,-0.07431106,-0.98009896,-14.630576,5.7018557
0.6291851,-0.03967884,-0.07199476,-0.9495489,-14.174536,5.5241265
0.60957485,-0.038442146,-0.069750845,-0.91995364,-13.732748,5.351952
0.5905773,-0.03724409,-0.06757705,-0.8912831,-13.304764,5.185158
0.57217324,-0.036083456,-0.06547115,-0.8635082,-12.89015,5.0235734
0.554344,-0.034959074,-0.06343103,-0.8366007,-12.488484,4.867036
0.5370714,-0.0338698,-0.061454613,-0.81053346,-12.099361,4.715386
0.5203381,-0.032814533,-0.059539896,-0.78528005,-11.722387,4.5684705
0.5041271,-0.031792205,-0.057684947,-0.7608148,-11.357179,4.426141
0.488422,-0.030801779,-0.055887885,-0.7371131,-11.003368,4.2882533
0.47320697,-0.02984226,-0.054146897,-0.71415097,-10.660598,4.154668
0.45846662,-0.028912676,-0.052460223,-0.69190526,-10.328521,4.0252504
0.44418606,-0.02801209,-0.05082617,-0.6703534,-10.006803,3.89987
0.43035093,-0.027139593,-0.049243078,-0.64947385,-9.695119,3.7784002
0.41694725,-0.026294306,-0.047709357,-0.6292454,-9.393156,3.6607184
0.40396154,-0.025475375,-0.04622346,-0.6096477,-9.100609,3.5467062
0.39138073,-0.02468198,-0.044783894,-0.59066105,-8.817183,3.436249
0.3791921,-0.02391332,-0.04338921,-0.57226634,-8.542593,3.3292353
0.36738345,-0.02316862,-0.042037997,-0.554445,-8.276563,3.2255576
0.35594288,-0.022447133,-0.040728904,-0.53717923,-8.018825,3.1251113
0.34485886,-0.021748133,-0.039460614,-0.52045155,-7.7691197,3.0277958
0.33412027,-0.021070916,-0.038231846,-0.50424516,-7.5271964,2.9335132
0.32371634,-0.020414803,-0.037041374,-0.48854384,-7.2928123,2.8421686
0.3136366,-0.019779136,-0.035887994,-0.47333178,-7.065732,2.7536702
0.30387095,-0.019163275,-0.034770552,-0.4585937,-6.845727,2.6679294
0.2944095,-0.018566601,-0.033687927,-0.44431478,-6.6325765,2.58486
0.28524286,-0.017988518,-0.03263903,-0.43048072,-6.4260664,2.5043786
0.2763618,-0.017428443,-0.03162281,-0.41707763,-6.22599,2.4264045
0.26775736,-0.016885813,-0.030638244,-0.40409207,-6.032146,2.3508592
0.25942096,-0.01636009,-0.029684348,-0.39151102,-5.84434,2.2776673
0.25134423,-0.015850738,-0.028760163,-0.3793218,-5.662384,2.206755
0.24351907,-0.015357253,-0.027864765,-0.3675123,-5.4860954,2.1380515
0.23593761,-0.014879137,-0.026997255,-0.35607058,-5.3152976,2.071488
0.22859229,-0.014415913,-0.026156764,-0.34498522,-5.1498194,2.006997
0.22147572,-0.0139671145,-0.025342448,-0.3342451,-4.9894943,1.9445151
0.21458077,-0.013532293,-0.02455349,-0.32383943,-4.834162,1.8839788
0.20790055,-0.013111012,-0.023789104,-0.31375784,-4.6836677,1.8253278
0.20142837,-0.012702851,-0.02304852,-0.30399016,-4.5378594,1.7685031
0.1951577,-0.012307399,-0.022331,-0.29452667,-4.3965917,1.7134479
0.18908232,-0.011924261,-0.02163582,-0.28535786,-4.2597227,1.6601071
0.1831961,-0.011553055,-0.020962287,-0.27647454,-4.1271157,1.6084273
0.17749317,-0.011193405,-0.020309728,-0.26786783,-3.9986377,1.5583566
0.1719678,-0.010844954,-0.019677486,-0.2595291,-3.8741603,1.509845
0.16661449,-0.010507354,-0.01906493,-0.25145003,-3.7535584,1.4628438
0.16142784,-0.010180264,-0.018471446,-0.24362248,-3.6367116,1.4173061
0.15640269,-0.009863358,-0.01789644,-0.23603866,-3.5235028,1.3731861
0.15153399,-0.009556319,-0.017339338,-0.22869094,-3.4138188,1.3304399
0.14681686,-0.009258839,-0.016799578,-0.221572,-3.3075497,1.2890245
0.14224662,-0.008970621,-0.016276626,-0.2146747,-3.2045891,1.2488985
0.13781865,-0.008691376,-0.015769953,-0.20799212,-3.104834,1.2100217
0.13352853,-0.008420825,-0.015279056,-0.2015176,-3.0081847,1.1723553
0.12937197,-0.008158697,-0.01480344,-0.19524464,-2.914544,1.1358616
0.12534483,-0.007904729,-0.014342632,-0.18916698,-2.8238187,1.1005039
0.12144305,-0.007658668,-0.013896169,-0.18327852,-2.735918,1.0662471
0.117662735,-0.007420267,-0.013463605,-0.17757338,-2.6507535,1.0330566
0.11400011,-0.0071892873,-0.013044508,-0.17204584,-2.5682404,1.0008996
0.110451505,-0.006965499,-0.012638458,-0.1666904,-2.488296,0.96974343
0.107013375,-0.0067486768,-0.012245048,-0.16150165,-2.4108405,0.93955725
0.10368227,-0.006538605,-0.011863885,-0.15647444,-2.335796,0.9103108
0.10045487,-0.0063350718,-0.011494588,-0.15160373,-2.2630877,0.8819748
0.097327925,-0.0061378754,-0.011136787,-0.14688465,-2.192643,0.85452086
0.09429833,-0.0059468173,-0.010790125,-0.14231247,-2.1243908,0.8279216
0.09136305,-0.0057617067,-0.010454253,-0.1378826,-2.0582635,0.80215037
0.08851913,-0.0055823587,-0.010128837,-0.13359065,-1.9941947,0.7771813
0.08576375,-0.0054085935,-0.009813552,-0.1294323,-1.9321204,0.7529896
0.08309414,-0.005240238,-0.009508081,-0.1254034,-1.8719784,0.7295509
0.080507636,-0.0050771227,-0.009212119,-0.12149992,-1.8137084,0.7068419
