ax,ay,az,gx,gy,gz
-9.352813,2.7191155,-4.354585,-17.311975,-94.161766,-21.584742
-8.911694,2.2649875,-4.151808,-2.3166182,-119.14971,-29.21453
-7.5874586,1.7372617,-3.7239983,9.734116,-133.0524,-28.570612
-5.823752,1.1293402,-3.0221353,15.315212,-136.44534,-24.265764
-4.532027,0.6582992,-2.6081567,17.965607,-134.9698,-19.47794
-3.7868211,0.23178223,-2.5060234,22.012396,-134.41081,-17.264687
-3.3378267,-0.13799301,-2.5848055,27.956644,-137.40598,-17.170103
-2.983974,-0.40390244,-2.7265809,33.333042,-145.48816,-16.730513
-2.5990329,-0.6447283,-2.8546803,35.86418,-157.08008,-15.858259
-2.019386,-0.9411993,-2.7052689,36.842834,-167.16771,-13.907004
-1.4480388,-1.1823906,-2.471216,38.831852,-173.8065,-10.685555
-0.9729008,-1.3847307,-2.281402,43.76827,-177.64174,-7.4881053
-0.52590084,-1.5395536,-2.162964,51.5427,-180.125,-4.9746394
0.2586046,-1.6693133,-1.8572694,58.775635,-179.66142,-2.3009415
1.2643399,-1.7146773,-1.3399749,64.436844,-173.37215,2.6943645
2.2857938,-1.6787075,-0.75829226,68.79879,-160.0874,9.676024
3.2406118,-1.626144,-0.26646993,73.245316,-140.49031,17.699259
4.040852,-1.468834,0.04088159,78.12892,-115.65015,26.874405
4.623019,-1.0652881,0.005167874,81.99633,-89.34648,36.395344
4.814923,-0.6275728,-0.23321629,84.40215,-65.87343,43.476555
4.7389994,-0.2081413,-0.47603258,84.50435,-46.187687,46.978268
4.534795,0.18605623,-0.70613086,83.51766,-30.45611,47.67608
4.29859,0.5223913,-0.866833,82.17971,-18.86272,46.737442
4.0554957,0.8589211,-1.0064809,80.768364,-10.149261,45.85167
3.8066635,1.1932597,-1.1100374,78.16754,-4.0347033,45.06726
3.5821586,1.5025923,-1.1714154,75.098114,1.016096,44.27748
3.354089,1.8141533,-1.2466371,71.80734,4.985503,42.65207
3.0959702,2.1204875,-1.3351848,68.00315,7.3148074,38.444126
2.8526175,2.4037838,-1.4039929,63.80777,8.797635,33.21655
2.6484075,2.6553302,-1.4497426,59.234364,9.598391,27.695751
2.4957352,2.873159,-1.4679759,54.094177,10.244862,22.724232
2.3671277,3.0732207,-1.4804684,48.75157,11.149222,18.434494
2.2214475,3.2777176,-1.5188694,42.71391,12.0415945,14.36005
2.0283093,3.4853103,-1.6151392,36.283253,12.295847,9.768149
1.814238,3.676639,-1.749387,29.839634,11.619227,4.09351
1.5962499,3.8232236,-1.9181238,23.54546,9.633236,-2.7341905
1.3880284,3.9198892,-2.1192207,16.959852,6.0808377,-10.041046
1.211148,3.9644027,-2.3474402,9.124995,-0.34384084,-17.06528
1.180545,3.9100292,-2.4918015,-0.09875665,-7.5418425,-22.810844
1.2761445,3.7555013,-2.5432932,-9.696322,-14.041811,-27.254942
1.456552,3.5048316,-2.5198214,-18.367962,-18.600544,-30.186153
1.6801523,3.1939073,-2.4689267,-25.717905,-20.904343,-31.680248
1.9139178,2.8422942,-2.4121046,-30.667814,-21.233152,-32.196712
2.1723118,2.4557903,-2.316906,-34.169327,-20.088163,-31.859783
2.3857017,2.0794327,-2.2160366,-36.267517,-17.52007,-30.866428
2.4912126,1.7100261,-2.1529992,-36.79309,-14.614245,-29.827774
2.5074623,1.3464341,-2.0925617,-35.961323,-12.226457,-28.998363
2.4214618,1.3002543,-2.0207913,-34.72793,-11.807116,-28.003782
2.3389034,1.255923,-1.9518937,-33.5439,-11.40456,-27.049011
2.2596042,1.2133416,-1.8857156,-32.40661,-11.017894,-26.131927
2.1833937,1.1724188,-1.8221155,-31.313622,-10.64629,-25.250568
2.1101153,1.1330703,-1.7609621,-30.262682,-10.288981,-24.403114
2.0396223,1.0952177,-1.7021334,-29.25169,-9.945255,-23.587875
1.9717789,1.0587878,-1.6455158,-28.278702,-9.6144495,-22.803278
1.9064585,1.0237126,-1.5910038,-27.341894,-9.295945,-22.04786
1.8435427,0.9899287,-1.5384984,-26.439573,-8.989166,-21.32025
1.782921,0.95737654,-1.4879075,-25.570152,-8.693573,-20.61917
1.7244896,0.9260006,-1.4391445,-24.732145,-8.40866,-19.94342
1.6681513,0.8957486,-1.3921283,-23.924158,-8.133953,-19.291878
1.613815,0.86657155,-1.3467828,-23.144882,-7.869007,-18.663488
1.5613946,0.8384233,-1.3030362,-22.393084,-7.613404,-18.057255
1.5108092,0.81126046,-1.2608211,-21.667603,-7.3667483,-17.472244
1.4619826,0.785042,-1.2200736,-20.967344,-7.1286683,-16.907574
1.4148426,0.7597292,-1.1807337,-20.291275,-6.8988123,-16.362408
1.369321,0.73528546,-1.1427444,-19.638418,-6.676848,-15.8359585
1.3253534,0.7116761,-1.1060519,-19.007847,-6.4624605,-15.32748
1.2828784,0.68886834,-1.0706052,-18.398684,-6.2553515,-14.836265
1.2418381,0.6668309,-1.0363557,-17.810095,-6.055238,-14.361641
1.2021774,0.6455342,-1.0032575,-17.241291,-5.8618507,-13.902971
1.1638438,0.6249501,-0.9712667,-16.69152,-5.674935,-13.459649
1.1267872,0.6050519,-0.9403418,-16.160067,-5.494246,-13.031096
1.0909603,0.5858139,-0.91044307,-15.646247,-5.319553,-12.616765
1.0563177,0.5672118,-0.88153267,-15.149412,-5.150635,-12.216129
1.0228162,0.54922247,-0.8535745,-14.668942,-4.9872804,-11.828691
0.9904144,0.53182364,-0.8265341,-14.204246,-4.8292885,-11.453969
0.9590728,0.51499414,-0.8003785,-13.754753,-4.676466,-11.09151
0.92875373,0.49871367,-0.7750762,-13.319926,-4.5286293,-10.740875
0.89942104,0.48296288,-0.7505971,-12.899244,-4.3856025,-10.401648
0.87104005,0.4677231,-0.7269122,-12.492212,-4.2472157,-10.073426
0.8435776,0.45297658,-0.70399386,-12.098353,-4.113308,-9.755828
0.8170019,0.4387062,-0.68181556,-11.717212,-3.9837244,-9.448484
0.79128236,0.42489555,-0.66035175,-11.348351,-3.8583152,-9.151043
0.7663898,0.41152897,-0.63957804,-10.991347,-3.7369382,-8.863164
0.7422959,0.39859125,-0.6194709,-10.6458,-3.6194558,-8.584522
0.71897376,0.38606793,-0.6000078,-10.31132,-3.5057364,-8.314806
0.69639724,0.37394503,-0.5811669,-9.9875345,-3.3956528,-8.053713
0.6745415,0.3622091,-0.56292754,-9.674085,-3.2890832,-7.8009543
0.6533823,0.35084724,-0.5452695,-9.3706255,-3.1859105,-7.556252
0.6328965,0.33984697,-0.52817345,-9.076824,-3.0860212,-7.3193374
0.61306185,0.32919636,-0.51162076,-8.792361,-2.989307,-7.0899534
0.5938569,0.3188838,-0.49559352,-8.516929,-2.8956628,-6.867851
0.57526076,0.30889824,-0.48007444,-8.250229,-2.8049877,-6.65279
0.5572536,0.29922894,-0.46504685,-7.991975,-2.7171843,-6.4445405
0.53981614,0.28986552,-0.4504947,-7.7418914,-2.6321588,-6.2428794
0.5229298,0.28079805,-0.4364025,-7.4997125,-2.5498204,-6.0475917
0.50657666,0.27201688,-0.42275524,-7.2651806,-2.470082,-5.8584704
0.49073943,0.26351276,-0.40953857,-7.0380473,-2.3928595,-5.675316
0.47540146,0.25527674,-0.3967385,-6.8180747,-2.318071,-5.497935
0.4605466,0.2473001,-0.38434163,-6.6050305,-2.2456384,-5.326141
0.44615933,0.23957455,-0.37233496,-6.398692,-2.1754854,-5.1597548
0.4322246,0.23209201,-0.36070594,-6.198844,-2.1075392,-4.998602
0.41872787,0.22484466,-0.34944248,-6.005278,-2.041729,-4.842515
0.40565518,0.217825,-0.3385329,-5.817793,-1.9779861,-4.6913314
0.3929929,0.21102574,-0.3279658,-5.636194,-1.9162446,-4.5448947
0.38072804,0.20443985,-0.31773034,-5.4602947,-1.8564405,-4.4030533
0.36884782,0.19806053,-0.3078159,-5.289912,-1.7985125,-4.265661
0.35734007,0.19188121,-0.29821232,-5.1248713,-1.7424003,-4.1325755
0.34619296,0.18589552,-0.28890967,-4.9650025,-1.6880466,-4.003661
0.335395,0.18009734,-0.2798984,-4.810141,-1.6353955,-3.8787847
0.32493517,0.1744807,-0.27116933,-4.660129,-1.584393,-3.7578185
0.31480274,0.16903989,-0.26271346,-4.5148125,-1.534987,-3.6406386
0.30498734,0.1637693,-0.25452217,-4.374043,-1.4871268,-3.5271251
0.29547897,0.15866359,-0.24658713,-4.2376766,-1.4407637,-3.4171627
0.28626794,0.15371753,-0.23890021,-4.105574,-1.3958504,-3.3106384
0.27734485,0.1489261,-0.2314536,-3.977602,-1.3523413,-3.2074447
0.26870063,0.14428441,-0.22423972,-3.8536294,-1.3101919,-3.107476
0.26032653,0.13978776,-0.21725124,-3.7335303,-1.2693595,-3.0106308
0.252214,0.13543157,-0.21048108,-3.6171827,-1.2298027,-2.916811
0.24435487,0.13121144,-0.20392236,-3.5044692,-1.1914812,-2.8259215
0.23674113,0.12712309,-0.19756843,-3.3952749,-1.1543565,-2.7378697
0.22936508,0.12316236,-0.19141288,-3.2894897,-1.1183906,-2.6525671
0.22221927,0.119325265,-0.18544945,-3.1870065,-1.0835475,-2.569927
0.21529646,0.115607925,-0.17967214,-3.0877216,-1.0497916,-2.489866
0.20858967,0.11200657,-0.1740751,-2.9915347,-1.0170891,-2.4123032
0.20209213,0.10851757,-0.16865267,-2.8983486,-0.9854069,-2.33716
0.19579725,0.105137415,-0.1633994,-2.8080695,-0.9547129,-2.2643611
0.18969873,0.101862684,-0.15830997,-2.7206059,-0.92497635,-2.1938326
0.18379039,0.09869008,-0.15337926,-2.6358702,-0.8961671,-2.1255038
0.17806628,0.0956164,-0.1486023,-2.5537767,-0.8682562,-2.0593054
0.17252065,0.09263856,-0.14397429,-2.474243,-0.84121555,-1.9951712
0.16714792,0.08975355,-0.13949056,-2.3971884,-0.81501794,-1.9330364
0.16194266,0.08695848,-0.13514659,-2.3225362,-0.78963697,-1.8728385
0.15689965,0.08425054,-0.13093804,-2.2502108,-0.76504713,-1.814517
0.15201382,0.08162699,-0.12686065,-2.1801395,-0.74122363,-1.7580132
0.14728025,0.0790852,-0.12291032,-2.112252,-0.7181426,-1.7032703
0.14269419,0.07662262,-0.11908311,-2.0464802,-0.69578093,-1.6502334
0.13825104,0.07423678,-0.115375146,-1.9827577,-0.674116,-1.5988492
0.13394633,0.071925275,-0.11178272,-1.9210207,-0.6531261,-1.549066
0.12977573,0.06968579,-0.10830222,-1.8612072,-0.63279015,-1.5008337
0.12573507,0.06751607,-0.104930155,-1.8032573,-0.6130878,-1.4541042
0.1218203,0.06541395,-0.101663135,-1.7471126,-0.5939992,-1.4088305
0.11802747,0.063377306,-0.09849789,-1.6927168,-0.57550526,-1.364967
0.114352785,0.06140411,-0.095431246,-1.6400156,-0.5575874,-1.32247
0.110792555,0.059492372,-0.09246012,-1.5889558,-0.54022765,-1.2812966
0.10734322,0.05764018,-0.08958153,-1.5394864,-0.5234086,-1.2414056
0.10400132,0.055845678,-0.086792596,-1.4915578,-0.50711334,-1.2027571
0.1007635,0.054107063,-0.08409053,-1.4451219,-0.49132568,-1.1653123
0.097626515,0.05242259,-0.08147261,-1.4001322,-0.47602963,-1.1290336
0.09458722,0.05079058,-0.07893622,-1.3565435,-0.46120998,-1.0938847
0.09164258,0.049209394,-0.07647882,-1.3143122,-0.44685182,-1.0598304
0.08878964,0.047677446,-0.07409794,-1.2733961,-0.43294078,-1.0268366
0.086025536,0.046193205,-0.0717912,-1.2337542,-0.41946295,-0.9948703
0.0833475,0.04475518,-0.069556296,-1.1953465,-0.40640476,-0.9638993
0.08075286,0.043361932,-0.06739098,-1.1581348,-0.3937532,-0.9338927
0.07823901,0.042012066,-0.06529308,-1.1220819,-0.3814956,-0.90482044
0.07580343,0.040704228,-0.06326051,-1.0871515,-0.36961964,-0.8766534
0.07344368,0.039437115,-0.06129122,-1.0533087,-0.35811347,-0.8493633
0.07115741,0.038209453,-0.05938325,-1.0205196,-0.34696552,-0.822923
0.068942316,0.037020016,-0.057534683,-0.9887514,-0.33616468,-0.7973059
0.0667962,0.03586761,-0.055743672,-0.9579723,-0.32570013,-0.7724863
0.06471689,0.034751084,-0.05400842,-0.9281515,-0.31556138,-0.7484395
0.06270232,0.03366932,-0.052327193,-0.8992591,-0.30573827,-0.72514135
0.06075047,0.03262123,-0.05069831,-0.8712662,-0.29622102,-0.7025686
0.058859386,0.031605776,-0.04912014,-0.8441448,-0.28700003,-0.6806985
0.05702718,0.030621931,-0.047591098,-0.8178678,-0.27806613,-0.65950936
0.05525201,0.029668719,-0.04610966,-0.7924088,-0.26941034,-0.63897985
0.053532105,0.02874518,-0.04467434,-0.76774246,-0.26102406,-0.6190894
0.051865745,0.027850393,-0.04328371,-0.743844,-0.25289884,-0.5998183
0.05025126,0.02698346,-0.041936364,-0.7206895,-0.24502656,-0.581147
0.048687033,0.026143517,-0.040630966,-0.6982558,-0.23739935,-0.56305707
0.047171503,0.025329722,-0.039366208,-0.67652047,-0.23000959,-0.5455302
0.045703154,0.02454126,-0.03814082,-0.65546185,-0.22284986,-0.528549
0.044280514,0.023777345,-0.036953576,-0.6350587,-0.21591303,-0.5120964
0.04290216,0.023037208,-0.035803296,-0.61529076,-0.20919214,-0.49615598
0.041566715,0.022320112,-0.03468882,-0.5961382,-0.20268047,-0.4807118
0.04027284,0.02162534,-0.03360904,-0.57758176,-0.1963715,-0.46574834
0.039019242,0.020952195,-0.03256287,-0.55960304,-0.19025892,-0.45125073
0.03780467,0.020300005,-0.031549267,-0.542184,-0.18433663,-0.4372044
0.036627904,0.019668117,-0.030567218,-0.5253071,-0.1785987,-0.4235953
0.03548777,0.0190559,-0.02961574,-0.50895566,-0.17303938,-0.41040987
