ax,ay,az,gx,gy,gz
-5.380958,-0.15181956,-2.7536614,51.269558,-60.757824,-12.151928
-5.817422,-0.44874445,-3.0697203,55.80621,-78.89129,-25.613583
-5.8379683,-0.8544003,-3.1942296,61.14517,-94.758644,-35.36428
-5.48888,-1.301321,-3.31315,67.84209,-114.025826,-35.686867
-4.7401204,-1.611031,-3.1268618,71.91825,-127.5233,-31.909237
-3.9866252,-1.7990224,-2.8548193,74.88478,-134.449,-27.002256
-3.3541114,-2.0086856,-2.652886,77.72551,-137.76099,-22.817314
-2.7979012,-2.2487464,-2.529371,81.15826,-139.83133,-19.742865
-2.1799107,-2.4602468,-2.3977916,84.87951,-140.43524,-17.269411
-1.4284207,-2.602535,-2.1613712,87.959305,-138.44629,-14.720568
-0.6939318,-2.7578816,-1.8901855,91.32316,-133.5314,-11.81042
-6.0079394e-05,-2.8925493,-1.6349838,95.05538,-126.875435,-8.168947
0.6811989,-2.9571996,-1.3934437,99.17334,-118.999054,-3.6339378
1.3535378,-2.9065855,-1.168867,102.89011,-109.4102,1.9999112
2.027082,-2.6882377,-0.95530677,106.08417,-98.99158,7.0795665
2.6741877,-2.3547318,-0.7303728,108.00295,-86.87324,11.117869
3.2541037,-1.9594619,-0.5324195,108.850815,-73.35545,13.620323
3.6848712,-1.5506203,-0.42726365,109.14177,-59.51188,14.589833
3.9430544,-1.1298363,-0.4172001,108.442764,-45.983772,14.642872
4.0556836,-0.7568584,-0.4595865,107.84101,-33.649773,13.989454
4.1275444,-0.4148435,-0.5001786,107.30683,-21.822092,12.9917345
4.1720934,-0.057091333,-0.56036687,105.9635,-9.904684,12.203524
4.1413436,0.3207973,-0.6711716,103.20661,1.5056193,11.427936
4.0143595,0.70516986,-0.83834106,98.49465,11.457444,9.683977
3.769751,1.0268453,-1.0507431,93.023674,19.50098,6.931733
3.4661405,1.2672026,-1.2652609,87.84334,25.465523,3.5415542
3.1223972,1.4458611,-1.4687718,83.102005,29.661442,-0.03947849
2.7605524,1.6005777,-1.6633581,78.26097,32.314953,-3.400187
2.3857436,1.7430943,-1.8476561,72.96937,33.296814,-6.2107444
2.01364,1.8753161,-2.0249283,67.30352,32.97088,-8.509112
1.6531793,1.9890698,-2.186201,61.540985,31.484045,-10.403881
1.3069079,2.095062,-2.3359694,56.054306,29.16737,-12.290192
0.98802686,2.2057967,-2.4744022,50.89443,25.9238,-14.328917
0.71377206,2.343247,-2.5993767,45.680634,21.595367,-16.518064
0.5097021,2.5161314,-2.7140033,39.893665,16.556528,-18.815783
0.36241493,2.669976,-2.8151777,33.632854,10.930201,-21.431576
0.28698146,2.7850702,-2.8846128,26.970453,5.20264,-24.22916
0.29576445,2.8397796,-2.9202423,20.079878,-0.06695294,-27.217306
0.3626221,2.7928567,-2.9327605,13.51649,-4.9904227,-30.580362
0.5031581,2.5778918,-2.9098427,7.6637225,-9.715652,-33.834263
0.6935217,2.262436,-2.8514485,2.7478375,-14.163601,-36.401306
0.9390044,1.895316,-2.7443573,-1.5237166,-18.1613,-37.648388
1.224657,1.5211078,-2.5821204,-5.0876126,-21.192167,-37.455605
1.5243973,1.159441,-2.3818507,-7.584032,-23.01723,-35.91063
1.8244463,0.88071316,-2.1429045,-9.6492605,-23.533976,-33.809887
2.0756726,0.6715287,-1.9142883,-11.381882,-22.716173,-31.875677
2.2734258,0.49837843,-1.6990713,-12.682793,-20.625948,-30.335173
2.1954522,0.48128513,-1.6407968,-12.2478,-19.918524,-29.29474
2.1205997,0.464876,-1.5848548,-11.830218,-19.239414,-28.295956
2.0487018,0.4491146,-1.5311211,-11.429121,-18.58711,-27.336594
1.9796046,0.43396717,-1.4794805,-11.043648,-17.960218,-26.414606
1.9131656,0.41940248,-1.4298265,-10.673003,-17.35744,-25.528084
1.8492521,0.40539142,-1.38206,-10.316448,-16.777578,-24.675262
1.787741,0.391907,-1.336089,-9.973295,-16.219511,-23.854498
1.7285173,0.37892404,-1.2918276,-9.642903,-15.682196,-23.064255
1.6714739,0.36641902,-1.2491955,-9.324675,-15.164661,-22.303102
1.6165103,0.35436997,-1.2081177,-9.018048,-14.6659975,-21.569702
1.5635326,0.34275624,-1.1685243,-8.722501,-14.18535,-20.8628
1.5124527,0.33155856,-1.1303492,-8.437541,-13.721922,-20.181223
1.4631879,0.32075876,-1.0935305,-8.162706,-13.2749605,-19.523865
1.4156603,0.31033978,-1.0580101,-7.8975635,-12.84376,-18.889685
1.3697963,0.30028555,-1.0237333,-7.6417017,-12.427653,-18.277706
1.325527,0.29058087,-0.99064803,-7.394736,-12.026014,-17.687002
1.2827868,0.2812114,-0.95870566,-7.1563005,-11.638248,-17.116705
1.2415141,0.27216363,-0.92786,-6.9260516,-11.263797,-16.565987
1.2016503,0.2634247,-0.89806724,-6.7036624,-10.902126,-16.03407
1.1631397,0.25498247,-0.869286,-6.4888234,-10.552734,-15.520208
1.12593,0.24682538,-0.84147686,-6.281241,-10.215144,-15.0237055
1.089971,0.23894247,-0.8146025,-6.080636,-9.888902,-14.543891
1.0552152,0.23132335,-0.7886273,-5.8867435,-9.573576,-14.080132
1.0216174,0.22395806,-0.7635176,-5.6993113,-9.268755,-13.631824
0.98913443,0.21683718,-0.7392411,-5.518098,-8.97405,-13.198391
0.9577252,0.20995168,-0.7157671,-5.342875,-8.689086,-12.779286
0.9273506,0.20329298,-0.69306624,-5.173424,-8.413507,-12.373986
0.89797306,0.19685286,-0.67111063,-5.009535,-8.146976,-11.981991
0.8695568,0.19062348,-0.6498734,-4.8510084,-7.889166,-11.602822
0.8420676,0.18459731,-0.629329,-4.6976542,-7.6397667,-11.236023
0.81547266,0.1787672,-0.609453,-4.5492887,-7.398481,-10.881158
0.7897407,0.17312625,-0.5902219,-4.4057374,-7.165024,-10.537806
0.76484144,0.16766787,-0.57161313,-4.2668314,-6.9391227,-10.205565
0.7407462,0.16238573,-0.5536053,-4.132411,-6.7205153,-9.884054
0.71742725,0.15727377,-0.53617764,-4.0023212,-6.508951,-9.572901
0.694858,0.15232617,-0.51931024,-3.876414,-6.3041887,-9.27175
0.673013,0.14753732,-0.5029841,-3.7545469,-6.105997,-8.980265
0.6518676,0.14290185,-0.48718086,-3.6365829,-5.914153,-8.698113
0.6313983,0.13841459,-0.4718829,-3.5223906,-5.7284427,-8.424985
0.61158246,0.13407058,-0.45707327,-3.4118435,-5.5486608,-8.160574
0.59239817,0.129865,-0.44273567,-3.30482,-5.374609,-7.904591
0.57382447,0.12579331,-0.4288544,-3.2012026,-5.2060966,-7.656755
0.55584115,0.121851005,-0.41541433,-3.1008787,-5.04294,-7.416796
0.53842866,0.118033856,-0.4024009,-3.0037394,-4.884963,-7.184455
0.52156824,0.11433773,-0.38980007,-2.90968,-4.7319946,-6.9594803
0.50524175,0.11075866,-0.37759832,-2.8185992,-4.583871,-6.74163
0.48943186,0.10729282,-0.3657826,-2.7304003,-4.4404335,-6.5306726
0.47412163,0.10393652,-0.3543403,-2.6449888,-4.3015294,-6.326382
0.45929483,0.10068621,-0.34325933,-2.5622745,-4.1670113,-6.128543
0.4449358,0.097538434,-0.33252794,-2.4821694,-4.0367374,-5.936945
0.4310294,0.09448989,-0.32213482,-2.4045897,-3.9105697,-5.7513866
0.41756102,0.091537364,-0.3120691,-2.3294535,-3.7883763,-5.5716734
0.4045166,0.08867778,-0.30232018,-2.2566824,-3.670029,-5.3976164
0.39188248,0.08590813,-0.29287794,-2.1862001,-3.5554042,-5.229035
0.3796455,0.083225556,-0.28373247,-2.1179335,-3.4443827,-5.065752
0.36779293,0.08062725,-0.27487433,-2.0518117,-3.336849,-4.907599
0.35631254,0.07811052,-0.26629433,-1.9877657,-3.2326913,-4.7544117
0.3451924,0.075672776,-0.25798357,-1.9257296,-3.1318026,-4.6060314
0.33442104,0.073311485,-0.24993347,-1.8656393,-3.0340781,-4.462305
0.3239874,0.07102423,-0.24213575,-1.807433,-2.9394174,-4.3230853
0.31388068,0.06880865,-0.2345824,-1.7510506,-2.847723,-4.1882277
0.3040906,0.06666247,-0.22726564,-1.6964344,-2.758901,-4.0575943
0.294607,0.064583495,-0.22017798,-1.6435282,-2.6728601,-3.9310517
0.2854203,0.06256959,-0.21331218,-1.5922782,-2.5895123,-3.80847
0.27652103,0.0606187,-0.20666121,-1.5426317,-2.5087726,-3.6897237
0.26790014,0.058728833,-0.20021829,-1.4945382,-2.4305584,-3.5746918
0.2595488,0.056898065,-0.19397683,-1.4479486,-2.3547902,-3.463257
0.2514586,0.055124532,-0.1879305,-1.4028155,-2.2813904,-3.3553061
0.2436212,0.053406425,-0.18207315,-1.359093,-2.2102847,-3.2507288
0.2360287,0.051742002,-0.1763988,-1.3167366,-2.1414008,-3.1494193
0.22867337,0.050129578,-0.1709017,-1.2757033,-2.0746686,-3.0512745
0.22154777,0.048567507,-0.16557631,-1.2359517,-2.0100207,-2.9561949
0.21464467,0.047054216,-0.16041718,-1.1974411,-1.9473914,-2.864084
0.20795707,0.045588166,-0.15541914,-1.160133,-1.8867173,-2.774849
0.20147821,0.044167876,-0.15057708,-1.1239893,-1.827937,-2.6883993
0.19520156,0.042791914,-0.14588615,-1.0889736,-1.7709912,-2.6046474
0.18912074,0.041458882,-0.1413416,-1.0550505,-1.7158223,-2.523509
0.18322966,0.040167443,-0.13693881,-1.0221858,-1.6623746,-2.444902
0.17752232,0.038916286,-0.13267337,-0.99034625,-1.6105942,-2.3687468
0.171993,0.037704155,-0.12854098,-0.9594998,-1.5604287,-2.2949672
0.16663612,0.036529824,-0.12453745,-0.92961526,-1.5118277,-2.2234883
0.16144629,0.035392113,-0.12065876,-0.90066266,-1.4647423,-2.1542382
0.15641826,0.034289874,-0.11690101,-0.8726128,-1.4191248,-2.0871475
0.151547,0.033222,-0.11326041,-0.84543735,-1.3749297,-2.0221484
0.14682758,0.032187413,-0.1097333,-0.819109,-1.3321121,-1.9591753
0.14225526,0.031185074,-0.10631613,-0.7936014,-1.2906291,-1.8981652
0.13782546,0.030213976,-0.10300546,-0.7688888,-1.2504392,-1.8390567
0.1335337,0.029273141,-0.099797964,-0.7449463,-1.2115017,-1.7817903
0.1293757,0.028361626,-0.09669043,-0.72174996,-1.1737776,-1.7263083
0.12534724,0.027478512,-0.093679726,-0.6992764,-1.1372291,-1.6725552
0.12144432,0.026622918,-0.090762824,-0.6775031,-1.1018193,-1.620477
0.117662996,0.025793977,-0.0879368,-0.6564082,-1.0675126,-1.5700214
0.11399947,0.024990864,-0.085198835,-0.6359704,-1.0342749,-1.5211376
0.11045008,0.02421277,-0.08254615,-0.6161694,-1.0020726,-1.4737768
0.10701126,0.023458913,-0.07997611,-0.59698516,-0.9708734,-1.4278913
0.10367955,0.02272854,-0.07748612,-0.5783985,-0.9406461,-1.3834351
0.100451626,0.022020917,-0.07507369,-0.5603909,-0.9113603,-1.3403636
0.09732424,0.021335334,-0.0727364,-0.5429441,-0.88298666,-1.2986337
0.09429426,0.020671103,-0.070471905,-0.5260407,-0.85549676,-1.2582035
0.09135864,0.020027561,-0.06827794,-0.5096637,-0.828863,-1.2190325
0.08851445,0.01940406,-0.066152304,-0.49379677,-0.80305874,-1.1810814
0.085758835,0.018799976,-0.06409286,-0.47842398,-0.77805805,-1.1443123
0.08308903,0.018214704,-0.062097557,-0.46352994,-0.7538359,-1.1086881
0.08050237,0.01764766,-0.060164385,-0.4490997,-0.73036814,-1.0741733
0.077996254,0.01709827,-0.05829141,-0.4351188,-0.7076311,-1.0407332
0.075568184,0.01656599,-0.05647676,-0.42157325,-0.68560207,-1.0083345
0.07321571,0.016050283,-0.054718614,-0.4084495,-0.66425896,-0.9769446
0.07093649,0.015550635,-0.05301521,-0.39573437,-0.64358044,-0.94653213
0.06872824,0.015066544,-0.051364847,-0.38341516,-0.62354577,-0.91706663
0.066588745,0.014597526,-0.04976587,-0.37147954,-0.6041349,-0.8885185
0.06451586,0.01414311,-0.04821668,-0.35991552,-0.58532846,-0.8608593
0.06250752,0.013702843,-0.04671572,-0.34871155,-0.5671075,-0.8340612
0.060561705,0.013276284,-0.045261495,-0.33785644,-0.54945385,-0.80809754
0.058676474,0.0128630055,-0.043852545,-0.32733926,-0.5323499,-0.7829422
0.056849938,0.012462593,-0.04248746,-0.31714952,-0.51577836,-0.75857
0.055080265,0.0120746475,-0.041164875,-0.30727702,-0.4997228,-0.7349566
0.05336569,0.01169878,-0.03988347,-0.2977119,-0.48416707,-0.71207833
0.05170449,0.011334613,-0.038641952,-0.28844455,-0.46909565,-0.6899124
0.050095007,0.010981784,-0.03743909,-0.2794657,-0.4544934,-0.66843647
0.048535634,0.0106399385,-0.03627367,-0.2707664,-0.4403458,-0.64762914
0.047024805,0.010308736,-0.035144534,-0.26233792,-0.42663857,-0.62746954
0.04556101,0.009987844,-0.03405055,-0.25417182,-0.41335812,-0.6079376
0.044142783,0.009676942,-0.03299062,-0.24625994,-0.40049106,-0.58901364
0.042768706,0.009375718,-0.03196369,-0.23859437,-0.3880246,-0.57067883
0.041437406,0.009083872,-0.030968726,-0.23116742,-0.3759462,-0.5529148
0.040147547,0.00880111,-0.030004736,-0.22397168,-0.3642438,-0.5357038
0.038897842,0.008527151,-0.029070755,-0.21699993,-0.3529057,-0.5190285
0.037687045,0.008261721,-0.02816585,-0.21024522,-0.34192055,-0.50287235
0.036513932,0.008004553,-0.027289113,-0.20370078,-0.33127737,-0.4872191
0.035377342,0.00775539,-0.026439669,-0.19736007,-0.3209655,-0.47205314
0.03427613,0.0075139836,-0.025616666,-0.19121674,-0.31097463,-0.45735928
0.033209205,0.007280092,-0.024819285,-0.18526465,-0.30129477,-0.44312283
0.032175485,0.007053482,-0.024046723,-0.17949782,-0.29191625,-0.42932954
