ax,ay,az,gx,gy,gz
3.289121,7.2909756,1.6445605,-86.7817,69.46972,-75.296135
3.612108,7.599738,1.5470941,-106.44563,82.75423,-94.84885
3.837966,7.7772408,1.3037198,-119.049545,90.11458,-106.426956
3.7946434,7.5624857,0.8780679,-126.13929,91.79652,-115.36661
3.5774777,7.0995054,0.48205766,-135.00684,93.22965,-120.145485
3.2452605,6.494722,0.06567554,-144.1788,92.16429,-120.07011
2.9542024,5.8649063,-0.25241724,-151.3376,90.186615,-115.346535
2.723706,5.284217,-0.5495641,-157.97595,88.41013,-110.57708
2.5368884,4.5798483,-0.83910817,-161.36377,86.9107,-107.4639
2.4378815,3.7277164,-1.0889857,-160.7433,85.69236,-105.30212
2.4359338,2.7524564,-1.2984833,-156.46996,84.7189,-103.82043
2.526228,1.6504321,-1.4389575,-149.27333,84.802826,-101.30695
2.7111537,0.42064476,-1.4996468,-140.95676,85.642426,-96.64977
2.942292,-0.76225394,-1.5038023,-132.06093,86.86968,-88.90369
3.1487007,-1.8165815,-1.4753262,-122.824135,88.33988,-78.65328
3.2892082,-2.6938524,-1.4348975,-114.14596,90.171776,-66.75633
3.352395,-3.4216168,-1.411824,-104.133064,92.55311,-53.885036
3.3104522,-3.958333,-1.4515694,-92.78037,94.599236,-41.267017
3.2090726,-4.323477,-1.520422,-80.60625,96.42173,-29.188578
3.0674272,-4.5045886,-1.6224873,-68.356514,98.09093,-17.566813
2.888467,-4.5201936,-1.7484694,-56.300423,99.422104,-6.750905
2.7043211,-4.377526,-1.883682,-45.02,100.35039,3.1870837
2.5023518,-4.0698466,-2.0392826,-34.89957,100.613655,12.007975
2.2850034,-3.6632175,-2.1931891,-25.62761,100.11848,19.460743
2.0420704,-3.1726503,-2.3536193,-17.429033,98.8855,25.57786
1.7742577,-2.6296175,-2.5126703,-10.534797,96.792244,30.794357
1.4957082,-2.034196,-2.666723,-5.481861,93.156746,34.71463
1.1989286,-1.3353499,-2.8005888,-2.1467912,88.46145,36.804688
0.91092026,-0.65367645,-2.9145105,-0.56665653,82.96187,37.04909
0.6529715,-0.067684576,-3.0168765,-0.037852198,76.94385,35.992924
0.42278856,0.43234605,-3.122614,-0.10453633,70.42312,34.027046
0.21865998,0.88438773,-3.236193,-1.1830603,63.04024,30.914043
0.035659082,1.2953845,-3.3688536,-3.2461634,54.94805,26.90197
-0.12809165,1.6616321,-3.5180047,-6.261648,46.017464,22.07081
-0.25321501,1.9815705,-3.6666267,-9.905799,36.30403,16.420921
-0.3192134,2.260554,-3.77088,-14.1278925,26.66174,10.4607525
-0.32450044,2.5221882,-3.8610153,-19.870352,17.05419,4.192312
-0.2158054,2.6766748,-3.8952096,-26.771324,8.453953,-2.2210615
-0.006951167,2.6421354,-3.8932433,-32.460457,1.2375561,-9.379035
0.34027535,2.4011621,-3.8415303,-35.58312,-4.78667,-16.664356
0.85377014,1.971721,-3.706428,-37.17421,-9.799826,-22.575567
1.4759258,1.4085197,-3.4466345,-37.58349,-12.537546,-24.857197
2.028174,0.8215849,-3.1037076,-37.774998,-13.350533,-24.090483
2.408771,0.26333916,-2.7771842,-36.99376,-12.776312,-20.98903
2.3244617,0.25412205,-2.6799803,-35.69894,-12.329128,-20.254395
2.243687,0.24529132,-2.5868514,-34.45841,-11.900693,-19.550556
2.166244,0.23682486,-2.4975636,-33.269043,-11.489929,-18.87575
2.0919464,0.22870228,-2.4119027,-32.127987,-11.095849,-18.228354
2.0206227,0.22090481,-2.3296702,-31.032602,-10.717543,-17.606869
1.9521146,0.21341515,-2.2506838,-29.980455,-10.35417,-17.009916
1.886275,0.20621723,-2.1747744,-28.969297,-10.0049515,-16.436218
1.8229684,0.1992962,-2.1017852,-27.997036,-9.6691675,-15.884589
1.7620682,0.1926383,-2.0315704,-27.061733,-9.3461485,-15.3539295
1.703457,0.18623061,-1.9639949,-26.161589,-9.03527,-14.843217
1.6470255,0.18006124,-1.8989323,-25.294916,-8.735953,-14.351496
1.5926713,0.17411897,-1.836265,-24.460148,-8.447655,-13.877876
1.540299,0.16839336,-1.7758825,-23.655817,-8.1698675,-13.421526
1.489819,0.16287462,-1.7176818,-22.880548,-7.9021177,-12.981664
1.4411473,0.15755358,-1.6615659,-22.133053,-7.643959,-12.557559
1.3942051,0.15242162,-1.607444,-21.412117,-7.3949738,-12.148524
1.3489182,0.14747062,-1.5552306,-20.716602,-7.1547685,-11.753913
1.3052166,0.14269294,-1.5048449,-20.045435,-6.9229712,-11.373115
1.2630343,0.13808136,-1.4562111,-19.397604,-6.6992335,-11.005556
1.2223091,0.13362908,-1.4092572,-18.77215,-6.4832244,-10.650694
1.1829822,0.12932967,-1.3639153,-18.168169,-6.274631,-10.308016
1.1449977,0.125177,-1.3201213,-17.584805,-6.0731583,-9.977035
1.1083028,0.12116533,-1.277814,-17.021248,-5.8785257,-9.65729
1.0728474,0.117289156,-1.2369357,-16.476725,-5.6904674,-9.348347
1.0385838,0.11354327,-1.1974316,-15.950505,-5.50873,-9.049787
1.0054665,0.10992274,-1.1592492,-15.441893,-5.3330736,-8.761217
0.9734527,0.10642282,-1.1223389,-14.950227,-5.16327,-8.482263
0.9425011,0.10303904,-1.0866535,-14.4748745,-4.9991,-8.2125635
0.91257274,0.09976712,-1.0521476,-14.015237,-4.840358,-7.9517803
0.88363016,0.09660296,-1.0187783,-13.570738,-4.686844,-7.6995864
0.8556376,0.09354268,-0.9865045,-13.14083,-4.5383697,-7.455671
0.82856107,0.09058253,-0.9552867,-12.72499,-4.3947535,-7.219737
0.80236787,0.087718956,-0.9250873,-12.322717,-4.2558227,-6.9915004
0.7770268,0.08494854,-0.8958704,-11.93353,-4.1214113,-6.7706885
0.7525079,0.08226801,-0.86760145,-11.556971,-3.9913614,-6.557041
0.7287826,0.07967424,-0.8402474,-11.192598,-3.8655202,-6.350309
0.7058233,0.07716421,-0.8137766,-10.839992,-3.7437427,-6.1502514
0.68360376,0.07473505,-0.78815866,-10.498745,-3.6258883,-5.9566393
0.6620986,0.072384,-0.76336426,-10.168469,-3.511823,-5.769252
0.6412834,0.07010838,-0.7393655,-9.848791,-3.401418,-5.5878773
0.62113494,0.06790565,-0.71613544,-9.539352,-3.2945487,-5.412312
0.60163075,0.065773346,-0.6936481,-9.239808,-3.1910968,-5.24236
0.58274907,0.06370911,-0.6718786,-8.949824,-3.0909472,-5.0778337
0.5644693,0.061710663,-0.6508029,-8.669085,-2.9939895,-4.9185505
0.5467712,0.059775822,-0.63039804,-8.397279,-2.9001176,-4.7643375
0.5296357,0.05790248,-0.61064166,-8.134112,-2.8092296,-4.6150255
0.5130441,0.056088604,-0.5915125,-7.8793,-2.7212265,-4.4704533
0.4969786,0.05433224,-0.57298976,-7.632567,-2.6360137,-4.3304653
0.4814219,0.052631497,-0.5550537,-7.3936477,-2.5534997,-4.1949105
0.46635732,0.050984565,-0.5376851,-7.162287,-2.473596,-4.063644
0.4517689,0.049389683,-0.5208654,-6.938239,-2.3962178,-3.9365265
0.4376411,0.047845162,-0.50457686,-6.7212653,-2.321283,-3.813423
0.42395905,0.04634937,-0.48880213,-6.511137,-2.2487123,-3.6942031
0.41070828,0.044900727,-0.47352472,-6.3076324,-2.1784291,-3.5787413
0.3978749,0.043497715,-0.4587285,-6.1105385,-2.11036,-3.4669166
0.38544545,0.042138867,-0.44439802,-5.9196477,-2.044433,-3.3586116
0.37340698,0.040822756,-0.4305183,-5.734761,-1.98058,-3.2537131
0.3617469,0.03954802,-0.41707486,-5.555687,-1.9187341,-3.1521122
0.35045314,0.03831333,-0.40405378,-5.382238,-1.8588312,-3.0537033
0.339514,0.037117403,-0.3914415,-5.2142353,-1.800809,-2.9583838
0.32891813,0.03595901,-0.37922502,-5.051504,-1.7446077,-2.866056
0.3186546,0.034836948,-0.36739174,-4.8938775,-1.6901691,-2.7766237
0.30871284,0.033750065,-0.3559294,-4.741193,-1.6374372,-2.6899953
0.2990826,0.032697238,-0.34482628,-4.5932927,-1.5863578,-2.6060817
0.28975406,0.031677395,-0.33407095,-4.450025,-1.5368785,-2.5247965
0.2807176,0.030689484,-0.32365242,-4.311244,-1.4889483,-2.4460566
0.271964,0.029732494,-0.31355998,-4.1768064,-1.4425186,-2.3697815
0.2634843,0.02880545,-0.30378333,-4.0465755,-1.3975415,-2.2958927
0.25526986,0.027907403,-0.2943125,-3.9204185,-1.3539714,-2.2243154
0.24731225,0.02703744,-0.28513783,-3.7982066,-1.3117636,-2.1549764
0.23960343,0.026194671,-0.27624997,-3.6798148,-1.2708756,-2.0878048
0.23213555,0.025378244,-0.26763988,-3.5651236,-1.2312652,-2.0227327
0.22490099,0.024587326,-0.25929883,-3.4540157,-1.1928927,-1.9596939
0.21789244,0.023821115,-0.25121835,-3.3463788,-1.1557187,-1.8986243
0.21110278,0.023078835,-0.24339023,-3.2421036,-1.1197058,-1.8394619
0.20452513,0.02235973,-0.23580654,-3.1410844,-1.0848174,-1.7821469
0.19815283,0.021663079,-0.22845961,-3.0432189,-1.0510181,-1.7266214
0.19197941,0.02098817,-0.22134201,-2.9484081,-1.018274,-1.6728289
0.18599868,0.020334326,-0.21444653,-2.8565562,-0.98655164,-1.6207151
0.18020454,0.019700881,-0.20776622,-2.7675705,-0.95581913,-1.5702276
0.17459118,0.019087201,-0.20129432,-2.6813607,-0.9260454,-1.5213151
0.16915293,0.018492663,-0.1950243,-2.5978405,-0.8972005,-1.4739285
0.1638843,0.01791667,-0.18894985,-2.516925,-0.86925524,-1.4280198
0.15877998,0.017358638,-0.18306483,-2.438533,-0.8421815,-1.3835428
0.15383482,0.016818007,-0.17736334,-2.3625858,-0.815952,-1.3404527
0.14904384,0.016294234,-0.1718396,-2.2890062,-0.7905403,-1.2987062
0.14440224,0.01578679,-0.16648807,-2.2177207,-0.7659208,-1.2582611
0.13990532,0.015295164,-0.16130336,-2.1486573,-0.7420688,-1.2190768
0.13554856,0.014818861,-0.15628025,-2.0817466,-0.7189603,-1.1811138
0.1313276,0.014357404,-0.15141371,-2.0169213,-0.69657195,-1.1443342
0.12723818,0.013910328,-0.14669883,-1.9541162,-0.67488134,-1.1087008
0.123276204,0.013477185,-0.14213088,-1.8932683,-0.6538667,-1.0741776
0.11943768,0.013057537,-0.13770527,-1.8343166,-0.6335069,-1.0407304
0.11571876,0.012650966,-0.13341755,-1.7772017,-0.61378145,-1.0083252
0.1121157,0.012257062,-0.12926342,-1.7218661,-0.59467053,-0.9769297
0.108624905,0.011875429,-0.12523872,-1.6682546,-0.57615507,-0.9465123
0.10524285,0.011505686,-0.12133939,-1.6163132,-0.5582164,-0.9170425
0.10196615,0.011147461,-0.11756153,-1.56599,-0.5408365,-0.88849074
0.098791525,0.010800394,-0.113901354,-1.5172342,-0.523998,-0.8608283
0.095715776,0.010464137,-0.11035518,-1.469997,-0.50768405,-0.8340275
0.092735834,0.010138355,-0.10691946,-1.4242313,-0.49187818,-0.80806154
0.0898487,0.009822719,-0.10359075,-1.3798908,-0.4765646,-0.78290427
0.08705149,0.009516913,-0.10036571,-1.3369313,-0.46172795,-0.7585305
0.084341384,0.009220631,-0.09724111,-1.2953099,-0.44735336,-0.7349158
0.08171569,0.008933576,-0.09421382,-1.2549845,-0.43342644,-0.71203655
0.079171754,0.008655461,-0.0912808,-1.215915,-0.41993323,-0.68986976
0.07670704,0.008386006,-0.08843912,-1.1780621,-0.4068602,-0.6683933
0.07431908,0.008124942,-0.08568593,-1.1413879,-0.39419428,-0.64758563
0.07200548,0.007872007,-0.08301847,-1.1058557,-0.38192272,-0.62742585
0.069763914,0.0076269475,-0.08043407,-1.07143,-0.37003332,-0.60789376
0.06759215,0.0073895194,-0.07793014,-1.0380762,-0.3585141,-0.58896995
0.06548801,0.0071594836,-0.07550418,-1.0057608,-0.34735355,-0.5706353
0.06344938,0.00693661,-0.07315375,-0.97445166,-0.33654052,-0.5528715
0.061474226,0.0067206766,-0.0708765,-0.94411737,-0.32606414,-0.53566086
0.059560567,0.0065114656,-0.06867015,-0.91472757,-0.31591395,-0.51898605
0.05770649,0.0063087684,-0.0665325,-0.88625276,-0.30607978,-0.5028304
0.05591014,0.0061123823,-0.0644614,-0.8586645,-0.2965518,-0.48717773
0.054169714,0.00592211,-0.06245479,-0.83193517,-0.28732044,-0.4720124
0.052483477,0.0057377615,-0.060510643,-0.806038,-0.2783765,-0.4573192
0.050849732,0.0055591525,-0.058627028,-0.7809471,-0.269711,-0.44308347
0.049266852,0.005386104,-0.05680205,-0.75663733,-0.2613153,-0.4292909
0.04773325,0.005218443,-0.055033892,-0.7330844,-0.25318092,-0.41592774
0.046247393,0.0050560012,-0.053320777,-0.7102646,-0.24529983,-0.4029806
0.044807795,0.004898617,-0.051660992,-0.68815535,-0.23766407,-0.3904365
0.04341301,0.004746132,-0.05005288,-0.66673434,-0.23026602,-0.37828293
0.042061646,0.004598394,-0.04849483,-0.6459802,-0.2230983,-0.3665077
0.04075235,0.0044552553,-0.046985283,-0.62587214,-0.21615368,-0.35509905
0.039483815,0.0043165726,-0.04552273,-0.60639,-0.20942527,-0.34404558
0.03825477,0.004182207,-0.044105705,-0.5875144,-0.20290631,-0.33333617
0.037063982,0.004052024,-0.042732794,-0.5692264,-0.19659029,-0.32296017
0.035910267,0.003925894,-0.04140262,-0.55150765,-0.19047089,-0.31290716
0.034792464,0.00380369,-0.040113855,-0.53434056,-0.18454197,-0.30316707
0.03370946,0.0036852902,-0.038865205,-0.5177078,-0.17879763,-0.29373023
0.032660168,0.0035705762,-0.037655428,-0.5015928,-0.1732321,-0.28458712
0.031643536,0.003459433,-0.03648331,-0.4859795,-0.16783981,-0.27572864
0.030658554,0.0033517499,-0.035347678,-0.4708522,-0.16261539,-0.2671459
