ax,ay,az,gx,gy,gz
3.528214,5.3945947,1.2618296,-72.52157,3.218211,17.090155
3.7439516,6.0046654,0.88407254,-73.76631,14.887739,-1.2310266
3.5885243,6.0975223,0.52404225,-76.29918,20.431734,-18.920475
3.6378472,5.885146,0.33259234,-78.34499,24.9179,-33.86244
3.849194,5.684258,0.1375353,-78.33769,30.550861,-54.000183
4.103851,5.1624255,-0.19005781,-76.0803,33.61592,-77.90103
4.550751,4.418042,-0.28995863,-74.56021,36.379562,-98.064964
5.088883,3.7581663,-0.21858573,-75.66013,42.83745,-110.50034
5.454503,3.0720165,-0.23111151,-78.48986,51.271767,-117.38669
5.502331,2.1946037,-0.35089993,-80.20609,59.503746,-119.6732
5.4519315,1.132515,-0.49091545,-80.88867,66.80275,-118.348305
5.3408856,0.10328481,-0.600768,-81.14484,73.34154,-113.72082
5.1957936,-0.9012231,-0.69955164,-80.25195,79.36175,-106.14062
5.0313244,-1.8451743,-0.79147464,-77.63626,84.987366,-96.02336
4.857321,-2.6602757,-0.89281774,-72.691414,90.107285,-84.052826
4.6485753,-3.3101113,-1.0197368,-66.23599,94.98946,-72.55817
4.3666816,-3.8158324,-1.1989266,-58.26807,98.93493,-62.073296
4.0167313,-4.175397,-1.4161682,-49.8088,101.40844,-52.41681
3.6280603,-4.4045086,-1.6496491,-41.17988,102.0626,-43.448513
3.2321417,-4.506067,-1.8859794,-33.029564,100.78511,-34.7596
2.8414278,-4.4549613,-2.0967824,-25.715303,98.80659,-26.338938
2.4642887,-4.285113,-2.2916574,-19.385878,95.85823,-18.434587
2.0890527,-4.0316105,-2.4767985,-13.548927,91.56384,-11.477212
1.7337364,-3.7240808,-2.6310701,-8.15557,86.20558,-5.8189397
1.4266593,-3.3562424,-2.739716,-3.1332238,80.174545,-2.0670102
1.1596502,-2.893068,-2.8157847,0.78022856,74.10554,0.47618765
0.90017456,-2.4143815,-2.8861268,3.2514875,67.92986,2.2328677
0.642844,-1.9634778,-2.9606164,4.462001,61.355465,3.4237397
0.39506108,-1.5564173,-3.0414639,4.582623,54.360622,4.1016197
0.16550976,-1.171033,-3.133618,3.5056717,46.60021,3.8357916
-0.047466855,-0.79792464,-3.247608,1.8084191,38.045,2.5394304
-0.22973499,-0.45471525,-3.3711152,-0.61451125,28.758486,0.3276353
-0.3825445,-0.14236534,-3.5123436,-3.7702806,18.50373,-2.819415
-0.48682615,0.10100987,-3.6628149,-7.532314,7.156334,-6.655011
-0.49506596,0.23145682,-3.7952113,-11.134225,-5.120097,-11.134803
-0.2790383,0.1780364,-3.8509047,-13.854892,-17.061544,-15.136811
0.19192712,-0.015842361,-3.7872531,-15.417753,-26.829865,-17.738466
0.8145765,-0.29116413,-3.6444845,-16.360683,-33.705666,-18.79083
1.4808276,-0.61797523,-3.4530473,-16.453041,-37.557457,-18.775352
1.4266801,-0.5953785,-3.3267841,-15.851423,-36.184143,-18.088818
1.3750261,-0.57382244,-3.2063358,-15.277513,-34.87407,-17.4339
1.3257025,-0.5532388,-3.091321,-14.729492,-33.6231,-16.808529
1.2785606,-0.5335657,-2.981394,-14.205712,-32.427467,-16.21082
1.2334653,-0.5147466,-2.8762388,-13.704671,-31.283735,-15.639056
1.1902928,-0.49673,-2.7755678,-13.224995,-30.188776,-15.091675
1.1489303,-0.47946867,-2.6791172,-12.765428,-29.139719,-14.567241
1.1092739,-0.46291935,-2.586645,-12.324817,-28.133934,-14.064438
1.0712281,-0.4470422,-2.4979286,-11.902102,-27.169,-13.582059
1.0347053,-0.43180057,-2.412763,-11.496307,-26.242691,-13.118986
0.99962413,-0.4171606,-2.3309596,-11.10653,-25.352945,-12.674193
0.9659095,-0.4030909,-2.2523427,-10.731937,-24.497858,-12.246727
0.9334918,-0.38956246,-2.17675,-10.371755,-23.675667,-11.835706
0.90230656,-0.37654826,-2.104031,-10.025264,-22.88473,-11.440308
0.8722934,-0.36402327,-2.0340452,-9.691796,-22.123522,-11.0597725
0.84339637,-0.35196403,-1.966662,-9.370729,-21.390621,-10.693388
0.8155631,-0.34034872,-1.9017595,-9.061482,-20.684702,-10.340491
0.7887447,-0.32915694,-1.8392234,-8.763511,-20.00452,-10.000462
0.7628953,-0.3183695,-1.7789468,-8.476306,-19.348915,-9.672718
0.73797184,-0.30796853,-1.7208295,-8.1993885,-18.716795,-9.356715
0.71393406,-0.29793712,-1.6647772,-7.932312,-18.107136,-9.051941
0.6907438,-0.28825945,-1.6107014,-7.674652,-17.518976,-8.757913
0.6683654,-0.27892056,-1.5585186,-7.4260125,-16.951403,-8.474178
0.64676505,-0.26990634,-1.5081501,-7.186017,-16.403564,-8.200308
0.6259109,-0.26120353,-1.4595215,-6.954312,-15.87465,-7.9358983
0.6057726,-0.25279948,-1.4125625,-6.7305617,-15.363894,-7.6805663
0.58632183,-0.24468233,-1.3672063,-6.5144496,-14.870574,-7.4339504
0.56753135,-0.23684074,-1.3233901,-6.3056746,-14.394002,-7.1957073
0.5493756,-0.22926402,-1.2810539,-6.103951,-13.933526,-6.965511
0.53183013,-0.221942,-1.2401407,-5.9090085,-13.488529,-6.7430525
0.5148717,-0.21486495,-1.2005965,-5.7205887,-13.058422,-6.5280375
0.4984783,-0.2080237,-1.1623697,-5.5384464,-12.642645,-6.320186
0.48262888,-0.20140946,-1.1254115,-5.362348,-12.2406645,-6.119232
0.46730337,-0.19501385,-1.089675,-5.192071,-11.851972,-5.9249206
0.45248267,-0.18882892,-1.0551155,-5.0274024,-11.476082,-5.7370095
0.43814847,-0.18284701,-1.0216904,-4.8681393,-11.112531,-5.5552664
0.4242833,-0.17706083,-0.98935914,-4.7140875,-10.760876,-5.379471
0.4108705,-0.17146343,-0.9580826,-4.5650616,-10.420693,-5.20941
0.39789402,-0.16604812,-0.9278236,-4.4208837,-10.0915785,-5.044882
0.38533857,-0.16080852,-0.8985464,-4.281384,-9.773141,-4.885692
0.37318948,-0.15573849,-0.8702167,-4.146399,-9.465011,-4.731654
0.36143267,-0.15083216,-0.8428018,-4.015773,-9.166828,-4.5825906
0.35005465,-0.14608392,-0.8162701,-3.8893547,-8.878254,-4.4383287
0.33904243,-0.14148833,-0.7905914,-3.7670012,-8.598956,-4.298705
0.32838356,-0.1370402,-0.7657367,-3.6485736,-8.328621,-4.1635623
0.31806612,-0.13273454,-0.74167806,-3.5339394,-8.066945,-4.0327473
0.30807853,-0.12856655,-0.7183886,-3.42297,-7.813635,-3.906115
0.29840976,-0.1245316,-0.6958426,-3.3155434,-7.568411,-3.7835252
0.28904915,-0.12062526,-0.6740153,-3.2115405,-7.3310027,-3.6648426
0.27998647,-0.116843246,-0.6528826,-3.1108477,-7.101151,-3.5499372
0.27121186,-0.11318144,-0.6324216,-3.0133555,-6.878605,-3.4386842
0.26271576,-0.109635875,-0.6126101,-2.918958,-6.6631227,-3.3309627
0.25448906,-0.10620272,-0.59342676,-2.8275533,-6.454473,-3.2266564
0.24652289,-0.1028783,-0.574851,-2.7390435,-6.2524314,-3.1256537
0.23880874,-0.099659055,-0.55686283,-2.653334,-6.0567813,-3.0278463
0.23133841,-0.096541554,-0.53944325,-2.5703332,-5.8673153,-2.9331303
0.22410396,-0.0935225,-0.5225737,-2.4899533,-5.6838317,-2.841405
0.21709774,-0.09059868,-0.5062364,-2.4121094,-5.506137,-2.7525735
0.2103124,-0.087767035,-0.49041405,-2.3367195,-5.3340435,-2.6665423
0.20374078,-0.08502458,-0.4750901,-2.263704,-5.167371,-2.583221
0.197376,-0.08236845,-0.46024847,-2.192987,-5.0059443,-2.5025222
0.19121142,-0.07979587,-0.4458737,-2.124494,-4.8495955,-2.424362
0.18524063,-0.07730415,-0.43195078,-2.0581543,-4.698161,-2.3486583
0.17945741,-0.07489071,-0.41846526,-1.9938986,-4.5514846,-2.2753332
0.17385577,-0.072553046,-0.40540314,-1.9316604,-4.409413,-2.2043102
0.16842991,-0.07028874,-0.39275095,-1.8713753,-4.2718,-2.135516
0.16317424,-0.06809546,-0.38049558,-1.8129811,-4.138503,-2.0688796
0.15808333,-0.065970935,-0.36862445,-1.7564176,-4.009385,-2.0043323
0.15315197,-0.06391299,-0.3571253,-1.7016267,-3.8843136,-1.9418076
0.14837508,-0.06191951,-0.34598637,-1.648552,-3.7631595,-1.8812416
0.14374776,-0.059988447,-0.33519623,-1.5971392,-3.6457994,-1.822572
0.13926527,-0.05811783,-0.3247438,-1.5473356,-3.5321126,-1.7657388
0.13492306,-0.056305744,-0.31461844,-1.4990904,-3.421983,-1.710684
0.13071665,-0.054550342,-0.3048098,-1.4523544,-3.3152983,-1.6573511
0.1266418,-0.05284983,-0.2953079,-1.4070798,-3.2119496,-1.6056862
0.12269432,-0.05120248,-0.28610304,-1.3632206,-3.111832,-1.5556363
0.11887022,-0.049606618,-0.27718586,-1.3207321,-3.0148432,-1.5071507
0.115165606,-0.04806062,-0.26854733,-1.2795713,-2.920885,-1.46018
0.11157672,-0.046562914,-0.26017863,-1.2396963,-2.829862,-1.4146767
0.108099915,-0.045111984,-0.2520713,-1.2010665,-2.7416818,-1.3705945
0.10473168,-0.04370636,-0.24421711,-1.163643,-2.656255,-1.3278887
0.1014686,-0.04234462,-0.23660815,-1.1273879,-2.5734951,-1.2865163
0.09830737,-0.04102538,-0.22923668,-1.0922644,-2.4933186,-1.2464352
0.095244795,-0.039747316,-0.22209525,-1.058237,-2.415644,-1.2076049
0.09227779,-0.03850913,-0.21517667,-1.0252714,-2.3403933,-1.1699862
0.08940334,-0.037309576,-0.20847394,-0.9933343,-2.2674901,-1.1335413
0.08661856,-0.036147438,-0.2019803,-0.9623934,-2.1968613,-1.0982332
0.083920635,-0.035021547,-0.19568917,-0.9324176,-2.1284354,-1.0640264
0.08130685,-0.03393077,-0.18959425,-0.9033766,-2.0621433,-1.0308863
0.07877457,-0.032874003,-0.1836894,-0.87524116,-1.9979184,-0.9987796
0.076321244,-0.03185019,-0.17796864,-0.847983,-1.935696,-0.967674
0.073944405,-0.030858291,-0.17242624,-0.8215746,-1.8754133,-0.93753815
0.071641654,-0.029897314,-0.1670566,-0.79598945,-1.8170099,-0.90834165
0.06941068,-0.02896629,-0.16185434,-0.7712018,-1.760427,-0.88005525
0.067249246,-0.028064284,-0.15681422,-0.74718666,-1.7056075,-0.85265046
0.06515517,-0.02719039,-0.15193118,-0.72392,-1.6524966,-0.82609975
0.06312635,-0.026343727,-0.1472003,-0.70137835,-1.6010406,-0.8003764
0.061160747,-0.025523447,-0.14261684,-0.67953914,-1.5511881,-0.77545464
0.05925639,-0.024728727,-0.13817619,-0.6583804,-1.5028889,-0.75130934
0.057411365,-0.023958765,-0.1338739,-0.63788086,-1.4560945,-0.72791636
0.055623822,-0.023212792,-0.12970564,-0.61802,-1.410758,-0.7052522
0.053891964,-0.022490058,-0.12566723,-0.59877783,-1.3668338,-0.68329406
0.05221406,-0.021789838,-0.12175463,-0.5801351,-1.3242779,-0.6620199
0.050588418,-0.02111143,-0.1179639,-0.56207305,-1.2830477,-0.6414085
0.049013413,-0.020454153,-0.11429125,-0.54457366,-1.2431016,-0.6214391
0.047487464,-0.019817349,-0.11073299,-0.5276193,-1.2043998,-0.60209167
0.046009045,-0.019200377,-0.10728555,-0.511193,-1.1669034,-0.5833468
0.044576667,-0.01860262,-0.103945486,-0.4952783,-1.1305747,-0.5651858
0.0431889,-0.018023482,-0.10070944,-0.4798592,-1.0953776,-0.5475903
0.041844353,-0.017462378,-0.097574174,-0.46492034,-1.0612764,-0.53054285
0.040541675,-0.016918749,-0.09453654,-0.45044667,-1.0282373,-0.5140262
0.039279565,-0.016392048,-0.091593504,-0.43642372,-0.9962271,-0.498024
0.038056754,-0.015881747,-0.088742115,-0.42283744,-0.9652136,-0.48252004
0.03687202,-0.015387339,-0.085979514,-0.40967423,-0.9351658,-0.46749887
0.035724178,-0.014908324,-0.08330293,-0.3969209,-0.9060537,-0.45294544
0.03461208,-0.014444225,-0.080709696,-0.38456467,-0.8778481,-0.43884513
0.033534605,-0.013994576,-0.0781972,-0.37259316,-0.8505207,-0.4251839
0.032490678,-0.013558928,-0.07576294,-0.36099443,-0.82404417,-0.411948
0.031479258,-0.013136844,-0.07340447,-0.3497568,-0.798392,-0.39912423
0.030499326,-0.012727901,-0.07111943,-0.33886907,-0.7735385,-0.38669974
0.029549904,-0.012331691,-0.06890553,-0.32832032,-0.7494588,-0.37466204
0.028630042,-0.011947816,-0.06676057,-0.3181,-0.7261288,-0.36299914
0.027738819,-0.0115758935,-0.06468238,-0.3081979,-0.7035252,-0.35169935
0.026875341,-0.01121555,-0.0626689,-0.29860404,-0.68162525,-0.34075138
0.026038747,-0.010866424,-0.060718093,-0.2893089,-0.6604072,-0.33014423
0.025228199,-0.010528168,-0.058828026,-0.28030312,-0.63984966,-0.3198673
0.024442883,-0.010200442,-0.0569968,-0.27157772,-0.6199321,-0.30991033
0.023682017,-0.0098829195,-0.055222582,-0.26312396,-0.60063463,-0.30026335
0.022944838,-0.009575281,-0.0535036,-0.25493336,-0.5819379,-0.29091665
0.022230607,-0.00927722,-0.05183813,-0.24699774,-0.5638233,-0.28186095
0.02153861,-0.008988438,-0.05022451,-0.23930918,-0.5462725,-0.27308717
0.020868156,-0.008708646,-0.04866112,-0.23185997,-0.52926815,-0.2645865
0.020218574,-0.008437564,-0.047146402,-0.22464265,-0.5127931,-0.2563505
0.019589214,-0.00817492,-0.045678835,-0.21765001,-0.496831,-0.24837084
0.018979445,-0.007920453,-0.044256955,-0.21087505,-0.48136577,-0.24063961
0.018388659,-0.007673908,-0.04287934,-0.204311,-0.46638194,-0.23314905
0.017816262,-0.0074350373,-0.041544605,-0.19795127,-0.45186457,-0.22589168
0.017261686,-0.0072036027,-0.040251423,-0.19178952,-0.43779913,-0.21886021
0.016724372,-0.0069793724,-0.038998492,-0.1858196,-0.4241715,-0.21204764
0.016203783,-0.006762122,-0.03778457,-0.18003549,-0.41096812,-0.20544712
0.015699401,-0.006551634,-0.03660843,-0.17443144,-0.39817572,-0.19905208
