ax,ay,az,gx,gy,gz
-1.1836472,6.450968,-0.5527323,-25.191137,-33.18121,21.418377
-0.25708702,7.49254,-0.38276112,-37.325733,-37.204872,6.734914
0.5867273,7.8623905,-0.14757353,-52.12811,-35.043903,-3.725939
1.400045,8.026316,0.07020085,-66.5311,-29.33379,-11.166392
2.0641744,8.023097,0.20176555,-78.23597,-21.655201,-18.681574
2.533475,7.875298,0.18657929,-87.984985,-13.768581,-27.59973
2.8869426,7.4616323,0.093723886,-96.45642,-7.203758,-35.60377
3.254145,6.943056,0.05002693,-105.427765,0.27470168,-42.266468
3.5731914,6.2814274,-0.046999093,-114.345924,8.526074,-47.93782
3.7990189,5.3953137,-0.22985685,-120.88419,16.436926,-52.82854
3.9695244,4.2635756,-0.44673523,-123.46566,23.898863,-56.67964
4.1659083,2.8651736,-0.63086736,-124.09211,31.215605,-57.785793
4.352864,1.4336282,-0.7613889,-123.71475,38.831844,-55.3356
4.449643,0.0650753,-0.8827528,-121.666855,46.574585,-50.22834
4.430369,-1.1218288,-1.0175856,-116.7074,54.336716,-43.695885
4.312268,-2.0852487,-1.2251332,-108.20976,60.538044,-36.595596
4.1253843,-2.839565,-1.4511573,-98.48504,64.76082,-29.053127
3.9206812,-3.405767,-1.6339886,-88.38214,68.07823,-20.892498
3.6996388,-3.786626,-1.8048092,-78.27855,70.6293,-12.461248
3.466528,-3.98943,-1.9670464,-68.46041,72.84188,-4.122022
3.2115815,-4.037607,-2.1472707,-59.084835,73.880104,3.9347184
2.9212537,-3.9289086,-2.331845,-50.060814,73.672775,11.208725
2.6379535,-3.7108335,-2.4837198,-41.677143,72.62394,17.514008
2.366182,-3.3947148,-2.6180606,-33.844833,71.09229,22.794485
2.086045,-2.9722137,-2.7420592,-26.781021,69.04249,26.787052
1.7698219,-2.4872117,-2.873446,-21.269213,65.61674,29.32531
1.4294249,-1.9723169,-2.982797,-17.49458,61.417248,30.893276
1.0999643,-1.4315642,-3.0751657,-14.879744,56.568935,31.400429
0.7960208,-0.86176145,-3.1733441,-13.658075,50.81582,30.568632
0.5065412,-0.30860087,-3.2977054,-13.5556,43.570797,28.165709
0.22676104,0.17821492,-3.4617622,-14.194898,33.348858,24.271765
-0.011626623,0.61935735,-3.6489823,-16.408754,20.96286,19.499352
-0.14463024,1.024112,-3.8129878,-20.307657,7.754245,14.109674
-0.15422004,1.331461,-3.9706447,-25.683598,-6.0869117,8.491071
-0.020191336,1.3988609,-4.0173383,-31.363335,-18.569626,2.46548
0.28065753,1.2543643,-3.9690177,-35.336285,-26.907084,-3.472145
0.72523445,0.86739,-3.895112,-37.36094,-32.433987,-8.4264145
1.2301521,0.36016932,-3.7978299,-38.302704,-36.08264,-11.69719
1.742766,-0.1922924,-3.6408575,-38.899147,-37.873093,-12.719725
2.1630247,-0.7283721,-3.4531343,-38.760044,-38.099575,-11.975658
2.4473107,-1.211342,-3.2619274,-37.257256,-37.237244,-10.218393
2.587304,-1.6203673,-3.072997,-32.83811,-35.174614,-8.264555
2.6481009,-1.9530883,-2.9145422,-26.595993,-32.32422,-6.5230246
2.554701,-1.8842021,-2.8117452,-25.65794,-31.184128,-6.2929544
2.465284,-1.8182533,-2.7133315,-24.759888,-30.092655,-6.0726953
2.3796158,-1.7550691,-2.6190434,-23.899485,-29.046938,-5.8616695
2.297481,-1.6944913,-2.5286446,-23.074572,-28.044355,-5.6593485
2.2186825,-1.6363739,-2.4419177,-22.283163,-27.082495,-5.4652452
2.1430378,-1.5805826,-2.358662,-21.523432,-26.159134,-5.278911
2.0703793,-1.5269938,-2.2786925,-20.79369,-25.27222,-5.099932
2.000551,-1.4754924,-2.2018385,-20.092377,-24.419857,-4.927925
1.9334089,-1.4259722,-2.127941,-19.41804,-23.600283,-4.762535
1.8688191,-1.3783345,-2.0568523,-18.769339,-22.811865,-4.603432
1.8066572,-1.3324875,-1.9884359,-18.14502,-22.05308,-4.4503098
1.7468069,-1.2883452,-1.9225637,-17.543917,-21.322514,-4.3028817
1.6891598,-1.245828,-1.8591164,-16.964945,-20.618841,-4.1608806
1.6336147,-1.2048612,-1.7979826,-16.40708,-19.940825,-4.024057
1.5800765,-1.1653744,-1.7390575,-15.869373,-19.287308,-3.892177
1.5284561,-1.1273022,-1.6822433,-15.350928,-18.6572,-3.7650216
1.47867,-1.0905827,-1.627448,-14.850906,-18.049482,-3.6423843
1.4306394,-1.0551581,-1.5745847,-14.368515,-17.463194,-3.5240712
1.3842902,-1.0209737,-1.5235721,-13.90301,-16.89743,-3.4099
1.3395524,-0.9879776,-1.4743329,-13.45369,-16.351336,-3.299698
1.29636,-0.9561214,-1.4267948,-13.019891,-15.824105,-3.193303
1.2546506,-0.92535883,-1.3808886,-12.600985,-15.314976,-3.090561
1.2143649,-0.8956464,-1.3365495,-12.196379,-14.823226,-2.9913259
1.175447,-0.8669427,-1.2937158,-11.80551,-14.348171,-2.8954597
1.1378435,-0.83920854,-1.2523289,-11.427842,-13.889162,-2.8028316
1.101504,-0.81240666,-1.212333,-11.062869,-13.445581,-2.7133174
1.0663805,-0.7865015,-1.1736755,-10.710109,-13.016844,-2.6267982
1.0324272,-0.76145947,-1.1363059,-10.369102,-12.60239,-2.5431614
0.9996005,-0.7372484,-1.1001763,-10.03941,-12.20169,-2.4623
0.96785897,-0.7138377,-1.0652411,-9.720615,-11.814235,-2.3841116
0.93716294,-0.69119805,-1.0314566,-9.412323,-11.439542,-2.3084986
0.9074746,-0.66930157,-0.9987811,-9.114149,-11.077148,-2.2353675
0.8787576,-0.6481216,-0.96717477,-8.825733,-10.726613,-2.1646297
0.85097754,-0.6276326,-0.93659955,-8.546726,-10.387514,-2.0961995
0.82410127,-0.60781014,-0.9070191,-8.276796,-10.059446,-2.0299954
0.79809695,-0.58863086,-0.8783983,-8.015624,-9.742023,-1.9659395
0.77293426,-0.5700723,-0.8507039,-7.7629046,-9.434874,-1.9039567
0.7485841,-0.552113,-0.8239037,-7.5183454,-9.137641,-1.8439753
0.7250184,-0.5347323,-0.7979669,-7.2816653,-8.849985,-1.7859262
0.70221037,-0.51791036,-0.772864,-7.0525947,-8.571577,-1.7297436
0.6801342,-0.5016282,-0.74856657,-6.830874,-8.302103,-1.6753637
0.6587651,-0.4858676,-0.7250474,-6.6162553,-8.04126,-1.6227255
0.63807917,-0.4706109,-0.7022802,-6.4084983,-7.788756,-1.5717703
0.6180537,-0.45584118,-0.6802398,-6.2073736,-7.544313,-1.5224417
0.59866637,-0.44154224,-0.6589019,-6.012659,-7.307661,-1.4746854
0.57989615,-0.42769837,-0.638243,-5.8241415,-7.078541,-1.4284489
0.5617225,-0.41429454,-0.61824083,-5.641616,-6.8567033,-1.3836821
0.5441258,-0.4013162,-0.59887356,-5.4648848,-6.641907,-1.3403363
0.527087,-0.38874933,-0.5801204,-5.2937565,-6.433922,-1.2983649
0.51058775,-0.37658045,-0.5619611,-5.128048,-6.2325234,-1.2577227
0.49461055,-0.36479658,-0.5443763,-4.967582,-6.0374966,-1.2183663
0.4791383,-0.35338515,-0.5273473,-4.812188,-5.848634,-1.1802537
0.46415463,-0.34233403,-0.51085603,-4.6617007,-5.6657343,-1.1433448
0.44964367,-0.33163157,-0.49488506,-4.515961,-5.4886055,-1.1076001
0.43559015,-0.32126647,-0.4794175,-4.3748155,-5.31706,-1.0729823
0.42197928,-0.3112279,-0.46443716,-4.238116,-5.150918,-1.0394548
0.40879682,-0.30150527,-0.44992834,-4.1057186,-4.9900055,-1.0069827
0.396029,-0.29208845,-0.4358759,-3.9774864,-4.834154,-0.97553194
0.38366255,-0.28296766,-0.42226517,-3.8532846,-4.6832023,-0.94506985
0.37168458,-0.27413338,-0.40908203,-3.732985,-4.5369925,-0.9155647
0.3600827,-0.26557648,-0.3963128,-3.6164622,-4.3953733,-0.88698596
0.3488449,-0.25728813,-0.3839443,-3.5035963,-4.2581983,-0.8593041
0.3379596,-0.24925974,-0.37196374,-3.3942704,-4.125326,-0.83249044
0.32741553,-0.24148305,-0.36035877,-3.288372,-3.9966192,-0.8065174
0.31720188,-0.23395005,-0.3491175,-3.1857922,-3.8719459,-0.78135836
0.30730817,-0.22665301,-0.33822832,-3.0864255,-3.7511775,-0.75698733
0.29772428,-0.21958447,-0.3276801,-2.9901705,-3.634191,-0.7333795
0.28844035,-0.21273717,-0.3174621,-2.896928,-3.5208662,-0.7105105
0.27944693,-0.20610413,-0.30756378,-2.8066032,-3.4110873,-0.6883571
0.27073482,-0.19967857,-0.29797506,-2.7191038,-3.3047423,-0.66689676
0.26229513,-0.19345395,-0.28868622,-2.6343405,-3.2017229,-0.6461074
0.25411928,-0.18742391,-0.27968776,-2.552227,-3.101924,-0.625968
0.24619897,-0.18158233,-0.27097055,-2.47268,-3.005244,-0.606458
0.23852614,-0.17592329,-0.26252568,-2.3956184,-2.9115849,-0.5875576
0.23109297,-0.17044102,-0.25434464,-2.320964,-2.8208518,-0.56924766
0.22389197,-0.16512997,-0.2464191,-2.2486415,-2.732952,-0.55150956
0.21691583,-0.15998477,-0.23874104,-2.1785772,-2.6477973,-0.5343253
0.21015747,-0.15500018,-0.2313027,-2.1107001,-2.5653012,-0.51767755
0.20361006,-0.15017119,-0.2240965,-2.0449417,-2.4853797,-0.5015494
0.197267,-0.1454929,-0.21711522,-1.9812355,-2.4079525,-0.48592463
0.19112185,-0.14096059,-0.21035177,-1.9195173,-2.3329415,-0.4707874
0.18516842,-0.13656968,-0.20379934,-1.8597244,-2.2602706,-0.4561224
0.1794007,-0.13231574,-0.1974513,-1.8017968,-2.1898665,-0.4419149
0.17381287,-0.12819448,-0.19130124,-1.7456759,-2.1216583,-0.42815048
0.16839932,-0.124201745,-0.185343,-1.6913053,-2.0555773,-0.41481534
0.16315456,-0.120333515,-0.17957053,-1.63863,-1.991557,-0.40189603
0.15807334,-0.116585895,-0.17397806,-1.5875971,-1.9295326,-0.38937953
0.15315053,-0.11295511,-0.16855992,-1.5381553,-1.869442,-0.37725323
0.14838117,-0.1094375,-0.16331069,-1.4902546,-1.8112246,-0.36550498
0.14376047,-0.10602954,-0.15822509,-1.4438471,-1.7548218,-0.35412288
0.13928379,-0.10272779,-0.15329798,-1.3988858,-1.7001768,-0.34309554
0.13494663,-0.09952895,-0.14852443,-1.3553259,-1.6472349,-0.3324119
0.13074462,-0.09642979,-0.14389963,-1.3131233,-1.5959429,-0.32206115
0.12667355,-0.093427196,-0.13941894,-1.2722359,-1.546249,-0.31203294
0.122729324,-0.09051816,-0.13507786,-1.2326224,-1.4981036,-0.3023172
0.11890799,-0.08769976,-0.13087204,-1.1942431,-1.4514582,-0.29290417
0.115205705,-0.08496917,-0.12679726,-1.1570594,-1.4062661,-0.2837844
0.11161876,-0.08232364,-0.1228494,-1.1210343,-1.3624817,-0.27494872
0.108143546,-0.07976052,-0.11902453,-1.0861312,-1.3200613,-0.2663883
0.10477659,-0.07727725,-0.1153188,-1.0523155,-1.2789624,-0.25809452
0.10151451,-0.074871324,-0.1117285,-1.019553,-1.2391436,-0.25005907
0.09835403,-0.07254033,-0.10825002,-0.98781097,-1.200565,-0.24227391
0.09529199,-0.070281945,-0.10487989,-0.9570576,-1.163188,-0.23473123
0.09232531,-0.06809389,-0.10161472,-0.927262,-1.1269749,-0.22742346
0.08945102,-0.06597398,-0.098451234,-0.89839435,-1.0918899,-0.22034328
0.08666625,-0.063920096,-0.09538627,-0.8704257,-1.0578973,-0.2134836
0.0839682,-0.061930165,-0.09241675,-0.84332806,-1.0249634,-0.20683753
0.08135417,-0.060002204,-0.08953971,-0.81707424,-0.99305505,-0.20039843
0.07882154,-0.05813428,-0.08675225,-0.79163796,-0.9621403,-0.19415984
0.07636777,-0.05632452,-0.084051594,-0.7669937,-0.9321883,-0.18811552
0.07399041,-0.054571114,-0.08143503,-0.74311686,-0.9031688,-0.1822594
0.07168707,-0.052872304,-0.07889994,-0.7199835,-0.875053,-0.17658563
0.06945545,-0.05122639,-0.07644379,-0.6975704,-0.8478126,-0.17108852
0.06729332,-0.049631722,-0.07406411,-0.67585516,-0.8214204,-0.16576256
0.0651985,-0.048086707,-0.07175852,-0.6548161,-0.79584986,-0.16060244
0.06316891,-0.046589796,-0.06952472,-0.634432,-0.77107555,-0.15560298
0.06120251,-0.045139488,-0.06736047,-0.6146826,-0.7470725,-0.15075918
0.059297334,-0.043734334,-0.0652636,-0.5955481,-0.7238168,-0.14606617
0.057451468,-0.04237293,-0.06323201,-0.5770093,-0.7012851,-0.1415193
0.05566307,-0.041053914,-0.06126367,-0.5590477,-0.679455,-0.13711396
0.053930353,-0.039775956,-0.05935661,-0.5416453,-0.6583044,-0.13284577
0.052251577,-0.03853779,-0.057508927,-0.5247846,-0.6378123,-0.12871048
0.050625067,-0.037338167,-0.05571876,-0.5084489,-0.61795825,-0.12470392
0.04904919,-0.03617589,-0.05398433,-0.4926217,-0.5987222,-0.120822094
0.047522373,-0.0350498,-0.05230389,-0.47728726,-0.58008504,-0.11706111
0.04604309,-0.033958763,-0.050675765,-0.46243018,-0.56202805,-0.113417216
0.04460986,-0.03290169,-0.049098328,-0.4480356,-0.5445332,-0.10988675
0.043221243,-0.03187753,-0.047569994,-0.43408915,-0.52758294,-0.1064662
0.041875854,-0.030885248,-0.04608924,-0.42057687,-0.5111604,-0.103152126
0.04057235,-0.029923856,-0.04465458,-0.40748522,-0.4952491,-0.099941224
0.039309423,-0.028992392,-0.043264583,-0.3948011,-0.47983307,-0.09683028
0.03808581,-0.028089926,-0.041917857,-0.38251185,-0.46489698,-0.093816176
0.03690029,-0.027215552,-0.04061305,-0.37060517,-0.45042583,-0.0908959
0.03575167,-0.026368398,-0.039348867,-0.3590691,-0.43640515,-0.088066526
0.03463881,-0.025547614,-0.038124032,-0.34789217,-0.42282093,-0.08532523
0.033560593,-0.02475238,-0.036937326,-0.33706316,-0.40965956,-0.08266927
0.032515936,-0.023981903,-0.03578756,-0.32657126,-0.39690793,-0.080095984
