ax,ay,az,gx,gy,gz
1.5091046,7.481886,0.13091028,-2.6082056,-37.23216,9.210993
2.566335,8.367692,0.7070016,-10.496972,-27.98386,4.037041
3.1055906,9.087159,0.71217173,-26.789713,-21.99758,-6.2028074
3.3527017,9.5405035,0.6164099,-42.539482,-16.926247,-19.626146
3.5447412,9.61913,0.50129855,-53.739567,-14.35725,-32.818317
3.8014588,9.415391,0.51101303,-62.82553,-11.991365,-42.95237
4.08799,9.059801,0.6013576,-71.78658,-7.091486,-50.59465
4.314566,8.5580435,0.65622854,-83.15234,1.4390123,-57.620785
4.475608,7.733062,0.5776176,-92.63988,9.978158,-63.8784
4.6294723,6.677676,0.46315402,-99.36854,17.989752,-68.830284
4.761413,5.4009547,0.3534479,-103.45012,25.83059,-72.19647
4.8260784,3.9714189,0.2557978,-105.22254,33.901108,-72.87549
4.795529,2.5102723,0.15400267,-103.51503,42.09467,-69.28407
4.659682,1.1906186,0.029606499,-99.81731,49.70702,-63.60157
4.5068617,0.03916514,-0.08545718,-95.14251,57.0622,-56.481834
4.3538737,-0.9676716,-0.1950067,-89.75345,64.76752,-48.7426
4.1658707,-1.8170791,-0.37246254,-83.64704,72.3033,-40.04358
3.8800306,-2.4992998,-0.6715072,-73.98881,76.88116,-29.990698
3.4614882,-2.9639404,-1.00214,-62.6119,79.094604,-20.577265
3.0663266,-3.2192776,-1.2930019,-51.005066,79.66359,-11.543555
2.727457,-3.2414553,-1.5421168,-40.55696,79.32508,-3.055241
2.4116037,-3.037746,-1.7844058,-31.018402,77.86918,4.454831
2.0873425,-2.6457078,-2.0142205,-22.91372,74.78205,10.449341
1.7852849,-2.1092908,-2.1718833,-16.57009,71.17286,15.497069
1.5120606,-1.4849106,-2.2803013,-12.2335415,67.32327,19.326376
1.2433255,-0.82344437,-2.3676496,-9.6352625,63.31775,21.93292
0.9591896,-0.18219298,-2.4521363,-8.376922,58.86728,23.02303
0.6801215,0.41624072,-2.53921,-8.421895,53.357708,21.781693
0.43775266,0.9347197,-2.634889,-8.768866,47.164616,18.969633
0.24134469,1.3751324,-2.7444136,-9.498709,40.161304,14.99034
0.09757923,1.732165,-2.860234,-11.165464,32.47688,10.413564
0.0050286697,2.0269508,-2.9786704,-13.785701,24.457512,5.584193
-0.05032106,2.2497478,-3.1124327,-16.827164,16.089651,-0.03271552
-0.07209897,2.3213553,-3.2867794,-19.314709,6.7566037,-6.1498466
0.018235473,2.236409,-3.393274,-22.17462,-3.2430098,-11.685107
0.24834934,2.0564938,-3.360969,-25.554955,-12.254119,-14.931839
0.5560588,1.8402447,-3.2488647,-28.609793,-19.124735,-16.218487
0.89509094,1.5346861,-3.1201248,-30.09528,-24.128416,-17.304857
1.3191295,1.0767324,-2.9187236,-30.746908,-27.79057,-18.282543
1.767823,0.5784242,-2.633338,-30.316715,-29.443613,-18.03808
2.1539264,0.09890121,-2.3193502,-28.995872,-29.009594,-16.147491
2.0766628,0.09535352,-2.236153,-27.95576,-27.96899,-15.568264
2.002817,0.091962755,-2.1566355,-26.961655,-26.974415,-15.014658
1.9321767,0.08871919,-2.08057,-26.010706,-26.023016,-14.485085
1.8645487,0.085613936,-2.0077481,-25.100307,-25.112186,-13.978093
1.7997558,0.08263886,-1.937979,-24.228073,-24.23954,-13.492355
1.7376355,0.0797865,-1.8710878,-23.391819,-23.40289,-13.026654
1.6780384,0.07705,-1.8069135,-22.589529,-22.60022,-12.579867
1.6208267,0.07442302,-1.7453079,-21.819353,-21.82968,-12.150965
1.5658734,0.07189975,-1.6861341,-21.079578,-21.089554,-11.738993
1.5130607,0.069474764,-1.6292654,-20.368622,-20.378262,-11.343068
1.4622797,0.06714307,-1.5745844,-19.685015,-19.69433,-10.962375
1.413429,0.06490001,-1.521982,-19.027393,-19.036398,-10.596152
1.3664145,0.06274126,-1.4713567,-18.394491,-18.403196,-10.243696
1.3211485,0.060662787,-1.4226141,-17.785126,-17.793543,-9.904346
1.2775488,0.05866083,-1.3756659,-17.19819,-17.206331,-9.577489
1.2355387,0.05673187,-1.3304294,-16.632658,-16.64053,-9.262549
1.1950465,0.054872606,-1.2868274,-16.087559,-16.095171,-8.958989
1.156005,0.053079944,-1.2447875,-15.561986,-15.56935,-8.666304
1.1183506,0.05135098,-1.2042412,-15.055088,-15.062213,-8.384018
1.0820241,0.049682982,-1.1651247,-14.566065,-14.572958,-8.111686
1.0469692,0.048073377,-1.1273775,-14.09416,-14.10083,-7.848887
1.013133,0.04651973,-1.0909427,-13.638662,-13.645117,-7.5952253
0.98046565,0.045019753,-1.0557665,-13.198898,-13.205145,-7.3503256
0.9489199,0.043571275,-1.0217979,-12.774234,-12.780279,-7.113834
0.91845095,0.042172242,-0.98898894,-12.364064,-12.369916,-6.8854156
0.8890164,0.040820707,-0.9572938,-11.967821,-11.973484,-6.6647515
0.8605761,0.03951482,-0.92666924,-11.584961,-11.590444,-6.451541
0.83309174,0.03825283,-0.8970741,-11.214971,-11.220278,-6.245497
0.806527,0.037033066,-0.8684692,-10.85736,-10.862498,-6.0463476
0.7808474,0.03585394,-0.84081733,-10.511664,-10.516639,-5.853833
0.7560199,0.034713943,-0.81408304,-10.177439,-10.182256,-5.667707
0.73201305,0.03361163,-0.78823245,-9.854262,-9.858926,-5.4877334
0.708797,0.032545622,-0.76323336,-9.541731,-9.546247,-5.313688
0.686343,0.03151461,-0.73905486,-9.239458,-9.243831,-5.1453557
0.66462374,0.030517334,-0.71566755,-8.947077,-8.951311,-4.9825315
0.64361304,0.029552592,-0.69304323,-8.664233,-8.668334,-4.8250194
0.6232859,0.028619237,-0.6711549,-8.390593,-8.394563,-4.6726313
0.60361826,0.027716165,-0.64997685,-8.12583,-8.129675,-4.5251875
0.5845872,0.02684232,-0.6294841,-7.8696356,-7.8733597,-4.382516
0.56617063,0.02599669,-0.6096531,-7.6217136,-7.6253204,-4.244451
0.54834735,0.025178306,-0.590461,-7.3817797,-7.385273,-4.110834
0.5310972,0.024386233,-0.571886,-7.1495595,-7.1529427,-3.9815133
0.5144004,0.023619575,-0.553907,-6.9247904,-6.9280677,-3.8563418
0.4982385,0.022877472,-0.5365038,-6.7072206,-6.710395,-3.7351797
0.48259336,0.022159098,-0.519657,-6.4966073,-6.499682,-3.6178913
0.46744758,0.021463655,-0.50334805,-6.2927175,-6.2956953,-3.504347
0.45278457,0.020790376,-0.4875589,-6.095326,-6.0982103,-3.3944218
0.43858823,0.020138528,-0.47227228,-5.9042163,-5.9070106,-3.287995
0.4248431,0.019507397,-0.45747152,-5.7191815,-5.721888,-3.184951
0.4115343,0.0188963,-0.4431406,-5.54002,-5.542642,-3.0851781
0.39864746,0.018304579,-0.42926404,-5.3665395,-5.369079,-2.9885683
0.38616878,0.017731598,-0.41582695,-5.1985526,-5.2010126,-2.8950183
0.37408486,0.017176745,-0.40281498,-5.0358806,-5.038264,-2.804428
0.36238286,0.016639428,-0.39021426,-4.87835,-4.8806586,-2.716701
0.35105038,0.016119078,-0.37801144,-4.7257934,-4.7280297,-2.631744
0.3400754,0.015615143,-0.36619356,-4.57805,-4.5802164,-2.549467
0.3294464,0.015127094,-0.35474825,-4.4349637,-4.4370627,-2.469784
0.3191522,0.014654418,-0.34366345,-4.296385,-4.298418,-2.3926108
0.30918202,0.014196621,-0.33292755,-4.1621675,-4.1641374,-2.3178666
0.29952547,0.013753223,-0.32252935,-4.0321717,-4.03408,-2.2454734
0.29017243,0.013323762,-0.31245798,-3.9062626,-3.9081113,-2.175356
0.28111324,0.012907794,-0.30270302,-3.784309,-3.7861,-2.1074412
0.27233848,0.012504886,-0.29325438,-3.6661844,-3.6679194,-2.0416589
0.26383907,0.012114622,-0.2841022,-3.5517666,-3.5534475,-1.9779409
0.25560626,0.011736598,-0.2752371,-3.4409375,-3.442566,-1.9162214
0.24763156,0.011370426,-0.26664993,-3.3335834,-3.3351607,-1.8564368
0.23990677,0.011015729,-0.25833187,-3.229593,-3.2311213,-1.7985258
0.23242395,0.010672142,-0.25027436,-3.1288602,-3.130341,-1.7424289
0.22517543,0.010339314,-0.24246913,-3.0312817,-3.032716,-1.6880883
0.21815379,0.010016903,-0.23490824,-2.9367573,-2.938147,-1.6354487
0.21135186,0.009704581,-0.2275839,-2.8451905,-2.846537,-1.5844562
0.2047627,0.009402028,-0.22048868,-2.756488,-2.7577927,-1.5350589
0.19837958,0.009108937,-0.21361534,-2.6705594,-2.6718233,-1.4872061
0.19219601,0.008825008,-0.20695686,-2.5873172,-2.5885415,-1.4408493
0.1862057,0.008549953,-0.2005065,-2.5066764,-2.5078626,-1.3959413
0.18040256,0.008283491,-0.19425768,-2.4285553,-2.4297047,-1.3524365
0.17478071,0.008025355,-0.18820405,-2.3528748,-2.3539882,-1.3102908
0.16933443,0.0077752797,-0.1823395,-2.2795577,-2.2806363,-1.2694613
0.16405822,0.0075330134,-0.17665806,-2.20853,-2.2095752,-1.2299067
0.15894672,0.0072983103,-0.171154,-2.1397197,-2.1407323,-1.191587
0.15399477,0.007070933,-0.16582175,-2.0730572,-2.0740383,-1.1544634
0.14919737,0.006850652,-0.16065589,-2.008475,-2.0094256,-1.1184983
0.14454965,0.0066372445,-0.15565123,-1.9459083,-1.9468292,-1.0836556
0.14004695,0.0064304946,-0.1508027,-1.8852934,-1.8861856,-1.0498998
0.1356847,0.0062301946,-0.14610542,-1.8265693,-1.8274338,-1.017197
0.1314585,0.0060361414,-0.14155465,-1.7696769,-1.7705144,-0.98551416
0.12736411,0.0058481405,-0.13714582,-1.7145587,-1.7153702,-0.95481944
0.12339739,0.0056660017,-0.13287444,-1.6611593,-1.6619453,-0.92508185
0.11955435,0.0054895417,-0.12873624,-1.6094247,-1.6101863,-0.8962714
0.115831114,0.0053185835,-0.12472707,-1.559303,-1.560041,-0.8683592
0.112223946,0.0051529543,-0.12084287,-1.5107439,-1.5114588,-0.8413171
0.10872921,0.0049924874,-0.117079735,-1.4636981,-1.4643909,-0.8151179
0.1053434,0.004837022,-0.11343389,-1.4181188,-1.41879,-0.78973526
0.102063105,0.0046864017,-0.10990167,-1.37396,-1.3746102,-0.76514363
0.09888504,0.004540475,-0.10647951,-1.3311772,-1.3318073,-0.7413184
0.095805995,0.0043990957,-0.103164,-1.2897276,-1.2903379,-0.7182355
0.092822894,0.0042621214,-0.09995179,-1.2495694,-1.2501608,-0.6958719
0.08993273,0.004129415,-0.09683966,-1.2106625,-1.2112354,-0.674205
0.08713261,0.0040008426,-0.09382449,-1.1729677,-1.1735227,-0.65321314
0.08441973,0.0038762758,-0.09090325,-1.1364471,-1.136985,-0.63287526
0.08179135,0.0037555892,-0.08807301,-1.1010642,-1.1015853,-0.6131709
0.079244845,0.0036386622,-0.08533093,-1.0667835,-1.0672884,-0.5940803
0.07677766,0.0035253773,-0.082674265,-1.0335706,-1.0340598,-0.5755844
0.07438732,0.0034156207,-0.08010034,-1.0013922,-1.0018661,-0.55766463
0.072071426,0.0033092827,-0.07760659,-0.970216,-0.9706751,-0.54030293
0.06982766,0.0032062563,-0.07519051,-0.9400107,-0.94045556,-0.5234819
0.067653775,0.0031064388,-0.07284966,-0.91074616,-0.91117716,-0.5071848
0.06554759,0.0030097298,-0.07058172,-0.882393,-0.8828106,-0.49139524
0.063507,0.0029160322,-0.06838441,-0.8549228,-0.85532737,-0.47609738
0.06152995,0.0028252527,-0.06625552,-0.828308,-0.8287,-0.46127588
0.059614465,0.0027373,-0.06419292,-0.802522,-0.8029018,-0.44691592
0.057758626,0.0026520859,-0.062194552,-0.77753896,-0.77790695,-0.43300313
0.055960577,0.0025695253,-0.060258407,-0.7533338,-0.75369036,-0.41952357
0.054218512,0.0024895356,-0.058382552,-0.7298824,-0.7302278,-0.4064637
0.05253069,0.0024120363,-0.056565102,-0.7071612,-0.7074958,-0.3938105
0.05089542,0.00233695,-0.054804243,-0.6851474,-0.68547165,-0.38155127
0.049311064,0.0022642019,-0.05309821,-0.663819,-0.6641332,-0.36967373
0.04777604,0.0021937185,-0.05144529,-0.64315474,-0.6434591,-0.35816598
0.046288807,0.0021254297,-0.049843837,-0.6231338,-0.6234287,-0.34701654
0.04484788,0.002059267,-0.048292242,-0.60373616,-0.6040219,-0.3362142
0.043451812,0.001995164,-0.046788957,-0.5849425,-0.5852193,-0.32574823
0.042099208,0.001933057,-0.045332473,-0.56673396,-0.5670021,-0.31560805
0.040788714,0.0018728834,-0.04392133,-0.54909223,-0.5493521,-0.3057836
0.03951902,0.0018145832,-0.04255412,-0.53199977,-0.53225154,-0.296265
0.038288854,0.001758098,-0.04122948,-0.51543945,-0.51568335,-0.2870427
0.037096985,0.0017033713,-0.03994607,-0.49939466,-0.499631,-0.27810755
0.03594222,0.0016503483,-0.03870262,-0.48384938,-0.48407835,-0.26945055
0.034823403,0.0015989761,-0.037497878,-0.46878803,-0.46900988,-0.26106304
0.033739418,0.001549203,-0.03633064,-0.45419556,-0.45441052,-0.25293666
0.032689176,0.0015009794,-0.035199743,-0.44005737,-0.44026563,-0.24506325
0.031671632,0.001454257,-0.034104045,-0.4263593,-0.42656106,-0.23743494
0.030685762,0.0014089892,-0.03304246,-0.41308767,-0.41328314,-0.2300441
0.029730583,0.0013651304,-0.032013923,-0.40022916,-0.40041855,-0.22288334
0.028805137,0.0013226371,-0.031017404,-0.38777095,-0.38795444,-0.2159455
0.027908502,0.0012814665,-0.030051904,-0.37570053,-0.37587833,-0.20922361
0.027039777,0.0012415776,-0.029116461,-0.3640059,-0.36417815,-0.20271099
0.026198095,0.0012029302,-0.028210137,-0.3526753,-0.35284218,-0.19640109
0.025382614,0.001165486,-0.027332027,-0.3416974,-0.34185907,-0.19028762
0.024592519,0.0011292074,-0.02648125,-0.3310612,-0.33121789,-0.18436445
