ax,ay,az,gx,gy,gz
-2.897299,8.334621,-1.7663797,-38.23035,53.766853,-55.375957
-3.014844,9.717032,-1.7685812,-52.934906,40.479214,-70.664375
-2.5492122,9.921586,-1.8621114,-68.11727,38.75893,-81.41889
-1.960398,9.684469,-2.1068919,-80.72774,46.886806,-85.60317
-1.7983297,9.325868,-2.6041288,-90.631065,57.397827,-85.4885
-2.236327,9.0662365,-3.2414093,-99.51058,63.171303,-86.70411
-2.962762,8.5932045,-3.9104562,-105.73583,63.63298,-91.342445
-3.6157508,7.963091,-4.512212,-109.38393,58.38242,-96.92194
-4.0587344,7.1468735,-5.063634,-112.25123,50.40524,-99.4885
-4.303862,6.201935,-5.5939074,-113.38207,40.327366,-100.07288
-4.4210286,5.113325,-6.093312,-112.01773,29.608881,-99.80193
-4.408706,3.9146483,-6.5729856,-107.37832,17.792727,-98.78628
-4.2482367,2.71202,-6.9759035,-99.836876,5.2984133,-96.6406
-3.850257,1.5460596,-7.230333,-89.1802,-6.637099,-93.55521
-3.3229952,0.47601557,-7.3575606,-77.054855,-16.273317,-90.03076
-2.7690742,-0.44959608,-7.3816733,-63.823437,-23.914469,-86.102486
-2.2105687,-1.164279,-7.313026,-49.970505,-30.143719,-81.6602
-1.627676,-1.6486628,-7.140254,-35.71641,-34.43182,-75.702934
-1.057327,-1.7899965,-6.802781,-22.531715,-37.36667,-68.328064
-0.5765426,-1.633572,-6.3613567,-10.603731,-39.187553,-60.689133
-0.17145993,-1.1894225,-5.810501,-0.5260383,-40.548466,-53.82686
0.23302923,-0.5074038,-5.158577,7.223361,-41.35187,-48.160717
0.6237223,0.34478968,-4.4239297,11.573279,-41.335,-43.849377
0.9648663,1.2672023,-3.6448264,12.716752,-40.194923,-39.701157
1.1667244,2.1029823,-2.9554112,10.569838,-37.049686,-35.84763
1.1592607,2.8146188,-2.4330184,6.375164,-33.159657,-32.629917
0.94546026,3.3683345,-2.1011226,0.79224277,-29.580647,-30.641253
0.59096104,3.7429516,-1.9335141,-5.2101483,-26.77506,-30.38603
0.1832768,3.9281716,-1.9176445,-11.451651,-25.05164,-31.863594
-0.22088242,3.9960287,-1.99464,-17.418497,-24.357565,-34.29774
-0.57498485,3.9387507,-2.1240764,-22.907816,-24.554552,-37.561245
-0.85358363,3.7533813,-2.301071,-27.53621,-25.753311,-41.099194
-1.0540239,3.4624157,-2.525344,-30.76747,-28.430603,-44.388565
-1.1316493,3.063904,-2.7944615,-32.926964,-31.362808,-47.805523
-1.0988472,2.5764098,-3.0852802,-33.935593,-33.792732,-51.30587
-1.0008583,1.9968921,-3.4136553,-33.60358,-36.11535,-54.05655
-0.894772,1.3416617,-3.7780867,-31.406912,-39.11707,-55.788715
-0.76353174,0.6599059,-4.1318793,-26.15708,-43.13637,-55.92775
-0.5614871,0.075673915,-4.3881936,-19.125519,-47.341118,-55.24589
-0.2986347,-0.35176772,-4.531122,-11.168392,-50.729805,-54.482292
0.030787285,-0.6320079,-4.572899,-2.7269218,-52.839844,-53.429024
0.38294095,-0.7435665,-4.5164776,5.8745217,-54.21317,-51.512466
0.75575316,-0.6606207,-4.33955,13.973949,-54.885498,-48.68448
1.1554111,-0.32979742,-4.0052376,20.604475,-54.03895,-44.427143
1.502851,0.16143356,-3.597083,25.388525,-52.416695,-39.556618
1.8028173,0.69674075,-3.1505094,28.046179,-49.746838,-34.529713
2.055722,1.1561226,-2.7320893,29.13636,-45.312164,-29.263552
1.9852153,1.1164701,-2.6383846,28.137045,-43.758053,-28.259876
1.9175305,1.0784048,-2.5484304,27.17773,-42.26615,-27.296373
1.8525176,1.041842,-2.462027,26.256283,-40.833138,-26.370903
1.7900372,1.0067034,-2.3789897,25.37073,-39.455944,-25.481483
1.7299603,0.97291666,-2.2991464,24.519243,-38.131733,-24.62628
1.6721673,0.9404143,-2.2223384,23.700125,-36.85786,-23.803585
1.6165465,0.90913355,-2.1484175,22.911795,-35.63187,-23.011814
1.5629941,0.8790161,-2.0772455,22.15278,-34.45147,-22.249487
1.5114131,0.85000736,-2.0086935,21.421707,-33.31452,-21.515223
1.4617128,0.8220563,-1.942641,20.71729,-32.219032,-20.807732
1.4138083,0.7951152,-1.8789752,20.038326,-31.16312,-20.125801
1.36762,0.7691391,-1.8175899,19.383684,-30.145037,-19.468302
1.3230727,0.74408615,-1.7583859,18.752302,-29.163128,-18.834164
1.2800963,0.7199165,-1.7012695,18.143185,-28.215843,-18.222387
1.2386243,0.696593,-1.6461526,17.555391,-27.30172,-17.632027
1.1985942,0.6740804,-1.5929519,16.988031,-26.419376,-17.062193
1.1599469,0.65234536,-1.5415889,16.440271,-25.567514,-16.512041
1.1226264,0.63135666,-1.4919894,15.911318,-24.744898,-15.980778
1.0865799,0.61108434,-1.444083,15.40042,-23.950361,-15.467649
1.0517572,0.59150034,-1.3978031,14.906867,-23.1828,-14.971942
1.0181106,0.5725778,-1.3530862,14.429985,-22.441164,-14.492978
0.9855951,0.55429125,-1.3098725,13.969132,-21.724457,-14.030113
0.95416754,0.5366166,-1.2681048,13.5237,-21.031733,-13.582737
0.92378706,0.5195309,-1.2277286,13.093109,-20.362087,-13.150266
0.8944147,0.50301206,-1.1886922,12.6768055,-19.71466,-12.732145
0.8660133,0.48703933,-1.1509463,12.274263,-19.088638,-12.327846
0.8385473,0.4715927,-1.1144435,11.88498,-18.483234,-11.936863
0.8119829,0.4566531,-1.079139,11.508475,-17.897703,-11.558715
0.78628784,0.44220236,-1.0449898,11.144291,-17.331333,-11.192941
0.76143104,0.42822307,-1.0119547,10.791988,-16.78344,-10.8391
0.7373828,0.41469854,-0.97999424,10.451146,-16.25337,-10.49677
0.7141149,0.40161285,-0.94907075,10.121363,-15.7404995,-10.165547
0.6916001,0.38895068,-0.91914815,9.802253,-15.244227,-9.845044
0.6698122,0.37669733,-0.8901917,9.493447,-14.76398,-9.53489
0.6487263,0.36483875,-0.86216813,9.19459,-14.299205,-9.234729
0.62831825,0.35336146,-0.8350456,8.905341,-13.849372,-8.944217
0.6085651,0.34225243,-0.8087933,8.625374,-13.413974,-8.663028
0.58944464,0.33149922,-0.7833818,8.354374,-12.99252,-8.390844
0.5709355,0.3210898,-0.75878286,8.092038,-12.584542,-8.127363
0.5530172,0.31101272,-0.7349692,7.838077,-12.189589,-7.8722935
0.53567,0.30125678,-0.7119145,7.5922103,-11.807222,-7.6253533
0.51887494,0.29181135,-0.6895935,7.3541684,-11.437025,-7.3862724
0.50261366,0.28266615,-0.66798204,7.123693,-11.078595,-7.154791
0.4868686,0.27381122,-0.6470566,6.900533,-10.731543,-6.930657
0.47162274,0.26523706,-0.6267946,6.684449,-10.3954935,-6.7136297
0.4568597,0.25693446,-0.6071743,6.4752083,-10.070087,-6.5034757
0.44256374,0.24889451,-0.5881747,6.2725873,-9.754976,-6.29997
0.4287196,0.24110869,-0.5697756,6.0763707,-9.449825,-6.1028967
0.41531265,0.2335687,-0.5519575,5.8863497,-9.154308,-5.912046
0.40232864,0.2262666,-0.5347015,5.7023234,-8.868115,-5.7272162
0.38975394,0.21919467,-0.5179895,5.5240984,-8.590944,-5.5482135
0.3775753,0.2123455,-0.50180393,5.3514867,-8.322503,-5.3748484
0.36578,0.20571192,-0.4861278,5.1843085,-8.062511,-5.2069407
0.35435572,0.19928698,-0.47094473,5.022389,-7.810698,-5.044314
0.34329057,0.19306402,-0.45623893,4.865559,-7.5668,-4.8867993
0.33257303,0.18703656,-0.44199514,4.713656,-7.330564,-4.7342334
0.32219198,0.18119833,-0.42819855,4.5665226,-7.1017456,-4.5864573
0.3121367,0.17554332,-0.41483492,4.424006,-6.8801074,-4.443319
0.3023968,0.17006569,-0.40189046,4.2859597,-6.6654215,-4.30467
0.29296228,0.16475978,-0.38935181,4.1522417,-6.4574656,-4.1703677
0.2838234,0.15962015,-0.3772061,4.0227137,-6.2560267,-4.0402746
0.2749708,0.15464151,-0.36544082,3.8972428,-6.060898,-3.914256
0.2663954,0.14981876,-0.35404396,3.775701,-5.871879,-3.7921836
0.25808838,0.14514697,-0.3430038,3.6579635,-5.6887765,-3.673932
0.2500413,0.14062135,-0.33230913,3.5439098,-5.511403,-3.5593805
0.24224596,0.13623731,-0.32194898,3.433424,-5.339578,-3.4484124
0.23469438,0.13199034,-0.31191278,3.3263931,-5.173126,-3.3409142
0.22737886,0.12787615,-0.30219033,3.222708,-5.011878,-3.2367766
0.22029197,0.12389055,-0.29277176,3.1222637,-4.855669,-3.1358938
0.21342653,0.12002947,-0.28364745,3.0249577,-4.7043414,-3.038163
0.20677556,0.11628902,-0.2748082,2.9306915,-4.5577407,-2.9434853
0.2003323,0.11266538,-0.266245,2.8393693,-4.4157186,-2.8517644
0.19409025,0.10915489,-0.2579492,2.7508986,-4.278131,-2.7629075
0.18804306,0.105753995,-0.24991238,2.66519,-4.1448393,-2.6768248
0.18218462,0.10245925,-0.24212642,2.5821567,-4.0157075,-2.5934289
0.17650901,0.099267334,-0.23458345,2.5017147,-3.8906062,-2.5126357
0.17101051,0.096175015,-0.22727583,2.4237826,-3.7694082,-2.4343636
0.16568354,0.093179174,-0.22019622,2.348282,-3.6519916,-2.3585334
0.16052274,0.090276785,-0.21333744,2.2751365,-3.5382376,-2.2850685
0.15552291,0.087464914,-0.20669258,2.2042725,-3.4280314,-2.213895
0.15067902,0.08474074,-0.20025495,2.1356184,-3.3212624,-2.1449413
0.14598615,0.08210152,-0.19401807,2.0691051,-3.2178226,-2.0781376
0.14143962,0.079544574,-0.18797563,2.0046659,-3.1176078,-2.013417
0.13703482,0.07706735,-0.18212159,1.9422352,-3.0205173,-1.950714
0.13276733,0.07466735,-0.17645003,1.881751,-2.9264536,-1.8899655
0.12863287,0.07234216,-0.17095524,1.8231518,-2.8353217,-1.8311107
0.12462726,0.07008943,-0.16563173,1.7663792,-2.7470303,-1.7740902
0.120746486,0.067906916,-0.1604741,1.7113758,-2.6614904,-1.7188467
0.11698665,0.06579241,-0.15547723,1.6580865,-2.5786161,-1.6653248
0.11334397,0.06374379,-0.15063603,1.6064577,-2.4983242,-1.6134706
0.109814785,0.061759006,-0.1459457,1.5564376,-2.4205341,-1.5632321
0.10639556,0.05983606,-0.14140148,1.5079758,-2.3451676,-1.5145588
0.10308286,0.057973024,-0.13699885,1.4610239,-2.272149,-1.467402
0.09987336,0.056168023,-0.13273337,1.4155347,-2.2014055,-1.4217142
0.096763834,0.054419253,-0.12860076,1.3714626,-2.1328654,-1.3774496
0.09375118,0.052724954,-0.124596894,1.3287632,-2.0664606,-1.3345639
0.09083235,0.05108343,-0.12071773,1.2873939,-2.002124,-1.2930139
0.08800445,0.049493037,-0.11695939,1.2473131,-1.9397913,-1.2527583
0.085264616,0.047952175,-0.11331811,1.2084807,-1.8794,-1.2137562
0.082610115,0.046459306,-0.109790236,1.1708577,-1.8208896,-1.175969
0.08003829,0.04501293,-0.10637223,1.1344064,-1.7642014,-1.1393585
0.07754655,0.043611594,-0.10306067,1.0990902,-1.7092787,-1.1038883
0.07513241,0.0422539,-0.099852234,1.0648739,-1.6560662,-1.0695226
0.07279345,0.040938485,-0.09674372,1.0317231,-1.6045109,-1.036227
0.070527315,0.03966403,-0.09373199,0.99960464,-1.554561,-1.0039684
0.068331756,0.038429264,-0.090814054,0.96848625,-1.5061665,-0.9727141
0.066204555,0.037232943,-0.08798697,0.93833685,-1.4592788,-0.9424331
0.0641436,0.036073875,-0.08524792,0.9091262,-1.4138511,-0.913095
0.062146805,0.034950897,-0.08259415,0.88082516,-1.369838,-0.8846703
0.060212187,0.03386288,-0.08002301,0.85340524,-1.3271953,-0.8571307
0.058337808,0.032808743,-0.07753193,0.8268391,-1.2858802,-0.83044857
0.056521785,0.031787425,-0.07511841,0.8011001,-1.2458514,-0.8045972
0.054762304,0.030797906,-0.07278002,0.7761624,-1.207069,-0.7795507
0.053057604,0.029839195,-0.07051445,0.75200117,-1.169494,-0.75528395
0.051405974,0.028910331,-0.0683194,0.72859216,-1.133089,-0.7317728
0.049805768,0.028010387,-0.0661927,0.70591193,-1.0978172,-0.70899355
0.048255377,0.02713846,-0.064132206,0.6839378,-1.0636436,-0.6869235
0.046753258,0.026293678,-0.062135864,0.6626478,-1.0305338,-0.6655405
0.0452979,0.025475197,-0.06020167,0.6420206,-0.9984549,-0.6448233
0.04388785,0.024682196,-0.058327693,0.62203556,-0.9673747,-0.624751
0.042521697,0.023913883,-0.056512054,0.60267264,-0.93726194,-0.6053036
0.041198075,0.023169488,-0.054752935,0.58391255,-0.9080867,-0.5864616
0.03991566,0.022448266,-0.05304858,0.5657365,-0.87981975,-0.5682062
0.038673166,0.021749496,-0.051397286,0.5481262,-0.8524327,-0.55051905
0.03746935,0.021072479,-0.049797397,0.5310642,-0.82589823,-0.53338253
0.03630301,0.02041654,-0.04824731,0.51453334,-0.80018985,-0.5167795
0.035172977,0.019781018,-0.04674548,0.49851707,-0.77528167,-0.5006933
0.034078125,0.01916528,-0.0452904,0.48299935,-0.75114894,-0.48510787
0.033017352,0.01856871,-0.043880615,0.46796474,-0.72776747,-0.4700076
0.0319896,0.01799071,-0.04251472,0.4533981,-0.7051138,-0.4553774
0.030993843,0.017430704,-0.04119134,0.43928495,-0.6831653,-0.4412026
0.030029083,0.01688813,-0.039909158,0.4256111,-0.6619001,-0.42746907
0.029094353,0.016362445,-0.038666885,0.41236293,-0.64129686,-0.41416305
