ax,ay,az,gx,gy,gz
-0.49182266,8.682806,-3.0673006,37.50943,-14.1492195,-126.95388
0.43577406,9.944583,-2.438221,11.87292,-8.774568,-135.50319
1.0078508,10.292121,-2.3231025,-10.367009,-2.210884,-131.30035
1.0458325,10.227952,-2.5639682,-28.418877,2.5141196,-121.7939
0.83948153,10.080178,-2.8804562,-43.789974,5.534485,-113.34618
0.58736074,9.863523,-3.2803698,-57.00716,7.8608613,-106.05285
0.31769744,9.56629,-3.7321916,-70.40523,9.927286,-97.632675
-0.105255224,9.133838,-4.2637334,-82.5812,11.256919,-89.55141
-0.6642049,8.658409,-4.8129606,-92.3181,11.068728,-84.739784
-1.2551352,8.126909,-5.335153,-99.29724,8.318353,-83.73638
-1.7303602,7.529116,-5.798437,-104.34761,3.7452195,-84.408485
-2.1118152,6.840484,-6.1955657,-107.746475,-3.1714344,-84.0827
-2.4488497,6.0289207,-6.534384,-110.06421,-11.215698,-83.061966
-2.7381172,5.1279755,-6.8435054,-110.98842,-20.674244,-81.9078
-2.9460938,4.0824685,-7.1228566,-110.15807,-31.104498,-80.9284
-2.9967966,2.874313,-7.3899927,-106.90853,-41.289528,-80.14064
-2.864687,1.615759,-7.6366262,-99.85113,-50.779877,-78.21961
-2.5777054,0.45181656,-7.796013,-91.49443,-59.955048,-74.65933
-2.1942635,-0.5935955,-7.8624,-81.85171,-68.06861,-70.20243
-1.7464522,-1.4747624,-7.85652,-70.7753,-74.48606,-66.013695
-1.2437918,-2.160486,-7.7976527,-58.162903,-79.44047,-62.07618
-0.6801252,-2.5527308,-7.6321273,-43.646942,-82.691635,-58.414497
-0.022865942,-2.455033,-7.215755,-29.315033,-84.40926,-54.94027
0.6732793,-1.983668,-6.553392,-17.218426,-84.58491,-51.72406
1.3419831,-1.3802131,-5.786005,-7.79875,-83.379395,-47.63343
1.8568813,-0.7560223,-5.0391107,-0.4109498,-81.3933,-42.725384
2.2498834,-0.068276905,-4.291655,4.103693,-78.06367,-38.10279
2.544833,0.62912065,-3.6141298,6.5953555,-73.78274,-33.732494
2.6994395,1.2569009,-3.0626478,7.512515,-69.096664,-29.559452
2.716387,1.8133677,-2.6324751,7.3345604,-64.508705,-26.276915
2.647291,2.298694,-2.3088393,6.507564,-60.312847,-24.248333
2.5418944,2.7115786,-2.0807428,4.8619523,-56.654293,-23.234388
2.4060686,3.0037062,-1.9737378,2.8890953,-53.28042,-22.656275
2.2560143,3.2217417,-1.9229167,0.6275619,-49.53349,-22.850605
2.080673,3.382607,-1.9151529,-2.2269614,-45.459972,-23.923443
1.8946564,3.479774,-1.9538009,-5.5905037,-41.55091,-25.239956
1.6869112,3.5206306,-2.03611,-9.003385,-38.42342,-26.868513
1.4545012,3.5045748,-2.159768,-12.181891,-35.999825,-29.034958
1.2304702,3.453225,-2.2976503,-15.130714,-34.365005,-31.573002
1.0304384,3.361583,-2.4426827,-17.91623,-33.554783,-33.931347
0.84986496,3.224958,-2.5862136,-20.493883,-33.400627,-35.924744
0.6741734,3.043201,-2.7224083,-22.653109,-34.013138,-37.543613
0.50216395,2.8088894,-2.84696,-24.48462,-35.20194,-38.886833
0.34859073,2.5017233,-2.9710076,-25.89217,-37.079666,-40.031822
0.22183168,2.0786767,-3.105516,-26.594526,-39.477627,-40.799015
0.13364227,1.5257127,-3.265139,-26.111519,-42.36046,-40.838352
0.107387975,0.8829318,-3.4414763,-23.301592,-45.328712,-40.058693
0.16540661,0.24506296,-3.5986812,-18.67781,-47.96705,-38.919224
0.27023298,-0.2771969,-3.6897242,-12.730393,-50.39368,-37.475765
0.42964414,-0.64580023,-3.68597,-6.1755176,-52.598263,-35.669205
0.6620709,-0.85562444,-3.5818212,0.5418966,-54.070587,-33.570717
0.94032925,-0.9146051,-3.3975394,7.1463547,-53.964275,-31.423882
1.2172971,-0.79565537,-3.1350412,13.036895,-52.915916,-29.032433
1.4801955,-0.568782,-2.834046,17.895979,-51.218723,-26.156326
1.7101612,-0.2654062,-2.5196629,21.522928,-48.903244,-22.905964
1.8640743,0.06409308,-2.2280738,24.009254,-46.274178,-19.497284
1.9434522,0.39321908,-1.9700688,25.537893,-43.532265,-15.998129
1.9264939,0.7167128,-1.7555683,25.955128,-40.629368,-12.795429
1.8559115,1.0123813,-1.587073,25.693409,-37.87234,-9.908835
1.7567954,1.2699547,-1.4608836,24.896273,-35.25302,-7.401158
1.6403531,1.4800515,-1.3663315,23.734697,-32.624977,-5.414114
1.5182352,1.6447914,-1.2907373,22.079874,-29.988075,-3.8881538
1.4104142,1.7490566,-1.2352554,20.038757,-27.407337,-2.2120626
1.3152491,1.8117691,-1.200198,17.729652,-24.95118,-0.46005693
1.2187505,1.8287646,-1.195462,15.696216,-22.75216,0.8861814
1.1319996,1.8012226,-1.2099284,14.1692295,-20.898657,1.6298863
1.0727109,1.7393627,-1.2271404,13.464774,-19.170671,1.6421964
1.0586122,1.6570709,-1.2286075,13.334707,-17.405367,1.5408434
1.0654591,1.5769383,-1.2063279,13.821087,-15.664332,1.6300168
1.031485,1.5266546,-1.1678619,13.380376,-15.164846,1.5780407
0.9986427,1.4780463,-1.1306775,12.954348,-14.682001,1.5277963
0.9668902,1.4310509,-1.0947269,12.542457,-14.215178,1.479219
0.9361874,1.385609,-1.0599647,12.14418,-13.763785,1.4322476
0.90649587,1.3416638,-1.0263475,11.759023,-13.327262,1.3868233
0.87777895,1.2991613,-0.99383384,11.386509,-12.905067,1.3428901
0.85000175,1.2580495,-0.96238405,11.026184,-12.496688,1.3003945
0.8231307,1.2182789,-0.93196034,10.677614,-12.101631,1.2592852
0.7971339,1.1798022,-0.9025263,10.3403845,-11.719427,1.2195134
0.7719805,1.1425738,-0.87404734,10.014096,-11.349624,1.181032
0.74764127,1.1065503,-0.8464901,9.698369,-10.991789,1.143796
0.7240879,1.0716901,-0.8198226,9.392836,-10.645509,1.1077623
0.70129335,1.0379529,-0.79401433,9.097146,-10.310384,1.0728896
0.6792317,1.0053004,-0.76903576,8.810963,-9.986034,1.0391381
0.6578779,0.9736956,-0.74485874,8.533962,-9.6720915,1.0064695
0.63720804,0.9431031,-0.72145605,8.265834,-9.368205,0.97484726
0.6171991,0.91348875,-0.69880164,8.006279,-9.074034,0.9442361
0.59782887,0.88481975,-0.67687035,7.755009,-8.789253,0.9146021
0.57907605,0.8570645,-0.6556381,7.511748,-8.51355,0.8859126
0.56092,0.83019257,-0.63508165,7.276229,-8.246621,0.85813624
0.5433411,0.8041748,-0.6151785,7.048196,-7.9881763,0.8312427
0.52632016,0.7789829,-0.59590715,6.827401,-7.7379355,0.80520284
0.50983894,0.75458974,-0.57724684,6.6136074,-7.4956293,0.77998865
0.49387962,0.7309691,-0.5591775,6.4065843,-7.2609963,0.755573
0.47842523,0.7080958,-0.54167986,6.2061105,-7.033787,0.7319297
0.4634593,0.68594533,-0.5247352,6.0119734,-6.8137584,0.7090338
0.44896594,0.6644944,-0.50832564,5.823966,-6.6006775,0.68686074
0.43492982,0.64372015,-0.49243376,5.64189,-6.394319,0.6653873
0.42133617,0.6236008,-0.47704282,5.4655538,-6.1944656,0.64459074
0.4081707,0.6041151,-0.4621367,5.2947717,-6.0009074,0.62444925
0.39541963,0.58524287,-0.44769973,5.1293654,-5.8134418,0.60494167
0.3830696,0.56696415,-0.43371686,4.9691615,-5.6318727,0.58604777
0.37110782,0.5492601,-0.42017356,4.813994,-5.456011,0.5677478
0.3595218,0.5321121,-0.40705574,4.6637006,-5.285674,0.5500226
0.3482996,0.51550263,-0.39434975,4.5181265,-5.120685,0.532854
0.33742952,0.49941432,-0.38204253,4.3771205,-4.960874,0.5162242
0.32690042,0.48383063,-0.3701213,4.240537,-4.806075,0.50011605
0.31670138,0.46873552,-0.35857382,4.108236,-4.65613,0.4845128
0.30682197,0.45411345,-0.3473882,3.9800808,-4.5108833,0.4693986
0.29725203,0.4399494,-0.33655298,3.8559399,-4.3701863,0.45475778
0.28798175,0.42622885,-0.32605702,3.735686,-4.233895,0.44057542
0.27900162,0.4129378,-0.3158896,3.6191964,-4.1018696,0.42683697
0.27030247,0.4000626,-0.30604032,3.5063515,-3.9739752,0.41352838
0.26187545,0.3875901,-0.2964991,3.3970366,-3.8500814,0.4006361
0.25371194,0.37550768,-0.28725627,3.2911398,-3.7300618,0.388147
0.24580365,0.36380297,-0.2783024,3.1885538,-3.6137943,0.3760483
0.23814252,0.35246405,-0.26962835,3.0891738,-3.5011606,0.36432773
0.23072076,0.34147945,-0.2612253,2.9928992,-3.3920465,0.3529734
0.22353084,0.330838,-0.2530848,2.899632,-3.2863405,0.34197375
0.21656549,0.32052886,-0.24519852,2.8092775,-3.183936,0.33131763
0.20981762,0.31054166,-0.2375585,2.7217445,-3.0847294,0.32099426
0.20328042,0.30086625,-0.23015697,2.6369443,-2.9886196,0.31099316
0.19694726,0.29149282,-0.22298649,2.554791,-2.89551,0.30130425
0.19081175,0.28241193,-0.21603979,2.4752014,-2.805306,0.2919177
0.1848677,0.27361438,-0.20930983,2.3980954,-2.7179167,0.28282404
0.17910908,0.26509133,-0.20278986,2.323395,-2.6332538,0.27401412
0.1735301,0.25683412,-0.19647326,2.2510247,-2.5512319,0.26547897
0.16812514,0.24883448,-0.19035368,2.1809115,-2.4717684,0.25721005
0.16288872,0.2410843,-0.18442494,2.1129851,-2.3947828,0.24919902
0.1578156,0.23357579,-0.17868106,2.0471768,-2.320198,0.24143778
0.15290065,0.2263014,-0.1731163,1.9834203,-2.2479386,0.23391853
0.14813893,0.21925378,-0.167725,1.9216515,-2.177932,0.2266337
0.14352565,0.21242587,-0.16250177,1.8618081,-2.1101077,0.21957597
0.13905615,0.20581077,-0.15744135,1.80383,-2.0443974,0.21273822
0.13472596,0.19940186,-0.15253866,1.7476591,-1.9807352,0.20611358
0.13053073,0.19319268,-0.14778875,1.6932386,-1.9190569,0.1996954
0.12646621,0.18717699,-0.14318685,1.6405141,-1.8593007,0.19347723
0.12252837,0.18134874,-0.13872837,1.5894325,-1.8014066,0.18745281
0.118713215,0.17570211,-0.13440879,1.5399424,-1.7453164,0.18161611
0.11501692,0.17023139,-0.1302238,1.4919943,-1.6909738,0.17596126
0.11143579,0.16493112,-0.12616919,1.4455401,-1.638324,0.17048258
0.10796622,0.15979597,-0.12224089,1.400533,-1.5873146,0.16517457
0.10460473,0.15482077,-0.118434966,1.3569279,-1.5378941,0.16003193
0.10134795,0.15000056,-0.11474759,1.314681,-1.4900131,0.15504947
0.09819262,0.14533049,-0.111175075,1.2737502,-1.4436234,0.1502222
0.095135555,0.14080587,-0.10771383,1.2340941,-1.3986788,0.14554529
0.09217371,0.13642219,-0.10436039,1.1956732,-1.3551339,0.14101405
0.08930412,0.13217501,-0.10111139,1.1584489,-1.3129451,0.13662393
0.08652389,0.12806013,-0.09796358,1.122384,-1.2720704,0.13237053
0.083830245,0.124073386,-0.094913796,1.087442,-1.2324685,0.1282496
0.08122048,0.1202108,-0.091958985,1.0535884,-1.1940999,0.124257
0.07869199,0.11646849,-0.08909619,1.0207889,-1.1569262,0.12038873
0.07624224,0.11284272,-0.086322546,0.9890108,-1.1209099,0.11664092
0.07386876,0.10932984,-0.08363526,0.9582222,-1.0860152,0.1130098
0.0715692,0.10592636,-0.081031665,0.92839235,-1.0522071,0.10949176
0.069341235,0.10262885,-0.07850913,0.8994913,-1.0194517,0.10608326
0.06718264,0.09943401,-0.07606514,0.8714902,-0.9877162,0.102780886
0.06509126,0.09633865,-0.07369725,0.8443608,-0.9569688,0.09958134
0.06306499,0.09333967,-0.071403086,0.81807625,-0.92717874,0.09648141
0.061101817,0.09043406,-0.06918035,0.79261,-0.8983162,0.093478
0.05919976,0.08761891,-0.06702681,0.76793665,-0.87035227,0.0905681
0.057356928,0.084891416,-0.064940326,0.7440314,-0.843259,0.087748796
0.055571463,0.08224884,-0.062918805,0.7208705,-0.8170092,0.08501727
0.05384159,0.07968853,-0.060960215,0.69843066,-0.7915767,0.08237078
0.05216557,0.07720792,-0.059062604,0.67668945,-0.76693594,0.079806685
0.050541732,0.07480455,-0.05722407,0.65562505,-0.7430623,0.077322416
0.048968446,0.072476,-0.05544277,0.6352165,-0.7199319,0.07491549
0.04744414,0.07021994,-0.053716928,0.6154432,-0.6975216,0.07258349
0.045967285,0.06803412,-0.052044813,0.5962855,-0.67580897,0.07032409
0.044536408,0.06591634,-0.050424755,0.5777243,-0.6547723,0.06813504
0.043150075,0.06386449,-0.04885513,0.5597408,-0.6343905,0.066014126
0.0418069,0.061876517,-0.047334366,0.5423172,-0.61464316,0.06395923
0.04050554,0.05995043,-0.045860946,0.525436,-0.5955106,0.06196832
0.03924469,0.0580843,-0.044433393,0.5090803,-0.5769737,0.06003938
0.038023088,0.05627627,-0.04305028,0.49323377,-0.5590138,0.058170486
0.036839515,0.05452452,-0.041710224,0.47788054,-0.5416129,0.05635977
0.03569279,0.052827295,-0.040411882,0.46300524,-0.5247538,0.054605424
0.034581758,0.05118291,-0.03915396,0.448593,-0.50841945,0.05290569
0.033505313,0.049589712,-0.037935194,0.4346294,-0.49259362,0.051258866
0.032462377,0.04804611,-0.036754366,0.42110047,-0.4772604,0.049663305
0.031451907,0.046550557,-0.035610296,0.4079927,-0.46240452,0.048117414
