ax,ay,az,gx,gy,gz
-3.4109402,-1.7181975,-4.8154984,25.246593,-1.4981954,-42.11493
-3.6210907,-1.9644368,-5.305069,31.712921,-0.7843548,-40.10808
-4.174968,-2.1940665,-5.9103365,37.618805,-4.9689155,-36.239437
-4.8890796,-2.3984647,-6.4478517,41.289253,-12.105079,-31.491776
-5.333993,-2.4076464,-6.8685412,44.306236,-20.687561,-30.19156
-5.4276614,-2.3276079,-6.996541,46.11517,-29.495998,-30.114185
-5.170658,-2.2570138,-6.8537364,45.927456,-35.914017,-29.021868
-4.8179574,-2.2542474,-6.609978,44.949722,-39.408398,-26.433296
-4.5270057,-2.2832253,-6.4505615,45.715145,-42.217186,-23.056683
-4.339767,-2.3494182,-6.4072094,47.163933,-45.844067,-19.961786
-4.1889625,-2.3927522,-6.3389125,47.66072,-50.48329,-16.317913
-4.028807,-2.4542007,-6.185653,46.62019,-55.83045,-11.977869
-3.7675602,-2.5144699,-5.952557,46.05348,-60.871517,-8.145445
-3.34786,-2.55092,-5.6565776,46.495472,-64.33872,-5.105405
-2.9356472,-2.5874043,-5.3429337,47.165203,-66.344574,-1.8103521
-2.6147578,-2.5640965,-5.008846,47.631676,-68.778175,1.9938002
-2.2878366,-2.5033064,-4.603968,46.644398,-71.584465,6.7800455
-1.8636849,-2.4266088,-4.1545725,44.844116,-74.065834,11.737553
-1.401078,-2.3862643,-3.7284477,45.515076,-74.84043,14.788755
-0.99779457,-2.30681,-3.2959673,47.2117,-74.81597,17.143955
-0.6251005,-2.1609836,-2.8313773,47.308384,-74.695335,20.148542
-0.24626584,-2.025021,-2.349933,45.50581,-74.34435,23.87303
0.14449227,-1.9446907,-1.8760993,42.96829,-73.53471,27.867939
0.53487474,-1.8823187,-1.4035614,41.712933,-71.31312,30.983833
0.91925204,-1.760008,-0.94709384,41.451427,-68.17991,33.521206
1.242753,-1.6167114,-0.54009116,41.39469,-64.489746,35.940247
1.5084693,-1.4678646,-0.19711538,41.630466,-60.72301,38.092533
1.7513828,-1.3144361,0.09664608,42.00895,-57.009033,39.837933
1.9696141,-1.1568465,0.35151345,42.089695,-53.247704,41.7706
2.1581144,-1.0159332,0.56449646,41.323112,-49.119976,44.572258
2.3295262,-0.8799293,0.74603885,40.08948,-44.906754,47.893063
2.500521,-0.72128546,0.92673755,38.599834,-40.638275,51.70351
2.6798728,-0.5012804,1.1133244,36.85718,-36.195488,55.946163
2.8552268,-0.22847356,1.2747903,34.582325,-31.216976,60.191967
2.9523058,0.108944796,1.3707991,32.29593,-26.096016,63.301384
2.9761608,0.43380824,1.4091924,30.200577,-21.086292,64.90043
2.9636734,0.69702125,1.3948127,28.356527,-16.375849,65.55065
2.9457097,0.9227817,1.358233,26.804094,-11.826881,65.40701
2.9385145,1.1146526,1.306822,25.139187,-7.1946855,64.801125
2.9332669,1.2717882,1.2293091,23.188873,-2.4323015,64.31973
2.8873484,1.4249821,1.111702,21.377,2.1240096,63.491463
2.8100338,1.565095,0.97228193,19.740995,6.2886734,62.179497
2.7176125,1.6984769,0.823347,18.138273,10.062943,60.563103
2.6045492,1.8370376,0.6552358,16.303743,13.563571,58.85541
2.455426,1.9579644,0.44991213,14.261203,16.641462,57.08169
2.2952836,2.0570376,0.23557779,12.389114,19.284906,55.112946
2.132807,2.1475718,0.025286615,10.86813,21.610767,52.83148
1.9555968,2.2391958,-0.18695825,9.609875,23.62862,50.236553
1.7566017,2.326505,-0.4096301,8.3561945,24.903969,47.352184
1.5430845,2.3997893,-0.6290388,6.9636955,25.518522,44.403706
1.3480368,2.4699156,-0.8231043,5.331069,25.765354,41.471264
1.1677417,2.5323768,-1.0008775,3.542056,25.875694,38.608635
0.9791,2.5762947,-1.188062,1.7823317,25.81056,35.775288
0.7762275,2.5897563,-1.3904634,0.3729803,25.24032,32.794674
0.57059664,2.575917,-1.5893134,-0.8970338,24.264666,29.92086
0.37253556,2.559452,-1.7696226,-2.2713757,22.932148,27.199175
0.17492212,2.5335252,-1.9388196,-3.64776,21.230726,24.62891
-0.0138142165,2.4937873,-2.1009529,-4.9484243,19.038723,22.177504
-0.16984989,2.4359365,-2.2364676,-6.132713,16.48855,19.871737
-0.27780107,2.364995,-2.3311741,-6.942906,13.786455,17.759237
-0.3621965,2.2871027,-2.4070146,-7.5877147,11.0646515,15.903613
-0.43728763,2.211775,-2.470416,-8.231722,8.329371,14.375953
-0.5106729,2.1562274,-2.519397,-8.995345,5.509694,13.094699
-0.58771414,2.1286838,-2.5586572,-9.433464,2.4292197,11.332258
-0.6333143,2.1025362,-2.581319,-9.17316,-0.8243476,8.9803095
-0.6195936,2.0778913,-2.5542088,-8.557205,-4.1491046,6.553848
-0.5624651,2.0724788,-2.4686658,-8.49618,-7.30426,4.4581695
-0.49869254,2.0553162,-2.3577006,-9.048367,-10.204439,2.667576
-0.43629718,1.9997675,-2.2487724,-9.172623,-12.999341,0.35824654
-0.32410964,1.9303571,-2.104906,-8.679664,-15.576173,-2.3856595
-0.16264667,1.8763455,-1.9079164,-8.05934,-17.664888,-5.0556583
0.006685536,1.8410414,-1.6812482,-7.832213,-19.251524,-7.4235835
0.17346865,1.8108418,-1.4507047,-8.271525,-20.462042,-9.426398
0.33355314,1.7737398,-1.2242343,-9.416498,-21.456541,-11.0012455
0.4847395,1.7269582,-1.0093166,-11.337878,-22.047148,-12.07389
0.6080995,1.6461068,-0.831399,-13.4069195,-22.245651,-12.980076
0.71700275,1.5176603,-0.69241613,-15.169213,-22.179148,-13.675336
0.8110249,1.3548613,-0.58031535,-16.392254,-21.81793,-14.222688
0.8831267,1.1857322,-0.4916366,-17.005543,-21.295101,-14.692579
0.9331266,1.0187666,-0.41594854,-17.547026,-20.706465,-14.9683075
0.9712735,0.86305183,-0.34736687,-18.134472,-19.994532,-14.983231
0.94069743,0.83588266,-0.33643162,-17.563593,-19.365097,-14.511554
0.91110444,0.80958694,-0.32584798,-17.011066,-18.7559,-14.05504
0.882461,0.78413504,-0.3156039,-16.47627,-18.166248,-13.613176
0.854735,0.75949836,-0.30568796,-15.958604,-17.595484,-13.185465
0.8278955,0.73564935,-0.29608908,-15.457488,-17.042969,-12.771428
0.8019128,0.71256167,-0.2867966,-14.972368,-16.508091,-12.370608
0.77675813,0.69020987,-0.2778003,-14.502711,-15.99026,-11.982564
0.75240415,0.66856945,-0.2690903,-14.048002,-15.488911,-11.60687
0.7288242,0.6476168,-0.26065713,-13.607745,-15.003497,-11.243116
0.70599276,0.6273293,-0.25249168,-13.181463,-14.533491,-10.89091
0.6838852,0.607685,-0.24458514,-12.768698,-14.078388,-10.549871
0.66247785,0.5886629,-0.23692898,-12.369004,-13.637698,-10.219633
0.6417477,0.5702426,-0.22951506,-11.981956,-13.21095,-9.899842
0.62167275,0.55240446,-0.22233544,-11.607141,-12.797689,-9.590158
0.60223174,0.5351296,-0.21538255,-11.244161,-12.397478,-9.290254
0.58340406,0.5183997,-0.208649,-10.892632,-12.009893,-8.99981
0.5651699,0.50219727,-0.20212771,-10.552184,-11.634526,-8.718523
0.54751,0.4865051,-0.19581182,-10.222461,-11.270983,-8.446095
0.530406,0.4713069,-0.18969475,-9.903115,-10.918881,-8.182243
0.51384,0.45658672,-0.18377008,-9.593815,-10.577856,-7.92669
0.49779478,0.4423293,-0.17803164,-9.294237,-10.24755,-7.67917
0.4822536,0.42851973,-0.17247349,-9.00407,-9.927621,-7.439426
0.4672004,0.4151438,-0.16708985,-8.723014,-9.617738,-7.2072096
0.45261955,0.4021876,-0.16187514,-8.450778,-9.317578,-6.98228
0.43849605,0.38963777,-0.15682401,-8.187081,-9.026834,-6.7644057
0.42481536,0.37748137,-0.15193123,-7.931651,-8.745203,-6.553362
0.41156337,0.36570597,-0.14719178,-7.684225,-8.4724,-6.3489313
0.39872646,0.3542994,-0.14260079,-7.44455,-8.20814,-6.1509047
0.38629153,0.34324998,-0.13815355,-7.2123795,-7.952156,-5.959079
0.37424582,0.33254644,-0.13384551,-6.9874763,-7.7041845,-5.773257
0.36257702,0.3221778,-0.12967227,-6.76961,-7.4639716,-5.59325
0.3512732,0.3121335,-0.12562957,-6.558559,-7.2312727,-5.418873
0.34032288,0.30240327,-0.121713296,-6.3541074,-7.005851,-5.249949
0.3297149,0.29297724,-0.117919445,-6.1560473,-6.7874756,-5.086306
0.31943843,0.2838458,-0.11424416,-5.9641776,-6.5759254,-4.927778
0.30948308,0.2749997,-0.110683724,-5.7783027,-6.3709855,-4.7742023
0.2998387,0.26642993,-0.10723451,-5.5982347,-6.1724477,-4.625425
0.29049554,0.2581278,-0.10389301,-5.42379,-5.98011,-4.4812937
0.28144413,0.25008494,-0.100655854,-5.2547927,-5.793779,-4.3416634
0.27267528,0.24229313,-0.09751976,-5.091071,-5.613264,-4.206392
0.26418015,0.23474455,-0.09448156,-4.93246,-5.4383845,-4.0753427
0.25595012,0.22743155,-0.09153817,-4.778799,-5.2689624,-3.9483833
0.24797693,0.22034673,-0.08868662,-4.6299324,-5.1048265,-3.8253856
0.24025247,0.21348295,-0.085924044,-4.4857106,-4.9458117,-3.7062252
0.23276895,0.20683327,-0.08324764,-4.3459873,-4.791757,-3.5907817
0.22551887,0.20039101,-0.08065471,-4.2106223,-4.6425076,-3.478939
0.21849488,0.19414964,-0.07814265,-4.0794783,-4.4979124,-3.3705842
0.21168992,0.1881029,-0.07570892,-3.9524243,-4.3578258,-3.2656083
0.20509712,0.1822447,-0.07335106,-3.8293314,-4.2221074,-3.1639056
0.19870986,0.17656912,-0.07106672,-3.710076,-4.09062,-3.0653732
0.19252172,0.17107047,-0.06885359,-3.5945382,-3.9632316,-2.9699125
0.18652646,0.16574322,-0.066709444,-3.482602,-3.8398137,-2.8774273
0.18071805,0.160582,-0.06463212,-3.374154,-3.7202425,-2.7878249
0.17509066,0.15558164,-0.06261954,-3.2690861,-3.6043978,-2.7010145
0.16963863,0.15073709,-0.06066967,-3.1672924,-3.492163,-2.6169095
0.1643565,0.1460435,-0.058780562,-3.0686705,-3.3834255,-2.5354254
0.15923895,0.14149615,-0.05695032,-2.9731216,-3.278076,-2.45648
0.15428084,0.13709049,-0.055177096,-2.8805497,-3.1760087,-2.3799944
0.1494772,0.13282208,-0.05345912,-2.7908618,-3.0771215,-2.3058915
0.1448232,0.12868664,-0.05179466,-2.7039678,-2.981315,-2.2340972
0.14031418,0.12468003,-0.050182052,-2.6197808,-2.8884928,-2.1645393
0.13594562,0.12079822,-0.048619676,-2.538216,-2.7985618,-2.0971484
0.13171312,0.117037326,-0.047105964,-2.459192,-2.7114325,-2.0318563
0.12761247,0.113393575,-0.045639403,-2.3826294,-2.6270165,-1.968598
0.123639524,0.1098633,-0.044218518,-2.3084512,-2.54523,-1.9073099
0.119790316,0.10644299,-0.042841885,-2.2365835,-2.4659905,-1.8479306
0.11606099,0.103129186,-0.041508123,-2.1669538,-2.389219,-1.7904005
0.1124478,0.09991859,-0.040215902,-2.0994925,-2.3148384,-1.7346622
0.10894713,0.09680797,-0.03896392,-2.0341322,-2.242774,-1.6806595
0.105555475,0.09379423,-0.037750926,-1.9708072,-2.1729536,-1.6283386
0.10226943,0.09087432,-0.036575705,-1.9094542,-2.1053076,-1.5776469
0.09908572,0.088045344,-0.035437077,-1.8500116,-2.039768,-1.5285336
0.09600113,0.085304454,-0.034333907,-1.7924199,-1.9762691,-1.4809498
0.0930126,0.08264891,-0.033265084,-1.7366215,-1.9147475,-1.4348475
0.09011712,0.08007605,-0.032229543,-1.6825604,-1.8551414,-1.3901807
0.08731179,0.0775833,-0.031226246,-1.6301827,-1.7973912,-1.3469046
0.08459381,0.07516816,-0.030254183,-1.5794358,-1.7414391,-1.304976
0.081960455,0.07282822,-0.029312389,-1.5302689,-1.6872292,-1.2643528
0.079409085,0.07056113,-0.028399916,-1.4826328,-1.634707,-1.2249944
0.076937154,0.06836463,-0.027515851,-1.4364797,-1.58382,-1.1868615
0.07454218,0.0662365,-0.026659312,-1.3917636,-1.5345173,-1.1499157
0.07222176,0.064174645,-0.025829438,-1.3484396,-1.4867495,-1.1141202
0.069973595,0.06217697,-0.025025401,-1.3064644,-1.440469,-1.079439
0.06779542,0.060241487,-0.024246396,-1.2657961,-1.3956293,-1.0458376
0.06568505,0.05836626,-0.023491643,-1.2263938,-1.3521855,-1.0132824
0.063640386,0.05654942,-0.022760388,-1.1882181,-1.3100941,-0.98174053
0.06165937,0.054789133,-0.022051897,-1.1512309,-1.2693132,-0.9511807
0.059740026,0.053083647,-0.021365462,-1.1153953,-1.2298018,-0.92157215
0.057880435,0.051431254,-0.020700395,-1.0806751,-1.1915205,-0.8928854
0.056078732,0.049830303,-0.020056034,-1.0470359,-1.1544309,-0.8650917
0.05433312,0.04827919,-0.01943173,-1.0144439,-1.1184958,-0.8381632
0.052641846,0.04677636,-0.018826863,-0.9828664,-1.0836794,-0.812073
0.05100322,0.045320317,-0.018240824,-0.952272,-1.0499469,-0.78679496
0.04941561,0.043909602,-0.01767303,-0.92262995,-1.0172645,-0.7623038
0.047877416,0.0425428,-0.01712291,-0.89391065,-0.9855994,-0.7385751
0.04638711,0.041218545,-0.016589915,-0.86608535,-0.95492005,-0.71558505
0.04494319,0.03993551,-0.016073512,-0.8391262,-0.92519575,-0.6933106
0.04354422,0.03869242,-0.015573184,-0.81300634,-0.89639676,-0.6717296
0.0421888,0.037488025,-0.015088431,-0.7876995,-0.8684942,-0.6508204
