ax,ay,az,gx,gy,gz
-5.785507,-1.440013,-6.5600595,81.898926,-8.156438,16.757425
-5.723801,-0.8520466,-6.644842,72.394394,-5.0844464,9.3257675
-5.5968614,-0.61676675,-6.6778564,62.825974,-3.8556254,4.438281
-5.696777,-0.54534,-6.8130255,55.305,-6.0494385,2.7392473
-5.9182,-0.5028517,-6.991584,47.15066,-11.672034,2.1626651
-6.0775337,-0.5154535,-7.1617765,41.862816,-19.477526,1.8047658
-6.0269322,-0.5402233,-7.2467313,38.97162,-27.334158,1.7475656
-5.8594284,-0.5565318,-7.2158513,37.065567,-34.253666,1.6813943
-5.6853456,-0.6225781,-7.1293006,37.159718,-40.82586,1.6433504
-5.4761705,-0.7229636,-7.0294366,38.758705,-47.156113,1.7992785
-5.213958,-0.8055156,-6.9585066,39.760605,-53.84198,2.6618624
-4.9502463,-0.9100611,-6.84095,39.174625,-60.67186,4.251917
-4.668522,-1.0553979,-6.657694,38.06964,-67.57564,6.0884557
-4.286812,-1.2053639,-6.387079,37.29649,-73.29338,7.734547
-3.8450518,-1.3552823,-6.072551,36.976913,-77.63056,9.547977
-3.4127488,-1.4989619,-5.7206936,37.10416,-81.24051,12.265606
-2.9338045,-1.5804124,-5.2884855,36.821213,-84.19359,15.366442
-2.4646423,-1.6366227,-4.8588347,36.216625,-85.961845,18.718214
-2.0769057,-1.7136036,-4.4701576,35.740253,-87.32882,22.108404
-1.7226682,-1.7819082,-4.071556,35.84389,-88.52126,25.192526
-1.3428879,-1.7931436,-3.6457846,36.453037,-88.93995,27.804014
-0.92332715,-1.7676561,-3.1896436,37.16176,-88.48323,30.320374
-0.5000123,-1.7228618,-2.7133126,37.671173,-87.31591,32.859943
-0.07426883,-1.6297753,-2.2165406,37.923443,-85.315094,35.17324
0.33304864,-1.5108545,-1.7385147,37.951378,-82.63477,37.211315
0.6984173,-1.3976086,-1.3047254,38.135036,-79.550705,39.18399
1.0496101,-1.2717755,-0.8939103,38.6275,-76.2491,41.014343
1.4074943,-1.1080104,-0.4983376,39.304623,-72.477745,42.56403
1.7507784,-0.9133612,-0.12616485,39.917133,-68.0634,43.848366
2.0535185,-0.71789825,0.19176646,40.48385,-62.78233,44.674202
2.3014069,-0.55518323,0.43351498,41.73943,-56.88094,44.565647
2.4951518,-0.4163446,0.61350256,43.552723,-50.9158,43.97168
2.6737578,-0.250125,0.78449076,45.065796,-44.91123,43.257366
2.8278382,-0.028313385,0.9432707,45.844154,-38.69941,42.644733
2.934874,0.22346719,1.043416,45.90551,-32.579166,41.67126
2.9815779,0.4499328,1.0802535,45.348743,-26.720161,40.498074
2.9873428,0.66276175,1.0663631,44.014454,-21.198734,39.467297
2.9758568,0.85885894,1.015599,41.83583,-15.928951,38.601353
2.9378738,1.0161384,0.91883254,39.34705,-10.813584,37.67336
2.8601763,1.141371,0.77586657,37.363724,-5.927795,36.33599
2.7503943,1.2651447,0.60588586,36.11261,-1.3333051,34.25804
2.606932,1.4008397,0.41609627,34.620174,2.7079737,31.903824
2.4522843,1.534444,0.22161569,32.677174,6.0604568,29.616829
2.3004704,1.6612608,0.030004995,30.153357,8.787339,27.411903
2.1641953,1.7722746,-0.14940996,27.00011,11.090318,25.467642
2.0377684,1.8635184,-0.3278017,23.050085,13.156779,23.889105
1.8873212,1.9171382,-0.5363195,18.97437,14.956829,22.424105
1.7131115,1.9477272,-0.76099366,15.177242,16.37601,20.85326
1.5285889,1.9697615,-0.98857385,11.848429,17.405457,19.08723
1.3440605,1.9912311,-1.2130023,8.837253,18.104551,17.210878
1.1513745,2.0084918,-1.436142,5.877506,18.284435,15.257365
0.95150155,2.0054882,-1.6537182,2.8800192,18.002636,13.401521
0.74803513,1.9869308,-1.8641595,-0.19517802,17.344126,11.750788
0.5410735,1.9550675,-2.0682874,-3.2542756,16.430195,10.239272
0.32501253,1.8995103,-2.2735367,-5.896329,15.265156,8.715192
0.11469425,1.8259333,-2.4704382,-7.709943,13.613266,6.9350247
-0.07822208,1.7540854,-2.6330976,-8.861354,11.461637,4.9568295
-0.24738829,1.689684,-2.760384,-9.721106,9.003684,2.932095
-0.38233337,1.6229178,-2.8527937,-10.607883,6.2609253,1.0058321
-0.46899876,1.5480682,-2.9084022,-11.616243,3.3551729,-0.6452454
-0.50628847,1.4702709,-2.930672,-12.967726,0.5479184,-1.6631348
-0.5286334,1.3804561,-2.9389763,-14.368767,-2.0206532,-2.3646019
-0.5650678,1.2693315,-2.9578187,-15.431138,-4.614329,-3.0298524
-0.59637445,1.1481805,-2.966756,-15.807387,-7.4037685,-3.7685647
-0.59044236,1.0555128,-2.9482958,-15.828996,-10.309532,-4.5310125
-0.54903954,0.9970256,-2.8983247,-16.192856,-13.092603,-5.016566
-0.50737584,0.9474465,-2.8318145,-16.732132,-15.6951065,-5.4347744
-0.4853222,0.8831628,-2.767999,-16.515135,-18.28978,-6.2684293
-0.44398522,0.8222534,-2.6864634,-15.395095,-20.916138,-7.6997743
-0.35690263,0.7822911,-2.5611331,-13.892167,-23.50522,-9.266193
-0.2327943,0.7764233,-2.385278,-13.000935,-25.70098,-10.516121
-0.10247063,0.7990483,-2.1642895,-12.698179,-27.554125,-11.825492
0.044534568,0.8162258,-1.9188521,-12.920961,-29.028183,-13.060556
0.21568564,0.82630414,-1.6573633,-13.870077,-30.070408,-13.927796
0.3821054,0.8261995,-1.4061372,-15.40676,-30.74972,-14.617708
0.5244724,0.79613054,-1.179777,-16.669113,-30.920073,-15.536116
0.6529639,0.7227213,-0.9833416,-17.454216,-30.86105,-16.457375
0.7795492,0.6367299,-0.7949705,-17.924637,-30.555264,-17.061417
0.898083,0.549458,-0.61753917,-18.310436,-30.068743,-17.258747
1.0013356,0.45624584,-0.45805183,-18.433603,-29.34587,-17.157202
1.0924964,0.34824383,-0.31848937,-17.8875,-28.221386,-16.678215
1.1657985,0.23635496,-0.1979042,-16.932434,-26.748848,-16.062862
1.2192844,0.14250289,-0.09201767,-15.750774,-24.931963,-15.645884
1.1809524,0.13802287,-0.089124806,-15.255599,-24.14815,-15.154006
1.1438482,0.13368633,-0.0863246,-14.776284,-23.389439,-14.677883
1.1079302,0.12948845,-0.083613925,-14.312295,-22.654987,-14.216983
1.0731589,0.12542458,-0.08098978,-13.863116,-21.943981,-13.770796
1.0394957,0.12149022,-0.078449264,-13.428254,-21.255636,-13.33883
1.0069039,0.117681086,-0.07598961,-13.007233,-20.589201,-12.920612
0.9753481,0.11399303,-0.07360814,-12.599593,-19.943945,-12.515687
0.944794,0.11042204,-0.071302265,-12.204893,-19.319174,-12.123615
0.9152086,0.10696427,-0.0690695,-11.822708,-18.71421,-11.743976
0.88656014,0.10361601,-0.06690744,-11.452626,-18.128408,-11.376358
0.8588181,0.10037368,-0.064813785,-11.094253,-17.561136,-11.020371
0.83195287,0.09723382,-0.0627863,-10.747207,-17.011795,-10.675636
0.8059359,0.09419311,-0.06082284,-10.4111185,-16.479801,-10.341786
0.7807398,0.09124833,-0.058921326,-10.085633,-15.964589,-10.018469
0.7563379,0.08839638,-0.05707975,-9.770409,-15.465618,-9.705343
0.73270464,0.08563426,-0.05529618,-9.465113,-14.982365,-9.402081
0.70981526,0.082959086,-0.05356875,-9.169427,-14.514322,-9.108364
0.68764585,0.08036805,-0.051895656,-8.883041,-14.061002,-8.823885
0.6661733,0.07785847,-0.050275154,-8.605659,-13.62193,-8.548349
0.6453753,0.07542772,-0.048705563,-8.336989,-13.196653,-8.281469
0.6252304,0.0730733,-0.04718525,-8.076756,-12.784728,-8.022969
0.6057176,0.07079276,-0.04571265,-7.8246884,-12.385731,-7.7725806
0.58681685,0.06858375,-0.044286236,-7.580528,-11.999248,-7.530046
0.5685086,0.06644399,-0.04290454,-7.344022,-11.624881,-7.2951145
0.55077416,0.06437129,-0.04156615,-7.114927,-11.262246,-7.0675454
0.5335952,0.062363513,-0.040269677,-6.893008,-10.910971,-6.847105
0.5169542,0.060418606,-0.0390138,-6.6780386,-10.570694,-6.633567
0.50083405,0.058534574,-0.037797235,-6.4697976,-10.241068,-6.4267125
0.48521826,0.056709494,-0.036618736,-6.2680726,-9.921757,-6.2263308
0.47009096,0.0549415,-0.035477098,-6.072657,-9.612433,-6.032217
0.4554367,0.0532288,-0.034371164,-5.8833528,-9.312782,-5.844173
0.44124058,0.051569637,-0.0332998,-5.6999664,-9.0225,-5.662008
0.42748812,0.04996233,-0.032261923,-5.5223117,-8.741289,-5.485536
0.41416535,0.048405245,-0.031256475,-5.350208,-8.468865,-5.3145785
0.4012588,0.046896797,-0.030282432,-5.1834803,-8.204951,-5.148961
0.38875532,0.045435466,-0.029338814,-5.02196,-7.94928,-4.9885163
0.37664226,0.044019762,-0.02842466,-4.865483,-7.701592,-4.8330812
0.36490738,0.042648256,-0.027539043,-4.7138906,-7.4616365,-4.682499
0.35353878,0.04131956,-0.026681071,-4.5670304,-7.229171,-4.536617
0.34252498,0.04003233,-0.025849875,-4.4247537,-7.00396,-4.3952875
0.33185482,0.038785264,-0.025044614,-4.2869163,-6.785777,-4.258368
0.3215176,0.037577108,-0.024264475,-4.1533794,-6.5744004,-4.12572
0.31150278,0.036406636,-0.023508674,-4.024008,-6.369618,-3.9972103
0.30180037,0.035272673,-0.022776445,-3.8986714,-6.171222,-3.8727083
0.2924005,0.034174073,-0.022067053,-3.7772436,-5.979014,-3.7520895
0.28329378,0.033109732,-0.02137978,-3.6596024,-5.792799,-3.6352315
0.27447098,0.032078575,-0.020713937,-3.545629,-5.6123905,-3.5220172
0.26592323,0.031079564,-0.02006885,-3.435209,-5.437606,-3.4123325
0.25764197,0.030111697,-0.019443873,-3.328231,-5.26827,-3.306067
0.24961881,0.029173998,-0.018838378,-3.2245877,-5.1042123,-3.2031138
0.24184571,0.028265523,-0.018251754,-3.1241744,-4.945268,-3.1033692
0.23431487,0.027385361,-0.017683411,-3.0268905,-4.791277,-3.0067332
0.22701871,0.02653263,-0.01713278,-2.9326384,-4.642085,-2.9131088
0.2199499,0.025706466,-0.016599307,-2.8413231,-4.497542,-2.8224015
0.21310133,0.024906047,-0.016082456,-2.7528532,-4.357502,-2.7345207
0.20646615,0.024130564,-0.0155817075,-2.6671395,-4.2218256,-2.6493778
0.20003767,0.023379242,-0.01509656,-2.5840962,-4.090376,-2.5668876
0.19380948,0.022651326,-0.014626526,-2.50364,-3.9630215,-2.486967
0.18777528,0.021946086,-0.014171135,-2.42569,-3.8396344,-2.4095364
0.18192907,0.021262813,-0.013729929,-2.3501682,-3.7200906,-2.3345175
0.17626494,0.020600822,-0.013302465,-2.2769988,-3.6042705,-2.2618353
0.17077723,0.019959452,-0.012888316,-2.2061083,-3.4920576,-2.191417
0.16546045,0.019338056,-0.012487066,-2.137426,-3.38334,-2.1231918
0.16030926,0.018736014,-0.012098312,-2.0708826,-3.278008,-2.0570915
0.15531848,0.018152723,-0.011721666,-2.0064116,-3.1759567,-1.9930499
0.15048313,0.017587595,-0.011356749,-1.9439483,-3.0770833,-1.9310026
0.14579837,0.017040066,-0.011003196,-1.8834302,-2.9812891,-1.8708876
0.14125949,0.016509589,-0.010660654,-1.8247968,-2.888478,-1.8126447
0.13686195,0.015995631,-0.010328777,-1.7679892,-2.798557,-1.7562153
0.13260135,0.015497675,-0.010007236,-1.7129505,-2.711436,-1.7015432
0.1284734,0.015015226,-0.009695706,-1.6596255,-2.627028,-1.6485734
0.124474004,0.014547799,-0.009393876,-1.607961,-2.545248,-1.597253
0.12059913,0.014094926,-0.009101446,-1.5579052,-2.4660144,-1.5475305
0.1168449,0.013656154,-0.00881812,-1.509408,-2.389248,-1.4993562
0.11320757,0.013231044,-0.008543615,-1.4624207,-2.3148715,-1.4526818
0.109683484,0.012819168,-0.008277657,-1.4168963,-2.242811,-1.4074607
0.10626911,0.012420117,-0.00801998,-1.3727895,-2.172994,-1.3636475
0.10296105,0.01203349,-0.007770325,-1.3300557,-2.1053505,-1.3211983
0.09975598,0.0116589,-0.007528443,-1.2886525,-2.039813,-1.2800708
0.0966507,0.011295972,-0.007294091,-1.2485383,-1.9763161,-1.2402236
0.093642086,0.010944343,-0.0070670354,-1.2096729,-1.914796,-1.2016171
0.09072714,0.010603662,-0.0068470486,-1.1720175,-1.8551911,-1.1642125
0.08790294,0.010273586,-0.006633911,-1.1355344,-1.7974418,-1.1279724
0.08516667,0.009953786,-0.0064274077,-1.1001871,-1.7414905,-1.0928605
0.08251558,0.009643942,-0.006227334,-1.0659401,-1.6872809,-1.0588416
0.079947025,0.009343743,-0.0060334885,-1.0327594,-1.634759,-1.0258818
0.07745843,0.009052891,-0.0058456776,-1.0006115,-1.5838721,-0.9939481
0.0750473,0.008771093,-0.0056637134,-0.96946454,-1.5345693,-0.96300846
0.07271123,0.008498067,-0.0054874136,-0.9392871,-1.4868014,-0.93303204
0.07044789,0.008233541,-0.0053166025,-0.91004914,-1.4405204,-0.9039888
0.068255,0.007977248,-0.0051511084,-0.8817214,-1.3956802,-0.8758496
0.06613038,0.007728935,-0.0049907663,-0.8542754,-1.3522359,-0.8485864
0.0640719,0.0074883513,-0.0048354156,-0.8276838,-1.310144,-0.8221719
0.062077492,0.007255257,-0.0046849004,-0.80192,-1.2693623,-0.79657966
0.060145173,0.007029419,-0.004539071,-0.7769582,-1.2298502,-0.7717841
0.058273006,0.0068106106,-0.004397781,-0.75277346,-1.191568,-0.7477604
0.056459114,0.0065986137,-0.0042608897,-0.7293415,-1.1544776,-0.72448456
