ax,ay,az,gx,gy,gz
-3.1100283,-0.22636569,-5.098228,41.33765,-50.54864,-11.430104
-3.4268653,-0.22333264,-5.6784563,36.82186,-56.73764,-12.847067
-3.6136987,-0.3877166,-5.9542923,36.106094,-61.795303,-12.620506
-3.5983498,-0.4685725,-6.011261,34.45411,-66.58489,-12.205434
-3.4134033,-0.482863,-5.8561254,23.742245,-68.777596,-12.289993
-3.1874428,-0.6880932,-5.732815,18.883917,-71.69823,-10.781388
-2.9789977,-0.83708715,-5.6522,19.803947,-75.48161,-8.79828
-2.7844677,-0.900286,-5.574514,21.986265,-79.357315,-6.86425
-2.5925052,-0.9485967,-5.44438,23.76885,-83.77503,-4.0477448
-2.3527522,-0.99335897,-5.280737,24.20762,-88.528,-0.32755962
-2.1292877,-1.1600084,-5.1126795,23.993496,-92.33988,3.7109392
-1.9017324,-1.3572985,-5.0007944,23.882488,-95.65317,7.676833
-1.6364833,-1.5669097,-4.8484945,24.825447,-98.64192,10.9513235
-1.2858561,-1.7553498,-4.600191,27.117693,-100.96896,13.052518
-0.8850962,-1.9597043,-4.2793636,31.39243,-102.44777,14.817947
-0.42890742,-2.1528606,-3.8874464,35.54775,-103.4134,17.460651
-0.0076215705,-2.2992344,-3.4653635,39.205677,-103.99038,21.02671
0.4195502,-2.3603692,-3.001445,42.11835,-104.06157,25.012587
0.8359681,-2.345014,-2.5199752,44.518116,-103.22161,29.256681
1.2228477,-2.2744994,-2.0676057,45.940044,-101.05205,33.7943
1.5634276,-2.1923656,-1.6571999,47.125057,-98.54096,38.095062
1.909178,-2.110613,-1.2436427,48.33788,-95.58423,42.234367
2.2560568,-1.9822263,-0.8352324,49.815914,-92.12227,46.21444
2.570329,-1.7913985,-0.4479339,51.320618,-88.31943,49.715305
2.8510106,-1.5520953,-0.075932704,52.547287,-83.984184,52.657825
3.114712,-1.2695595,0.2769284,53.330532,-79.1506,55.08944
3.3416166,-1.0044596,0.5800993,53.759888,-73.87726,57.02811
3.5405219,-0.7648493,0.8409379,53.661064,-68.529045,58.95279
3.7352774,-0.54746926,1.0781796,52.90624,-63.002094,60.769318
3.9193184,-0.326637,1.3107594,52.29106,-56.90168,62.30292
4.0830183,-0.045983143,1.5123358,51.629456,-50.313618,63.17053
4.199185,0.22419174,1.6437479,50.852398,-43.418663,63.518234
4.269374,0.4666693,1.6982261,49.78211,-36.617363,63.616714
4.3049808,0.6834058,1.7071226,48.47467,-30.00602,63.548676
4.3206706,0.8833912,1.6967489,47.02353,-23.592857,63.183212
4.3199553,1.0920843,1.6834269,45.610245,-17.255041,62.563133
4.304601,1.3340307,1.6557626,43.905926,-10.937382,61.595783
4.2664223,1.593911,1.5856625,41.7975,-4.72357,60.099022
4.2031794,1.8333364,1.4625088,39.118423,1.1257164,58.157818
4.121046,2.0179079,1.2924961,35.762005,6.3114076,55.99328
4.017388,2.1333349,1.0773079,32.431988,10.829605,53.87321
3.9113748,2.231215,0.8584476,29.293774,14.850584,51.910088
3.8093758,2.3511152,0.64738363,26.231434,18.82609,50.070675
3.6924057,2.490641,0.41747743,23.226694,22.87658,48.054947
3.5440576,2.6262121,0.15078862,20.608566,26.775698,45.29628
3.3525488,2.7396634,-0.15924266,18.48623,30.125355,42.04667
3.132456,2.8424635,-0.49265847,16.400871,32.50891,38.720448
2.8994553,2.9435575,-0.82878906,13.862219,33.803383,35.646557
2.666166,3.054959,-1.1527611,10.898694,34.35935,32.810158
2.4331684,3.1707444,-1.4730313,7.524458,34.216667,29.856016
2.2022996,3.2549026,-1.793743,4.189016,33.599907,26.648449
1.9867221,3.298234,-2.1056414,1.1334841,32.40669,23.22426
1.7838162,3.3082483,-2.4018412,-1.6183138,30.779669,19.858847
1.5840799,3.2948353,-2.6870742,-4.079909,28.596615,16.567142
1.3932289,3.2519405,-2.9580557,-5.6452265,25.342234,13.185567
1.2518764,3.1830025,-3.1671178,-6.596979,21.54898,9.712944
1.1713821,3.1077654,-3.2969701,-7.216995,17.564905,6.238495
1.1455445,3.0306914,-3.3537335,-7.7065887,13.712753,2.9835765
1.14422,2.9482436,-3.3747163,-8.433858,10.030515,0.24604836
1.1309557,2.859377,-3.3927708,-9.409646,6.3379474,-2.0422907
1.0875283,2.7675698,-3.407525,-9.845472,2.3295376,-4.513631
1.0659344,2.6834798,-3.3772812,-9.6332855,-1.7244488,-7.24252
1.0882361,2.6156282,-3.2859087,-9.087229,-5.601971,-10.150721
1.1626796,2.56031,-3.1230154,-8.5501995,-9.01689,-13.019467
1.2703129,2.5059574,-2.9176786,-8.891723,-11.862902,-15.54034
1.363965,2.408893,-2.6955583,-9.543,-14.600012,-17.767416
1.4657828,2.2878191,-2.4599555,-10.131082,-17.208977,-19.914972
1.5937208,2.1541674,-2.2081256,-10.545039,-19.505276,-21.929464
1.7285044,2.01185,-1.9394023,-10.958752,-21.281898,-23.611132
1.86337,1.8625605,-1.6637912,-11.551282,-22.345137,-24.631252
2.0074332,1.7051269,-1.3990501,-12.543846,-22.850208,-25.127659
2.1286242,1.5270674,-1.1631569,-13.788745,-22.981453,-25.196188
2.222692,1.3299669,-0.94858867,-14.792852,-22.848642,-24.952343
2.3010707,1.1381532,-0.74866784,-15.338014,-22.462742,-24.51133
2.3621771,0.959447,-0.56532025,-15.327781,-21.820742,-23.843113
2.3993227,0.79203147,-0.40613636,-15.136304,-20.967983,-22.756392
2.3234732,0.76699305,-0.39329723,-14.657802,-20.305126,-22.036997
2.250091,0.7427692,-0.38087577,-14.194866,-19.663832,-21.341005
2.1790903,0.7193313,-0.36885732,-13.746951,-19.043344,-20.667595
2.110387,0.696652,-0.35722786,-13.313533,-18.44294,-20.015982
2.0439024,0.67470497,-0.3459739,-12.894109,-17.861921,-19.385406
1.9795595,0.65346503,-0.33508253,-12.488197,-17.299622,-18.775146
1.9172854,0.6329079,-0.3245413,-12.095337,-16.7554,-18.184507
1.8570095,0.6130105,-0.31433833,-11.715082,-16.228642,-17.61282
1.7986643,0.59375036,-0.30446216,-11.347007,-15.718755,-17.059444
1.7421845,0.575106,-0.29490176,-10.9907,-15.22517,-16.52376
1.6875076,0.55705684,-0.28564653,-10.645766,-14.747342,-16.005177
1.6345733,0.5395829,-0.27668628,-10.311827,-14.284743,-15.503122
1.583324,0.52266514,-0.2680112,-9.988516,-13.836868,-15.017047
1.5337034,0.50628513,-0.2596119,-9.675481,-13.403228,-14.546421
1.485658,0.49042502,-0.25147918,-9.372383,-12.983354,-14.090734
1.4391359,0.4750678,-0.24360435,-9.078896,-12.576791,-13.649495
1.3940872,0.46019694,-0.23597889,-8.794703,-12.1831045,-13.22223
1.3504637,0.44579655,-0.22859469,-8.519501,-11.801873,-12.808483
1.308219,0.4318513,-0.22144388,-8.252996,-11.432692,-12.407812
1.2673082,0.41834638,-0.21451885,-7.9949074,-11.075167,-12.0197935
1.2276881,0.40526754,-0.2078123,-7.744961,-10.728921,-11.644016
1.1893169,0.39260095,-0.20131716,-7.5028934,-10.393591,-11.280085
1.1521543,0.38033336,-0.1950266,-7.2684507,-10.068823,-10.927616
1.1161616,0.36845192,-0.18893406,-7.0413876,-9.754277,-10.586242
1.0813009,0.3569442,-0.18303315,-6.8214664,-9.449625,-10.255606
1.047536,0.3457982,-0.17731772,-6.608458,-9.15455,-9.935363
1.0148319,0.33500236,-0.17178187,-6.4021416,-8.868744,-9.62518
0.9831546,0.3245455,-0.1664198,-6.2023034,-8.591912,-9.324737
0.9524714,0.31441677,-0.16122602,-6.008736,-8.323768,-9.033721
0.92275053,0.30460572,-0.15619513,-5.82124,-8.0640335,-8.751834
0.8939615,0.2951023,-0.15132198,-5.639622,-7.8124423,-8.478784
0.8660746,0.28589666,-0.14660153,-5.4636955,-7.5687356,-8.214291
0.83906126,0.2769794,-0.14202896,-5.29328,-7.3326626,-7.958082
0.81289375,0.26834133,-0.13759954,-5.1282005,-7.1039815,-7.7098966
0.7875453,0.25997365,-0.13330878,-4.968288,-6.882458,-7.469479
0.76299006,0.2518678,-0.12915228,-4.8133793,-6.6678667,-7.236584
0.73920286,0.2440155,-0.1251258,-4.663316,-6.459987,-7.0109744
0.7161595,0.23640874,-0.121225215,-4.5179453,-6.2586083,-6.79242
0.69383657,0.22903979,-0.11744658,-4.377119,-6.063525,-6.5806975
0.6722112,0.22190115,-0.11378604,-4.2406945,-5.874539,-6.375592
0.6512617,0.21498555,-0.11023988,-4.1085324,-5.6914577,-6.1768956
0.6309665,0.20828599,-0.10680449,-3.9804988,-5.514096,-5.984406
0.6113052,0.20179567,-0.1034764,-3.856464,-5.342273,-5.7979283
0.5922578,0.19550802,-0.10025222,-3.7363021,-5.175816,-5.6172733
0.5738051,0.18941665,-0.097128704,-3.6198916,-5.014555,-5.4422584
0.5559283,0.18351541,-0.09410268,-3.507115,-4.858328,-5.272706
0.53860945,0.17779836,-0.09117109,-3.3978574,-4.706976,-5.108445
0.521831,0.17225969,-0.088330984,-3.2920094,-4.560347,-4.94931
0.505576,0.16689381,-0.085579485,-3.1894636,-4.4182925,-4.7951393
0.48982808,0.16169532,-0.08291381,-3.0901165,-4.2806697,-4.6457777
0.47457132,0.15665896,-0.08033128,-2.9938684,-4.147339,-4.501075
0.45979038,0.15177968,-0.077829294,-2.9006214,-4.018166,-4.360885
0.44547033,0.14705254,-0.07540532,-2.8102825,-3.8930213,-4.225066
0.43159676,0.14247279,-0.07305692,-2.72276,-3.7717786,-4.0934825
0.41815573,0.13803582,-0.070781745,-2.6379662,-3.6543157,-3.9660008
0.40513366,0.13373716,-0.06857748,-2.5558157,-3.5405142,-3.842493
0.3925175,0.1295725,-0.06644193,-2.4762259,-3.4302602,-3.722835
0.3802946,0.12553762,-0.06437294,-2.3991165,-3.3234425,-3.6069067
0.36845258,0.1216285,-0.062368426,-2.3244102,-3.2199535,-3.494591
0.35697958,0.1178412,-0.06042638,-2.252032,-3.1196897,-3.3857753
0.34586412,0.11417191,-0.05854485,-2.1819093,-3.02255,-3.2803504
0.33509496,0.110616945,-0.056721944,-2.1139712,-2.9284372,-3.1782105
0.32466134,0.10717275,-0.054955833,-2.04815,-2.8372567,-3.0792527
0.31455278,0.10383584,-0.053244743,-1.9843795,-2.7489166,-2.9833782
0.30475914,0.1006029,-0.05158696,-1.9225955,-2.6633286,-2.89049
0.29527056,0.09747066,-0.04998082,-1.8627362,-2.580407,-2.8004959
0.2860776,0.094436,-0.04842471,-1.8047415,-2.5000682,-2.7133048
0.27717093,0.09149586,-0.04691707,-1.7485533,-2.4222317,-2.6288295
0.2685417,0.08864729,-0.045456387,-1.694115,-2.3468196,-2.5469854
0.26018122,0.08588745,-0.044041198,-1.6413723,-2.2737565,-2.4676905
0.25208113,0.08321356,-0.042670086,-1.5902723,-2.2029688,-2.390865
0.2442333,0.08062294,-0.041341674,-1.5407637,-2.1343856,-2.3164325
0.23662987,0.078113005,-0.040054634,-1.492797,-2.0679383,-2.2443175
0.22926323,0.075681224,-0.038807675,-1.446324,-2.0035603,-2.1744487
0.22212599,0.07332518,-0.037599545,-1.4012982,-1.941187,-2.1067555
0.215211,0.0710425,-0.036429036,-1.3576745,-1.8807561,-2.0411701
0.20851134,0.0688309,-0.035294976,-1.3154092,-1.8222069,-1.9776272
0.20202029,0.066688165,-0.034196228,-1.2744598,-1.7654808,-1.9160628
0.19573136,0.06461214,-0.033131693,-1.2347857,-1.710521,-1.8564154
0.18963824,0.06260077,-0.0321003,-1.1963469,-1.6572726,-1.7986251
0.18373483,0.06065202,-0.031101026,-1.1591048,-1.605682,-1.7426343
0.17801525,0.058763947,-0.030132864,-1.1230223,-1.5556977,-1.6883868
0.17247373,0.05693466,-0.029194845,-1.0880632,-1.5072697,-1.6358283
0.16710475,0.055162326,-0.02828603,-1.0541927,-1.4603496,-1.5849062
0.16190293,0.05344517,-0.027405512,-1.0213766,-1.4148902,-1.5355694
0.15686306,0.05178148,-0.026552407,-0.9895822,-1.3708462,-1.4877688
0.1519801,0.050169583,-0.025725862,-0.95877767,-1.3281733,-1.4414563
0.14724916,0.048607867,-0.02492505,-0.9289322,-1.286829,-1.3965856
0.1426655,0.047094774,-0.024149168,-0.90001583,-1.2467718,-1.3531119
0.13822454,0.045628786,-0.023397442,-0.87199974,-1.2079617,-1.3109916
0.13392183,0.044208437,-0.022669118,-0.8448558,-1.1703598,-1.2701826
0.12975308,0.042832308,-0.021963468,-0.8185569,-1.1339287,-1.230644
0.12571411,0.041499015,-0.021279784,-0.79307675,-1.0986315,-1.1923363
0.12180087,0.04020723,-0.020617386,-0.76838976,-1.0644332,-1.1552212
0.118009456,0.03895566,-0.019975608,-0.7444714,-1.0312996,-1.1192615
0.114336066,0.03774305,-0.019353809,-0.7212975,-0.9991973,-1.0844212
0.11077703,0.03656819,-0.018751366,-0.6988451,-0.96809447,-1.0506655
0.10732879,0.035429906,-0.018167678,-0.6770916,-0.93795985,-1.0179607
0.10398789,0.034327053,-0.01760216,-0.6560153,-0.9087633,-0.9862738
0.10075099,0.033258535,-0.017054247,-0.6355951,-0.88047564,-0.95557344
0.097614855,0.032223277,-0.01652339,-0.6158105,-0.85306853,-0.92582875
0.094576344,0.031220244,-0.016009057,-0.59664184,-0.8265146,-0.89700997
0.09163242,0.030248435,-0.015510734,-0.57806987,-0.80078727,-0.8690883
0.088780135,0.02930688,-0.015027925,-0.56007606,-0.77586085,-0.84203583
