ax,ay,az,gx,gy,gz
-1.7918345,-0.02181838,-3.0318458,29.630268,5.5491414,-1.6091055
-1.7542725,0.18249942,-3.7032611,20.630632,14.217915,2.7925467
-2.2822375,0.37882292,-4.7195334,14.949817,10.274025,3.0340981
-2.9184344,0.38914818,-5.560317,16.56437,4.6510324,-1.3545922
-3.4670618,0.38418624,-6.2249846,21.918638,-0.74652755,-7.3494773
-3.894181,0.43942904,-6.730228,26.028475,-7.2692246,-12.900758
-4.146354,0.44222236,-7.0837307,28.167603,-13.148557,-16.660942
-4.268708,0.36440736,-7.3438926,29.996967,-18.882486,-18.578608
-4.306291,0.28094202,-7.539862,31.97678,-25.3027,-18.836668
-4.3224587,0.21962185,-7.6920705,33.879948,-32.5988,-18.633877
-4.3517976,0.12460961,-7.8663955,37.71086,-41.177723,-19.144571
-4.354055,-0.013891047,-8.0606365,42.959496,-49.982082,-20.492474
-4.2504754,-0.14240654,-8.153258,47.799423,-58.88287,-21.256983
-4.0032244,-0.25100666,-8.095808,50.447216,-67.058556,-20.595892
-3.6722145,-0.38681132,-7.940222,50.798767,-74.12766,-18.285515
-3.3033206,-0.5539369,-7.730747,49.099022,-80.04622,-14.016205
-2.9174235,-0.7691011,-7.4594603,46.776638,-85.1747,-9.644003
-2.548865,-1.0702302,-7.1840186,47.04922,-89.1087,-6.781822
-2.1587343,-1.3860682,-6.8723483,50.197735,-92.29233,-4.5657616
-1.644288,-1.6229329,-6.4315615,53.059753,-94.53575,-1.1410551
-1.0908033,-1.7720509,-5.9247575,53.593246,-95.72341,4.7811227
-0.5964151,-1.8211403,-5.4009995,53.542324,-96.35267,11.02298
-0.13903499,-1.8096793,-4.868837,53.998463,-96.632805,16.558765
0.35167983,-1.7550575,-4.2905464,54.508015,-96.46554,21.293808
0.8642375,-1.6947834,-3.6798003,54.762318,-95.66014,25.678503
1.376678,-1.6479049,-3.0552592,54.665897,-93.77209,30.098835
1.9024743,-1.5803685,-2.3951948,54.408527,-90.80299,34.66878
2.410235,-1.4691596,-1.7598436,53.80308,-86.72693,39.408936
2.853955,-1.3142089,-1.2006226,52.639965,-81.87505,44.059452
3.2177997,-1.1422179,-0.735759,51.489944,-76.59066,48.304924
3.5211308,-0.96988136,-0.3531366,50.48994,-70.78471,51.991848
3.7991946,-0.8015147,-0.044178773,49.535744,-64.39292,55.364815
4.03803,-0.6486152,0.18854855,49.00912,-57.482594,58.332436
4.212866,-0.49861825,0.33629298,49.46136,-50.37376,60.747784
4.3237453,-0.32053497,0.4193112,50.844734,-43.160137,62.283062
4.383939,-0.09724895,0.461899,53.337173,-36.00491,62.419975
4.398578,0.18714675,0.4634157,55.59516,-29.215837,61.836643
4.398183,0.48936465,0.4562996,56.749634,-22.754572,61.19996
4.3654356,0.8208614,0.44313306,56.46141,-16.561506,60.78789
4.294884,1.1813681,0.40349093,54.81199,-10.409923,60.158634
4.1683135,1.5303049,0.29326317,52.213146,-4.6278105,58.243515
4.0024705,1.8118458,0.13100898,49.67462,0.47745773,55.142765
3.867966,2.050814,-0.025597194,47.15724,5.161571,51.360943
3.7649422,2.2626898,-0.18249428,44.230316,9.248406,47.674374
3.6730318,2.450971,-0.34645635,40.25966,12.73158,44.540237
3.552553,2.6203775,-0.5426037,35.634666,15.88633,41.77504
3.3762608,2.7776883,-0.8041448,31.564901,18.552814,38.451878
3.1987605,2.9084082,-1.0818151,28.219357,20.683916,34.37191
3.0415595,3.0063133,-1.3536218,25.103458,22.278173,29.972445
2.8951068,3.0701787,-1.6213448,21.665627,23.476318,25.680422
2.7453203,3.0970197,-1.9060589,18.267008,23.942284,21.594717
2.5839782,3.0839634,-2.2161343,15.210134,23.89257,17.621113
2.3972661,3.0389652,-2.553108,12.887295,23.216724,13.623206
2.1900308,2.9646242,-2.896974,11.220225,21.95112,9.600975
1.9786091,2.8687985,-3.2264624,10.250042,20.061317,5.6959877
1.7806467,2.771748,-3.5250437,9.633805,17.29437,1.9025111
1.6228184,2.6799788,-3.757659,9.054079,13.978044,-1.7245351
1.4926177,2.5941803,-3.9360855,8.389312,10.183436,-5.058533
1.3839715,2.5183485,-4.0638857,7.646658,6.0222735,-8.135494
1.3102275,2.4478495,-4.137895,6.980099,1.7028176,-11.067356
1.2832273,2.371586,-4.1609282,6.194285,-2.607056,-13.356566
1.2996455,2.3038886,-4.1253257,4.9277906,-6.882752,-15.112819
1.327386,2.2535405,-4.0459743,3.168783,-10.988075,-16.644287
1.3620358,2.205415,-3.9500816,1.1871454,-14.676064,-18.284233
1.3862618,2.130146,-3.8667154,-0.48489258,-18.11765,-20.140842
1.4007667,2.02964,-3.7811217,-0.9612344,-21.598541,-22.48478
1.4624666,1.9363918,-3.6308126,-0.99692833,-25.055159,-24.768688
1.5638624,1.8543869,-3.424638,-1.4277824,-28.312998,-26.624002
1.6872082,1.7645992,-3.1741986,-2.3860636,-31.26447,-28.005636
1.8400035,1.6602781,-2.8688116,-3.6275773,-33.72402,-29.261257
2.0143898,1.5597192,-2.5172427,-4.4876466,-35.02308,-30.867598
2.1838799,1.4553432,-2.1705039,-5.330814,-35.368855,-32.49437
2.318585,1.341811,-1.8675845,-6.62093,-35.311703,-33.565395
2.4267159,1.2127353,-1.6104492,-8.848051,-35.031887,-33.9101
2.5085518,1.0512124,-1.3960314,-11.6033945,-34.550495,-33.777485
2.429169,1.017947,-1.3518542,-11.236206,-33.45715,-32.708603
2.352376,0.9857667,-1.3091182,-10.880998,-32.39947,-31.674587
2.2780812,0.95463336,-1.2677724,-10.537344,-31.376204,-30.674213
2.2061968,0.9245101,-1.2277682,-10.204842,-30.386135,-29.706297
2.136639,0.89536184,-1.1890587,-9.8831,-29.428112,-28.769707
2.0693274,0.8671548,-1.1515992,-9.571747,-28.50102,-27.863358
2.0041842,0.83985645,-1.1153463,-9.270425,-27.603798,-26.98621
1.9411355,0.81343573,-1.0802592,-8.97879,-26.735422,-26.137262
1.8801098,0.78786284,-1.0462978,-8.696514,-25.89491,-25.315556
1.8210387,0.763109,-1.0134243,-8.423279,-25.08132,-24.520166
1.7638563,0.73914665,-0.9816017,-8.158779,-24.293741,-23.75021
1.7084993,0.7159492,-0.95079505,-7.9027233,-23.531305,-23.004831
1.6549066,0.6934911,-0.92097026,-7.6548285,-22.793169,-22.283209
1.6030197,0.6717478,-0.89209473,-7.4148235,-22.078526,-21.584555
1.5527818,0.65069556,-0.86413693,-7.182447,-21.386595,-20.908106
1.5041388,0.63031167,-0.83706665,-6.957447,-20.71663,-20.25313
1.457038,0.610574,-0.8108546,-6.7395806,-20.067907,-19.618921
1.4114289,0.5914614,-0.78547275,-6.528614,-19.43973,-19.004799
1.3672628,0.5729535,-0.76089394,-6.324322,-18.831427,-18.410105
1.3244926,0.5550306,-0.7370919,-6.126487,-18.242348,-17.834206
1.2830728,0.5376736,-0.7140415,-5.9348984,-17.671871,-17.276491
1.2429599,0.5208642,-0.6917182,-5.7493544,-17.11939,-16.736374
1.2041113,0.50458467,-0.6700987,-5.5696597,-16.584328,-16.213282
1.1664865,0.48881796,-0.64916015,-5.3956246,-16.066118,-15.706665
1.130046,0.4735475,-0.6288807,-5.2270675,-15.5642185,-15.215996
1.0947517,0.45875734,-0.60923904,-5.0638123,-15.078107,-14.74076
1.0605668,0.4444321,-0.59021485,-4.905689,-14.607276,-14.280462
1.0274558,0.43055692,-0.5717883,-4.752533,-14.151236,-13.834625
0.9953845,0.4171174,-0.55394036,-4.604186,-13.709515,-13.402787
0.9643196,0.40409958,-0.53665245,-4.460494,-13.281655,-12.9845
0.9342291,0.3914901,-0.5199068,-4.3213096,-12.867216,-12.579333
0.9050819,0.37927595,-0.50368613,-4.186488,-12.465769,-12.186869
0.8768481,0.36744452,-0.48797378,-4.055892,-12.076903,-11.806703
0.84949875,0.35598373,-0.4727536,-3.9293864,-11.700218,-11.438445
0.82300574,0.3448818,-0.45801002,-3.8068419,-11.335327,-11.081718
0.797342,0.33412737,-0.4437279,-3.6881332,-10.981858,-10.736157
0.77248126,0.32370943,-0.4298927,-3.5731392,-10.639449,-10.401409
0.7483981,0.31361738,-0.41649023,-3.461742,-10.307751,-10.077132
0.72506815,0.3038409,-0.40350688,-3.3538282,-9.986424,-9.762996
0.7024675,0.29437006,-0.39092943,-3.249288,-9.675144,-9.458679
0.6805732,0.28519523,-0.37874505,-3.1480153,-9.373592,-9.163874
0.65936303,0.27630708,-0.3669414,-3.0499067,-9.081462,-8.87828
0.6388154,0.26769656,-0.35550645,-2.954863,-8.798458,-8.601607
0.6189095,0.25935495,-0.34442866,-2.8627877,-8.524293,-8.333576
0.5996252,0.25127384,-0.33369675,-2.7735875,-8.258688,-8.073914
0.5809429,0.243445,-0.32329988,-2.687172,-8.001375,-7.822358
0.56284374,0.23586053,-0.31322756,-2.6034536,-7.7520947,-7.5786543
0.5453095,0.22851276,-0.30346957,-2.5223482,-7.5105934,-7.3425565
0.5283223,0.22139426,-0.29401606,-2.4437733,-7.2766275,-7.1138253
0.5118651,0.21449785,-0.28485748,-2.36765,-7.049961,-6.89223
0.49592128,0.20781656,-0.27598462,-2.2939012,-6.8303657,-6.6775475
0.48047474,0.20134367,-0.26738846,-2.2224529,-6.617619,-6.469561
0.46550992,0.19507264,-0.2590604,-2.1532326,-6.411507,-6.2680607
0.45101175,0.18899715,-0.25099206,-2.0861707,-6.2118225,-6.0728436
0.43696558,0.18311109,-0.24317524,-2.0211997,-6.018364,-5.8837132
0.42335734,0.17740853,-0.23560214,-1.9582543,-5.8309364,-5.700479
0.41017333,0.17188375,-0.2282651,-1.897271,-5.6493516,-5.522957
0.39740023,0.16653116,-0.22115676,-1.8381888,-5.473427,-5.350968
0.38502523,0.1613454,-0.21426998,-1.7809478,-5.302985,-5.1843395
0.37303594,0.15632127,-0.20759782,-1.7254908,-5.137855,-5.0229044
0.3614202,0.15145369,-0.20113358,-1.671762,-4.9778714,-4.8665
0.35016647,0.14673778,-0.19487076,-1.6197073,-4.822872,-4.7149687
0.33926338,0.14216882,-0.18880309,-1.5692747,-4.672703,-4.568159
0.32869998,0.13774222,-0.18292446,-1.5204133,-4.527212,-4.4259233
0.31846565,0.13345352,-0.17722897,-1.4730741,-4.3862543,-4.2881193
0.30855018,0.12929842,-0.17171092,-1.4272097,-4.2496877,-4.1546082
0.29894358,0.12527277,-0.16636476,-1.382774,-4.1173754,-4.0252557
0.28963622,0.1213725,-0.16118515,-1.3397225,-3.9891841,-3.8999329
0.2806188,0.11759372,-0.15616685,-1.298012,-3.8649862,-3.7785134
0.2718822,0.11393265,-0.15130487,-1.2576007,-3.7446563,-3.660876
0.26341772,0.1103856,-0.14659432,-1.2184479,-3.6280744,-3.5469024
0.25521687,0.10694902,-0.14203046,-1.1805146,-3.5151236,-3.4364786
0.24727143,0.103619464,-0.13760875,-1.1437627,-3.4056902,-3.3294935
0.23957342,0.1003936,-0.13332474,-1.1081553,-3.299665,-3.2258403
0.23211513,0.0972682,-0.12917414,-1.0736568,-3.1969414,-3.125415
0.22488911,0.09424012,-0.1251528,-1.0402325,-3.0974166,-3.0281172
0.2178881,0.09130634,-0.12125667,-1.0078491,-3.0009913,-2.933849
0.21110511,0.08846391,-0.11748187,-0.9764741,-2.9075685,-2.8425164
0.20453331,0.08570999,-0.113824606,-0.94607604,-2.8170545,-2.7540276
0.19816615,0.083041824,-0.11028122,-0.9166245,-2.7293591,-2.6682942
0.19199723,0.08045673,-0.10684817,-0.88808995,-2.6443942,-2.58523
0.1860204,0.07795213,-0.10352201,-0.8604439,-2.5620747,-2.5047526
0.18022966,0.075525515,-0.10029941,-0.83365864,-2.4823184,-2.4267807
0.17461921,0.07317445,-0.09717715,-0.8077073,-2.405045,-2.3512363
0.16918345,0.07089658,-0.09415209,-0.782564,-2.3301778,-2.278044
0.16391692,0.06868963,-0.09122122,-0.75820345,-2.2576416,-2.2071307
0.15881436,0.066551395,-0.0883816,-0.7346014,-2.1873634,-2.1384249
0.15387064,0.06447973,-0.08563039,-0.7117341,-2.1192734,-2.0718582
0.14908086,0.06247256,-0.08296482,-0.6895787,-2.0533032,-2.007364
0.14444019,0.060527876,-0.08038225,-0.6681131,-1.9893868,-1.9448776
0.13994399,0.058643736,-0.07788007,-0.6473158,-1.9274602,-1.8843366
0.13558775,0.056818254,-0.07545579,-0.6271659,-1.8674616,-1.8256803
0.13136715,0.055049602,-0.07310698,-0.60764337,-1.8093307,-1.76885
0.12727793,0.053336006,-0.0708313,-0.58872855,-1.7530096,-1.713789
0.12331601,0.05167576,-0.068626456,-0.57040256,-1.6984417,-1.660442
0.11947743,0.050067198,-0.066490255,-0.55264705,-1.6455727,-1.6087558
0.115758345,0.04850871,-0.06442055,-0.5354443,-1.5943495,-1.5586785
0.112155035,0.04699874,-0.062415276,-0.5187771,-1.5447208,-1.5101602
0.1086639,0.045535773,-0.06047243,-0.5026287,-1.4966371,-1.4631523
0.10528144,0.04411835,-0.058590062,-0.48698303,-1.4500502,-1.4176078
0.10200428,0.042745046,-0.05676629,-0.47182438,-1.4049135,-1.3734809
0.098829135,0.041414496,-0.054999292,-0.4571376,-1.361182,-1.3307278
0.09575282,0.040125366,-0.053287297,-0.44290805,-1.3188117,-1.2893056
0.092772275,0.038876362,-0.0516286,-0.42912143,-1.2777604,-1.2491727
0.08988451,0.037666243,-0.050021533,-0.41576397,-1.237987,-1.2102891
