ax,ay,az,gx,gy,gz
-1.8100165,-0.48727718,-2.21002,-23.471123,-15.813781,-11.985563
-1.4721935,-0.8592658,-1.8069195,2.6598136,-3.4224086,2.6532001
-1.24236,-0.46265534,-1.9607724,5.0351434,0.22820571,7.4763865
-1.3352988,-0.29431206,-2.1520228,3.8174353,-1.2321222,6.497796
-1.4701984,-0.17961462,-2.3505101,2.1248424,-5.4087105,2.9877295
-1.529411,-0.14442906,-2.355887,-0.67124885,-8.664938,-0.15305871
-1.6014296,-0.14436781,-2.3337803,-1.2636741,-11.452838,-0.5494039
-1.5697079,-0.134017,-2.2203317,0.0072675585,-10.788339,0.6624409
-1.5487171,-0.18674253,-2.176786,4.267705,-8.127645,2.756312
-1.6342154,-0.23454607,-2.3645551,10.336674,-7.9836354,3.7625575
-1.7562926,-0.28187898,-2.5845397,18.219584,-9.704039,3.986646
-1.8737804,-0.29756927,-2.8112483,24.926558,-12.790731,4.1795735
-2.0170553,-0.35003263,-3.0642338,29.455515,-17.367773,4.2995367
-2.0890462,-0.430058,-3.2386858,32.252396,-22.093937,4.073001
-2.0438688,-0.52450246,-3.279711,35.663612,-25.554533,3.9015656
-1.9327588,-0.56112933,-3.2683578,38.075474,-28.626352,3.7548857
-1.8229687,-0.5592137,-3.254029,39.16275,-31.688166,3.4696023
-1.7954292,-0.5906246,-3.3283405,40.14898,-35.21612,3.2369199
-1.8100991,-0.65442073,-3.466324,41.227394,-39.79288,3.0843425
-1.7910705,-0.74443626,-3.5943356,42.482227,-44.5803,3.18128
-1.7256713,-0.854838,-3.6935658,44.47293,-48.92131,3.6171083
-1.6430724,-0.9599846,-3.7313156,47.603416,-52.87887,4.5823393
-1.4915534,-1.0256956,-3.6176634,50.905937,-56.18925,5.977258
-1.2717096,-1.0086027,-3.4277892,53.190475,-58.75476,7.869474
-1.0450429,-0.94038993,-3.2621953,53.139942,-61.56108,10.041585
-0.8758082,-0.9217273,-3.1642096,51.293156,-64.612755,12.645628
-0.75816095,-0.9961244,-3.1051245,49.387554,-67.922714,15.464793
-0.5523572,-1.1369689,-2.9339519,49.91885,-70.16295,18.189749
-0.25304773,-1.2590563,-2.6548998,51.514633,-70.91058,21.041536
0.071673505,-1.3388199,-2.3362622,53.38472,-70.24909,24.192566
0.35786408,-1.3612742,-2.038354,54.3967,-68.71988,27.614243
0.5631054,-1.3485274,-1.7756914,54.63206,-66.97921,31.07016
0.7385918,-1.2838329,-1.4985607,54.416866,-65.1878,34.155106
0.949539,-1.2143698,-1.1625383,53.809418,-62.573406,37.039734
1.1847038,-1.1291122,-0.79385513,53.246212,-59.007973,40.159412
1.4014682,-1.0029943,-0.46080118,52.447994,-55.04754,43.29967
1.5736178,-0.85934514,-0.17479606,51.087563,-51.32879,46.387463
1.6959491,-0.7235242,0.07495009,49.73036,-47.797897,49.204433
1.8012686,-0.5758385,0.30894178,48.72717,-44.324196,51.60163
1.9192929,-0.39433205,0.5504972,47.45204,-40.750618,53.591408
2.0502381,-0.19573201,0.8084445,46.034554,-36.422356,55.502796
2.1679225,0.015215989,1.0250896,43.597237,-31.658775,57.27322
2.2611635,0.21544619,1.1952051,40.981266,-26.72175,58.80691
2.3235157,0.40698415,1.3079927,38.65753,-22.080877,59.778896
2.3686488,0.58450943,1.3834549,36.77681,-17.693443,60.107
2.433018,0.74343777,1.4532864,35.25491,-13.214201,59.980198
2.5102296,0.8931874,1.4994245,33.568256,-8.565791,59.52154
2.5706887,1.0337335,1.4852449,31.610971,-3.9973261,58.765427
2.594463,1.1583576,1.418957,29.859,0.26134604,57.787758
2.5854967,1.2805035,1.3189402,28.366556,4.1035643,56.325123
2.5701003,1.4016012,1.2136118,27.13603,7.6252813,54.435715
2.5695934,1.5161273,1.1235785,26.327728,11.220444,52.364998
2.5607874,1.6426027,1.0137833,25.278952,14.705464,50.232285
2.52527,1.7662201,0.8754842,23.910261,17.854427,48.031548
2.4729857,1.8765278,0.7272882,22.679394,20.675995,45.69832
2.4100194,1.9824779,0.5729972,21.6832,23.178194,43.02397
2.3450742,2.08565,0.4175579,20.861803,25.27805,39.83699
2.2804437,2.1750658,0.26180297,20.154112,27.146004,36.395084
2.231425,2.2257993,0.12381338,19.57344,29.056713,32.99474
2.19177,2.261017,-0.008654143,19.283789,31.084444,29.717209
2.1323998,2.2977865,-0.1631836,18.88738,32.76113,26.281649
2.05635,2.3323293,-0.32487378,18.103445,33.94014,22.851667
1.9688532,2.3583994,-0.50443774,16.816133,34.626446,19.59617
1.8755765,2.3625782,-0.69969255,15.028173,34.806866,16.634176
1.7870464,2.3463116,-0.89825,13.122903,34.747414,13.936872
1.7029191,2.3216739,-1.1004971,11.184673,34.50578,11.323806
1.617674,2.2843804,-1.3030887,9.644776,34.153034,8.709496
1.5118909,2.2278407,-1.5231824,8.728984,33.607174,6.1092696
1.3836668,2.16065,-1.76229,8.456049,32.680065,3.555503
1.2426417,2.1009052,-2.0065343,8.408281,31.248756,1.1222309
1.1061878,2.061586,-2.2376103,8.270757,29.21799,-1.1172587
0.9841503,2.0421402,-2.448237,7.5187345,26.325035,-3.1834564
0.89120096,2.0120964,-2.6108744,6.551255,23.22538,-5.0359826
0.8140627,1.9686115,-2.7479842,5.683387,20.08069,-6.732662
0.7482634,1.9126153,-2.8723881,5.2500377,16.791754,-8.508978
0.7064206,1.8440529,-2.9712343,5.340794,13.32652,-10.306376
0.69360405,1.7822797,-3.027656,5.544356,9.655963,-11.857957
0.6990488,1.753941,-3.044627,5.0955205,5.8195286,-13.17787
0.7083875,1.7337794,-3.0459323,4.050727,1.8417854,-14.381782
0.7228783,1.6917906,-3.0277426,2.8530684,-2.182327,-15.583271
0.7519599,1.6249151,-2.9694376,2.0690367,-6.0995975,-16.828661
0.81400895,1.5505612,-2.8691905,1.9078246,-9.662022,-18.25873
0.9053644,1.4793528,-2.7224932,1.7210921,-12.825715,-19.66393
0.97288203,1.4036701,-2.5672362,1.5384336,-15.525253,-20.928091
1.009206,1.3221169,-2.4080918,1.451735,-18.151745,-22.07507
1.0529411,1.2440817,-2.2176733,1.3467386,-20.60803,-23.012888
1.1194773,1.1721469,-2.0075042,0.58615315,-22.748362,-23.581728
1.191076,1.0948509,-1.789479,-0.55035526,-24.525646,-23.990747
1.2454091,1.0072541,-1.5815282,-1.4650486,-25.898058,-24.367624
1.2843512,0.91586024,-1.3826001,-2.10011,-27.001143,-24.736343
1.3154787,0.8268977,-1.1857889,-2.303916,-27.897137,-25.005396
1.3504102,0.7612978,-0.98128295,-2.5356746,-28.544928,-25.151245
1.3995112,0.7124564,-0.7634706,-3.0638535,-28.902811,-25.210337
1.4499062,0.65542847,-0.5551151,-3.798777,-28.947596,-25.179691
1.4895743,0.5822473,-0.37323993,-4.541035,-28.647305,-25.083197
1.5125726,0.4925198,-0.22403306,-5.036541,-28.094997,-24.93249
1.5227466,0.39977688,-0.10063615,-5.056533,-27.367409,-24.735016
1.5237546,0.31908387,0.0018058079,-4.7134633,-26.540676,-24.53614
1.5177004,0.25618112,0.08967833,-4.1675954,-25.661772,-24.244352
1.501965,0.2079728,0.15757199,-3.659871,-24.814342,-23.86069
1.4746375,0.165466,0.20093627,-3.2291145,-24.08127,-23.405201
1.4427981,0.12011108,0.22620022,-2.6727858,-23.460798,-22.824919
1.4085249,0.053452805,0.23662147,-1.6175236,-22.90746,-21.963686
1.365901,-0.017667552,0.23953621,0.30957133,-22.274357,-20.704634
1.3232726,-0.017116167,0.23206054,0.29990992,-21.579197,-20.058464
1.2819813,-0.016582076,0.22481935,0.29055154,-20.905842,-19.432562
1.2419846,-0.016064728,0.21780518,0.2814866,-20.253597,-18.826283
1.2032412,-0.015563593,0.2110108,0.2727057,-19.621792,-18.239002
1.1657115,-0.015078156,0.20442925,0.26419985,-19.009777,-17.670116
1.1293569,-0.014607919,0.19805379,0.25596035,-18.416927,-17.119045
1.0941402,-0.014152401,0.19187789,0.24797875,-17.842632,-16.585224
1.0600255,-0.013711136,0.18589523,0.24024689,-17.286308,-16.068104
1.0269778,-0.013283674,0.18009971,0.23275688,-16.747385,-15.567161
0.9949635,-0.012869579,0.17448542,0.2255011,-16.225315,-15.0818815
0.96395016,-0.012468429,0.16904664,0.21847214,-15.719565,-14.6117735
0.933906,-0.012079816,0.16377784,0.21166287,-15.229623,-14.156358
0.90480065,-0.011703347,0.15867367,0.20506635,-14.754989,-13.715173
0.8766045,-0.011338637,0.15372896,0.1986759,-14.295181,-13.287768
0.84928894,-0.010985319,0.14893867,0.19248503,-13.849734,-12.8737135
0.8228263,-0.010643031,0.14429796,0.18648748,-13.418197,-12.472588
0.7971899,-0.010311431,0.13980213,0.18067718,-13.000132,-12.083984
0.77235365,-0.009990181,0.13544662,0.17504822,-12.595116,-11.70751
0.74829245,-0.009678956,0.13122705,0.16959493,-12.20274,-11.342786
0.7249821,-0.009377443,0.12713914,0.16431181,-11.822606,-10.989442
0.70239896,-0.009085337,0.123178765,0.15919352,-11.454333,-10.647121
0.6805203,-0.008802342,0.11934193,0.15423487,-11.0975485,-10.31548
0.659324,-0.008528174,0.11562476,0.14943089,-10.751891,-9.994182
0.63878876,-0.008262556,0.112023525,0.14477673,-10.417013,-9.682904
0.61889386,-0.008005221,0.10853458,0.1402677,-10.092579,-9.381332
0.59961927,-0.0077559096,0.105154425,0.13589926,-9.778259,-9.089164
0.58094555,-0.0075143706,0.10187964,0.131667,-9.473739,-8.806104
0.562854,-0.007280361,0.098706946,0.12756668,-9.178711,-8.531867
0.5453263,-0.0070536453,0.09563314,0.12359416,-8.8928795,-8.266179
0.5283449,-0.0068339957,0.09265514,0.119745456,-8.615956,-8.008772
0.51189274,-0.0066211917,0.089769945,0.11601669,-8.347664,-7.759386
0.4959533,-0.006415019,0.086974666,0.11240414,-8.087732,-7.5177717
0.4805105,-0.006215271,0.084266484,0.10890414,-7.8358994,-7.2836866
0.4655489,-0.0060217464,0.08164269,0.1055132,-7.5919137,-7.0568953
0.45105344,-0.0058342516,0.07910064,0.10222791,-7.35553,-6.8371696
0.43700957,-0.005652598,0.07663778,0.09904497,-7.12651,-6.6242895
0.4234032,-0.0054766038,0.07425165,0.09596119,-6.904625,-6.418041
0.41022068,-0.0053060916,0.071939856,0.09297348,-6.689652,-6.218218
0.3974488,-0.005140891,0.06970007,0.09007882,-6.481375,-6.0246186
0.38507476,-0.004980836,0.06753004,0.087274335,-6.2795863,-5.83705
0.37308612,-0.004825766,0.065427616,0.084557205,-6.084082,-5.6553235
0.36147088,-0.004675526,0.063390665,0.08192469,-5.894667,-5.479257
0.3502174,-0.0045299656,0.061417155,0.07937417,-5.7111516,-5.3086743
0.33931437,-0.0043889377,0.05950511,0.07690308,-5.533351,-5.143404
0.3287509,-0.0042523025,0.057652608,0.07450895,-5.361088,-4.98328
0.3185164,-0.004119922,0.055857792,0.072189376,-5.194189,-4.8281436
0.3086006,-0.0039916635,0.05411887,0.069942035,-5.032488,-4.6778374
0.2989936,-0.0038673994,0.0524341,0.06776468,-4.8758216,-4.5322123
0.2896857,-0.0037470045,0.050801795,0.06565511,-4.7240343,-4.3911214
0.28066766,-0.0036303587,0.049220312,0.06361124,-4.576973,-4.2544236
0.27193043,-0.0035173448,0.047688074,0.061631013,-4.4344907,-4.1219826
0.26346523,-0.00340785,0.046203543,0.05971244,-4.296445,-3.9936655
0.2552636,-0.0033017644,0.044765238,0.057853602,-4.162698,-3.8693433
0.24731736,-0.0031989818,0.043371715,0.056052644,-4.0331144,-3.7488923
0.23961851,-0.0030993992,0.042021576,0.054307755,-3.907566,-3.6321914
0.23215936,-0.0030029172,0.040713474,0.052617196,-3.7859263,-3.519124
0.22493245,-0.0029094392,0.0394461,0.050979268,-3.668074,-3.4095767
0.21793053,-0.0028188713,0.038218185,0.04939234,-3.5538905,-3.30344
0.21114661,-0.0027311232,0.0370285,0.04785481,-3.443262,-3.200608
0.2045739,-0.0026461068,0.03587585,0.046365153,-3.3360777,-3.1009772
0.1982058,-0.0025637373,0.034759086,0.044921875,-3.2322304,-3.0044482
0.19203596,-0.002483932,0.03367709,0.043523524,-3.131616,-2.9109244
0.1860582,-0.0024066113,0.032628775,0.04216871,-3.034134,-2.820312
0.18026653,-0.0023316978,0.0316131,0.04085607,-2.9396868,-2.7325206
0.17465515,-0.0022591164,0.03062904,0.039584294,-2.8481796,-2.6474624
0.16921848,-0.0021887943,0.029675618,0.038352113,-2.7595212,-2.5650518
0.16395105,-0.0021206615,0.028751876,0.037158288,-2.6736228,-2.485207
0.1588476,-0.0020546499,0.02785689,0.03600163,-2.5903986,-2.4078476
0.15390301,-0.001990693,0.026989765,0.034880977,-2.5097651,-2.3328965
0.14911236,-0.0019287271,0.026149634,0.033795208,-2.4316418,-2.2602787
0.14447083,-0.0018686902,0.025335655,0.03274324,-2.3559504,-2.1899214
0.13997379,-0.0018105223,0.024547016,0.03172402,-2.2826152,-2.1217542
0.13561675,-0.0017541652,0.023782926,0.030736528,-2.2115629,-2.0557091
0.13139533,-0.0016995623,0.023042623,0.029779775,-2.1427224,-1.99172
0.12730531,-0.0016466592,0.022325363,0.028852805,-2.0760248,-1.9297228
0.12334263,-0.0015954028,0.021630432,0.027954692,-2.0114033,-1.8696554
