ax,ay,az,gx,gy,gz
-0.060909647,-0.4390949,-1.29183,-25.357502,-17.36743,-13.428304
0.6018129,-0.46716124,-0.68298614,-21.185795,-11.21556,-9.182362
0.78316945,-0.3517389,-0.31393516,-17.71215,-3.6264741,-8.79897
0.8702795,-0.0056448206,-0.11639128,-21.145786,0.5037915,-13.040025
1.0931822,0.001980106,0.025550269,-22.898514,3.9087741,-14.766463
1.0984477,-0.08390587,-0.01591327,-23.735146,6.5445695,-13.171229
0.8536066,-0.24405928,-0.2198829,-24.424355,7.108832,-11.273924
0.5490424,-0.45994547,-0.421968,-22.889053,6.299817,-10.332697
0.4641566,-0.64489114,-0.44603062,-17.632717,6.764941,-11.030667
0.7010915,-0.63277966,-0.21732809,-12.553479,9.439559,-11.647935
0.92578316,-0.51443386,0.024285479,-9.993401,13.03387,-11.83104
1.009715,-0.39464357,0.16357055,-10.05264,16.832804,-11.090465
0.9306938,-0.3284547,0.15695117,-11.776407,19.485847,-9.599572
0.7835737,-0.31963703,0.07655165,-13.036702,20.785973,-7.4218116
0.6639171,-0.2882741,-0.027974583,-13.957525,21.857994,-5.0201735
0.568592,-0.22323021,-0.13561632,-14.995959,23.14372,-2.3120353
0.43414286,-0.12657152,-0.2788265,-16.498968,24.28007,0.019822305
0.26239488,-0.03153728,-0.45464084,-18.352795,25.087986,1.7255182
0.0709328,0.0570113,-0.6508636,-19.743528,25.520351,2.125152
-0.1212472,0.11547469,-0.8927047,-20.671448,25.05686,2.0508363
-0.31865588,0.15940432,-1.1502181,-21.367775,23.798986,2.098078
-0.5231378,0.20204057,-1.4103537,-21.87111,21.92098,2.6479995
-0.73025876,0.26066533,-1.6722223,-22.317764,19.669903,3.477767
-0.9227687,0.32423845,-1.9375514,-22.312853,17.259478,4.3167377
-1.1132596,0.37530607,-2.2055712,-21.906313,14.73825,4.8178735
-1.3107703,0.42531872,-2.4639857,-21.289686,11.683512,4.558931
-1.4943563,0.44777292,-2.6913283,-20.424503,7.977711,3.6528528
-1.6075573,0.44364673,-2.8512607,-19.125635,4.0144773,2.6971831
-1.6374627,0.461232,-2.9477127,-18.5675,0.067219526,2.5205703
-1.6063387,0.50616974,-2.995964,-19.257307,-3.462075,3.094228
-1.6077741,0.52442664,-3.0510476,-20.246902,-6.5997486,3.8381548
-1.6589702,0.5062213,-3.1449559,-20.923079,-10.279924,3.8955607
-1.6745394,0.45206445,-3.2218773,-20.960215,-14.663471,3.2682142
-1.5896808,0.40142742,-3.223892,-20.511904,-19.044853,2.7041337
-1.4145855,0.39418748,-3.1224587,-20.69187,-22.759054,2.767391
-1.2731258,0.3836836,-3.0092375,-21.180508,-25.995407,2.8437643
-1.1382843,0.31886804,-2.8932652,-20.875753,-29.160555,2.3991716
-0.95571387,0.2314984,-2.7391727,-19.792213,-32.124058,1.6480352
-0.7232497,0.15823805,-2.5345175,-19.279585,-34.518646,1.6029136
-0.49137717,0.08070997,-2.3027449,-19.478481,-36.325153,2.075456
-0.28285515,-0.03864956,-2.0721242,-19.17984,-37.721416,2.5240273
-0.06379589,-0.16496408,-1.8362676,-18.19845,-38.74161,2.707148
0.16392255,-0.2739565,-1.5875521,-17.0608,-39.21315,2.8778305
0.3735022,-0.3611818,-1.3418387,-15.864894,-39.03778,3.2973077
0.53746396,-0.41738695,-1.1156684,-14.581133,-38.73314,3.8761773
0.70171064,-0.44128144,-0.9047828,-13.433895,-38.280098,4.604703
0.8560415,-0.4176283,-0.70822185,-12.660534,-37.590847,5.5875897
0.97375023,-0.33765846,-0.5284936,-12.345628,-36.464855,6.819445
1.0355037,-0.22434038,-0.38272324,-11.587585,-34.961502,7.5400147
1.0484042,-0.06975812,-0.27433988,-10.236607,-33.527832,7.4106007
1.0642087,0.11691427,-0.17243828,-8.654169,-32.19325,6.695427
1.0970587,0.3391297,-0.06626766,-7.216578,-30.750217,5.6984596
1.1208426,0.60611546,0.030755699,-6.4963336,-29.22337,4.480419
1.1225443,0.8856513,0.10883137,-6.72487,-27.717388,2.678798
1.1283236,1.1365716,0.16578338,-7.422079,-26.26337,0.45285854
1.155506,1.3427125,0.2079993,-8.641511,-24.792355,-2.0154428
1.1878465,1.497438,0.22822256,-10.290132,-23.310751,-4.538236
1.2069582,1.6067538,0.2221523,-12.043214,-21.89671,-7.2819395
1.2213014,1.673081,0.20081413,-13.717519,-20.571186,-10.252384
1.2441903,1.6935667,0.17401277,-15.368129,-19.30071,-13.260406
1.269228,1.6795808,0.14565532,-17.021994,-18.110731,-16.261496
1.2895014,1.6285683,0.114435256,-18.505249,-16.938694,-19.244514
1.2997948,1.545783,0.07809554,-19.958654,-15.838948,-22.035078
1.3052506,1.4280677,0.037626382,-21.546839,-14.877566,-24.35138
1.2920511,1.2605017,-0.010687375,-23.131556,-14.104336,-26.275904
1.281614,1.0643954,-0.04582476,-24.405434,-13.310459,-27.913311
1.2612438,0.8593075,-0.07810272,-25.688879,-12.492676,-29.24278
1.2147855,0.6418564,-0.11952749,-27.02856,-11.751332,-30.232517
1.1500237,0.40817687,-0.16722475,-28.309574,-11.223975,-30.740654
1.0796168,0.15910278,-0.20643844,-29.318073,-10.766813,-30.842543
1.0098999,-0.083328515,-0.24039751,-29.912075,-10.342396,-30.495981
0.9376316,-0.30022773,-0.2707815,-30.082687,-9.846658,-29.935806
0.8653072,-0.49125385,-0.2997165,-29.681736,-9.237464,-29.241062
0.79584074,-0.66250896,-0.32950628,-28.873922,-8.685094,-28.319475
0.7216535,-0.8105289,-0.3557521,-27.872202,-8.251405,-27.267653
0.65869117,-0.95190144,-0.37674052,-26.710133,-7.9555125,-25.921902
0.60897386,-1.0652051,-0.3888881,-25.412325,-7.700159,-24.44062
0.57401246,-1.1545782,-0.39217624,-24.089275,-7.289261,-22.907284
0.5558996,-1.1181458,-0.3798012,-23.329145,-7.05925,-22.18445
0.53837305,-1.0828925,-0.36782673,-22.593616,-6.8366838,-21.485012
0.5214124,-1.0487776,-0.35623887,-21.881836,-6.6213036,-20.808157
0.50499815,-1.0157616,-0.34502435,-21.19299,-6.412863,-20.153109
0.4891116,-0.98380727,-0.33417037,-20.526287,-6.211123,-19.519121
0.47373486,-0.9528782,-0.32366467,-19.88098,-6.015857,-18.905476
0.4588506,-0.9229397,-0.31349546,-19.25634,-5.826845,-18.311485
0.44444224,-0.8939585,-0.3036514,-18.651672,-5.6438766,-17.736486
0.43049383,-0.8659025,-0.29412156,-18.066307,-5.4667487,-17.179844
0.41698998,-0.8387406,-0.28489548,-17.499598,-5.295266,-16.640942
0.4039159,-0.8124432,-0.27596304,-16.950926,-5.1292415,-16.119192
0.3912574,-0.7869817,-0.26731452,-16.419693,-4.968494,-15.614024
0.37900072,-0.7623284,-0.25894052,-15.905323,-4.812849,-15.124893
0.36713266,-0.7384567,-0.25083202,-15.407262,-4.662139,-14.651271
0.35564044,-0.71534115,-0.24298032,-14.924974,-4.5162015,-14.192648
0.3445118,-0.6929568,-0.23537703,-14.457945,-4.3748817,-13.748534
0.3337349,-0.67127997,-0.22801405,-14.005676,-4.238028,-13.318458
0.3232983,-0.6502876,-0.22088356,-13.567689,-4.105496,-12.90196
0.31319097,-0.62995756,-0.21397804,-13.143519,-3.977145,-12.498604
0.30340225,-0.61026835,-0.20729019,-12.732721,-3.85284,-12.107963
0.29392183,-0.5911993,-0.200813,-12.334862,-3.7324502,-11.729626
0.28473985,-0.5727305,-0.19453968,-11.949526,-3.6158502,-11.363196
0.27584666,-0.5548426,-0.18846369,-11.576311,-3.5029175,-11.008294
0.26723304,-0.537517,-0.1825787,-11.214828,-3.393535,-10.664547
0.25889,-0.5207357,-0.17687859,-10.864699,-3.2875886,-10.331599
0.25080892,-0.50448126,-0.17135744,-10.525565,-3.1849687,-10.009106
0.24298145,-0.48873693,-0.16600955,-10.197074,-3.0855691,-9.6967325
0.23539947,-0.47348645,-0.16082941,-9.878885,-2.9892874,-9.394156
0.22805521,-0.45871407,-0.15581167,-9.570672,-2.8960242,-9.101067
0.2209411,-0.4444046,-0.15095116,-9.272118,-2.8056834,-8.817162
0.21404982,-0.43054336,-0.14624292,-8.982915,-2.7181726,-8.542149
0.20737432,-0.41711617,-0.14168209,-8.702768,-2.633402,-8.275748
0.20090778,-0.40410927,-0.13726401,-8.431391,-2.5512848,-8.017686
0.19464357,-0.39150932,-0.13298419,-8.168504,-2.471737,-7.7676983
0.18857531,-0.37930351,-0.12883824,-7.9138403,-2.3946774,-7.5255303
0.1826968,-0.3674794,-0.12482194,-7.66714,-2.3200276,-7.290935
0.17700207,-0.35602492,-0.120931186,-7.4281526,-2.2477114,-7.063674
0.17148532,-0.34492844,-0.11716204,-7.196634,-2.1776555,-6.8435154
0.16614096,-0.3341787,-0.11351066,-6.9723496,-2.1097882,-6.630236
0.16096354,-0.32376474,-0.10997335,-6.755071,-2.0440414,-6.423619
0.1559478,-0.31367603,-0.106546514,-6.544579,-1.9803478,-6.223455
0.1510887,-0.30390233,-0.10322668,-6.3406596,-1.918643,-6.029541
0.14638129,-0.29443377,-0.100010484,-6.143106,-1.8588645,-5.841681
0.14182082,-0.28526077,-0.09689468,-5.9517193,-1.8009521,-5.659685
0.13740267,-0.276374,-0.093876116,-5.766305,-1.7448469,-5.483369
0.13312237,-0.26776457,-0.09095174,-5.586676,-1.6904925,-5.312554
0.12897563,-0.25942373,-0.088118605,-5.412652,-1.6378338,-5.147068
0.12495823,-0.25134307,-0.08537384,-5.2440557,-1.5868177,-4.986745
0.12106614,-0.24351445,-0.08271469,-5.0807185,-1.5373929,-4.831422
0.11729542,-0.23592997,-0.08013847,-4.922475,-1.4895093,-4.680943
0.11364228,-0.228582,-0.077642575,-4.7691655,-1.443119,-4.5351562
0.110103056,-0.22146311,-0.075224504,-4.6206365,-1.398175,-4.3939147
0.10667416,-0.21456619,-0.07288182,-4.476738,-1.3546323,-4.257077
0.10335215,-0.20788425,-0.07061216,-4.337325,-1.3124468,-4.1245046
0.100133695,-0.20141058,-0.06841324,-4.2022576,-1.2715763,-3.9960647
0.097015545,-0.1951387,-0.06628287,-4.0714,-1.2319796,-3.8716278
0.09399457,-0.18906225,-0.064218886,-3.9446206,-1.1936169,-3.751069
0.09106775,-0.18317518,-0.062219217,-3.8217916,-1.1564497,-3.6342673
0.088232115,-0.17747155,-0.06028186,-3.7027905,-1.1204407,-3.5211048
0.08548484,-0.17194563,-0.05840487,-3.587497,-1.0855536,-3.4114685
0.08282316,-0.16659188,-0.05658636,-3.4757955,-1.0517535,-3.305248
0.0802444,-0.16140492,-0.0548245,-3.3675742,-1.0190064,-3.2023368
0.077745974,-0.15637955,-0.053117532,-3.2627242,-0.9872795,-3.1026316
0.075325385,-0.15151073,-0.051463738,-3.1611404,-0.9565409,-3.0060322
0.072980195,-0.14679357,-0.049861457,-3.062721,-0.9267598,-2.912442
0.07070805,-0.14222334,-0.048309084,-2.9673672,-0.8979063,-2.8217669
0.06850667,-0.13779548,-0.046805065,-2.8749833,-0.86995155,-2.733916
0.06637386,-0.13350551,-0.045347888,-2.785477,-0.8428675,-2.6488013
0.06430748,-0.12934914,-0.043936096,-2.6987581,-0.8166269,-2.5663376
0.06230545,-0.12532222,-0.04256827,-2.61474,-0.79120356,-2.486442
0.06036577,-0.12142072,-0.041243043,-2.5333383,-0.76657194,-2.4090345
0.058486495,-0.11764071,-0.039959088,-2.4544718,-0.74270743,-2.3340378
0.056665737,-0.113978416,-0.038715113,-2.378061,-0.7195861,-2.2613764
0.05490168,-0.11043016,-0.037509874,-2.3040297,-0.6971847,-2.1909776
0.053192556,-0.106992394,-0.036342166,-2.2323039,-0.67548084,-2.122771
0.05153665,-0.10366167,-0.035210818,-2.1628113,-0.6544528,-2.056688
0.0499323,-0.10043467,-0.0341147,-2.0954823,-0.6340796,-1.992663
0.04837791,-0.09730814,-0.03305271,-2.03025,-0.61434066,-1.9306315
0.046871915,-0.094278954,-0.032023784,-1.9670489,-0.5952164,-1.8705313
0.045412812,-0.09134409,-0.031026898,-1.9058154,-0.5766875,-1.8123025
0.043999135,-0.0885006,-0.030061048,-1.8464885,-0.5587356,-1.7558864
0.042629477,-0.08574564,-0.02912527,-1.7890086,-0.54134256,-1.7012271
0.041302457,-0.083076455,-0.028218625,-1.7333183,-0.5244911,-1.6482693
0.040016755,-0.08049037,-0.02734021,-1.6793619,-0.50816417,-1.5969604
0.03877108,-0.0779848,-0.02648914,-1.6270854,-0.49234563,-1.547249
0.03756419,-0.07555723,-0.025664568,-1.5764364,-0.47701955,-1.4990851
0.036394868,-0.07320525,-0.024865666,-1.5273641,-0.4621706,-1.4524207
0.03526195,-0.07092648,-0.024091637,-1.4798197,-0.44778395,-1.407209
0.034164306,-0.06871866,-0.023341704,-1.4337553,-0.43384516,-1.363405
0.03310083,-0.06657956,-0.022615118,-1.389125,-0.42034033,-1.3209646
0.03207046,-0.06450706,-0.02191115,-1.3458841,-0.40725592,-1.2798454
0.03107217,-0.06249908,-0.021229098,-1.3039893,-0.3945788,-1.2400062
0.030104956,-0.06055361,-0.02056828,-1.2633988,-0.38229635,-1.2014073
0.029167851,-0.058668703,-0.01992803,-1.2240717,-0.3703963,-1.16401
0.028259918,-0.056842472,-0.019307714,-1.185969,-0.35886663,-1.1277769
0.02738025,-0.055073094,-0.01870671,-1.1490525,-0.34769592,-1.0926718
0.026527965,-0.053358793,-0.01812441,-1.1132851,-0.33687294,-1.0586593
0.025702212,-0.05169786,-0.017560242,-1.0786312,-0.32638687,-1.0257058
0.024902165,-0.05008863,-0.017013634,-1.045056,-0.31622723,-0.993778
0.024127021,-0.048529495,-0.01648404,-1.0125259,-0.30638388,-0.96284413
0.023376008,-0.047018893,-0.015970934,-0.9810085,-0.2968469,-0.93287325
0.022648372,-0.045555316,-0.0154738,-0.95047224,-0.2876068,-0.90383524
