ax,ay,az,gx,gy,gz
-1.283648,0.60909647,-0.9136447,21.751108,-1.3318303,15.203775
-0.94552416,0.64716786,-0.9843311,10.747528,5.526355,12.467056
-0.8719961,0.60962635,-1.2770125,6.2879906,7.0344553,10.923274
-1.0614781,0.6513351,-1.7294139,3.105004,1.9354906,9.578969
-1.3459017,0.7882007,-2.0444329,-2.457105,-5.2987013,5.7620544
-1.639497,0.87322927,-2.2690966,-4.747302,-12.461981,0.8691707
-1.6671152,0.8503602,-2.3277435,-4.4530983,-16.40668,-2.225466
-1.5856694,0.84214664,-2.3418505,-3.7477245,-18.271976,-4.3465185
-1.5236478,0.85449696,-2.409997,-2.159861,-18.715496,-5.8820767
-1.5063657,0.8756354,-2.5563853,-1.2434477,-19.457674,-6.5698986
-1.5123012,0.9399361,-2.713425,-2.9150856,-20.762533,-6.144946
-1.5889516,1.0250609,-2.9161928,-5.776914,-22.449537,-5.4210057
-1.6863576,1.0832568,-3.1726296,-8.606795,-24.632746,-4.800517
-1.7950366,1.1219002,-3.4524546,-11.140599,-27.416021,-4.481343
-1.9089943,1.1011229,-3.6917958,-11.9279585,-30.569372,-4.764311
-1.966929,1.0710102,-3.8484862,-11.456659,-34.42452,-6.009409
-1.9148601,1.0695472,-3.8913093,-10.798103,-38.25477,-7.3969245
-1.8076756,1.0879558,-3.8790364,-11.453752,-42.058224,-8.321871
-1.6907167,1.1014916,-3.832162,-13.160165,-45.567543,-8.51564
-1.5916004,1.105704,-3.8015263,-15.558519,-49.18843,-8.571726
-1.5189185,1.0460204,-3.7761889,-16.513199,-52.852215,-9.337731
-1.3933902,0.9113013,-3.6979222,-15.887498,-56.441067,-10.576206
-1.2005602,0.77876055,-3.537167,-14.436272,-59.544918,-11.584154
-0.95990413,0.7030304,-3.318122,-14.125346,-62.190815,-11.923912
-0.7314276,0.64910704,-3.06637,-15.454425,-64.2617,-11.659709
-0.5561295,0.54452586,-2.8281257,-16.91012,-65.98879,-11.473691
-0.4073991,0.36119673,-2.5728164,-16.791782,-67.50811,-11.781555
-0.23199014,0.19516908,-2.2880003,-15.709171,-68.754105,-12.275628
-0.010383748,0.07075019,-1.9712654,-14.822392,-69.47305,-12.007183
0.20816588,-0.013225652,-1.6445092,-15.139625,-69.45182,-10.833265
0.36797917,-0.09571482,-1.3482885,-15.531301,-68.7696,-9.633879
0.49610996,-0.17535497,-1.0876225,-15.6394,-67.79182,-8.732782
0.6145267,-0.23977405,-0.8594798,-15.633941,-66.58588,-7.880111
0.7053328,-0.2901022,-0.67382735,-15.405123,-65.340195,-7.035673
0.771029,-0.32862273,-0.5203575,-14.958552,-64.0874,-6.432964
0.8305986,-0.3644179,-0.37522882,-14.00904,-62.69382,-5.976091
0.9162814,-0.38917574,-0.20501958,-12.922855,-60.88588,-5.47305
1.0059625,-0.40340772,-0.04570411,-12.015631,-58.713142,-4.837396
1.0741801,-0.3996234,0.09319332,-11.515219,-56.3698,-4.0338635
1.1136279,-0.3687391,0.20174995,-11.214677,-53.891235,-3.158814
1.1304771,-0.31415042,0.2734462,-11.347854,-51.372147,-2.496402
1.116542,-0.26905513,0.29437888,-11.337061,-49.030193,-2.1178405
1.0873991,-0.23345768,0.29056048,-11.090202,-47.030582,-1.9014641
1.0750405,-0.19348015,0.29145774,-10.60431,-45.107018,-1.5782294
1.0672338,-0.11604128,0.28979668,-9.944741,-43.045425,-1.226042
1.0298,0.0010673251,0.2700658,-8.710468,-40.93665,-1.696728
0.96781623,0.1323292,0.23879208,-6.739211,-39.157124,-2.7968302
0.9292032,0.2850119,0.21863207,-4.726607,-37.814117,-4.2771993
0.9167859,0.4567108,0.22389516,-3.6040626,-36.74754,-5.80861
0.92350626,0.61983526,0.2521751,-3.5977542,-35.718925,-7.2775025
0.95013374,0.75110745,0.2911242,-3.8696046,-34.215736,-8.804455
0.97462934,0.8522926,0.31330436,-3.9179468,-32.631092,-10.66393
0.9913119,0.9337963,0.3314677,-3.8135512,-31.025106,-12.817693
1.0056045,0.99903125,0.34958032,-3.7597802,-29.335358,-15.075242
1.0189018,1.0477278,0.35148248,-3.7706866,-27.712488,-17.45307
1.0348777,1.0706397,0.34334823,-3.8517153,-26.294369,-20.015295
1.0493175,1.0593398,0.3375493,-4.0160756,-24.97212,-22.520205
1.0560255,1.0326188,0.3346473,-4.700567,-23.721634,-24.764582
1.0585729,0.9815361,0.33263332,-6.3615317,-22.418262,-26.545738
1.0438964,0.8750707,0.3208539,-8.396892,-21.059805,-27.887844
1.004239,0.7268193,0.3001674,-9.819229,-19.83052,-28.829739
0.9557321,0.5591031,0.2829913,-11.065231,-18.784678,-29.390644
0.89886075,0.3888475,0.26718798,-12.045014,-17.743622,-29.60066
0.82976663,0.22495675,0.23896854,-12.496977,-16.797567,-29.84866
0.7596663,0.06514846,0.21371272,-12.365899,-15.96845,-30.241325
0.6945598,-0.08676441,0.19702522,-11.915926,-15.306763,-30.497128
0.63336223,-0.21265654,0.18824326,-11.596634,-14.710582,-30.390211
0.57666296,-0.31945273,0.17579107,-11.40918,-14.159938,-30.085781
0.53087586,-0.42342564,0.16513073,-11.062336,-13.5751705,-29.678524
0.49274313,-0.52191067,0.15986523,-10.645372,-13.048872,-29.101961
0.45982897,-0.60768986,0.16451813,-10.314196,-12.454618,-28.150112
0.42635363,-0.68133837,0.15989129,-10.034769,-11.905298,-26.971731
0.39185733,-0.7371833,0.14738359,-9.7393675,-11.463302,-25.696617
0.355294,-0.7666094,0.13011824,-9.620169,-11.134594,-24.459635
0.31296152,-0.77780443,0.10841437,-9.752392,-10.936549,-23.294207
0.2723307,-0.7911964,0.081060074,-9.565454,-10.91302,-22.110903
0.23558609,-0.81034756,0.049287226,-8.977503,-11.067764,-20.838867
0.20486902,-0.83206564,0.026127905,-8.02122,-11.225181,-19.398092
0.18180664,-0.8573073,0.006875481,-6.7492733,-11.389039,-17.572647
0.16128778,-0.87810636,-0.009641442,-5.202926,-11.647664,-15.542644
0.13780856,-0.87832355,-0.025625052,-3.2603862,-12.02871,-13.722409
0.1334703,-0.8506736,-0.024818366,-3.1577482,-11.650043,-13.290423
0.1292715,-0.8239126,-0.024037616,-3.05841,-11.283549,-12.872326
0.12520745,-0.79801035,-0.023281919,-2.9622593,-10.928816,-12.467644
0.12127357,-0.7729377,-0.022550425,-2.869188,-10.5854435,-12.075923
0.11746546,-0.7486667,-0.02184232,-2.7790928,-10.25305,-11.696728
0.11377891,-0.7251705,-0.021156818,-2.6918736,-9.931268,-11.329637
0.11020987,-0.70242316,-0.020493167,-2.607434,-9.6197405,-10.974245
0.10675441,-0.6803998,-0.019850636,-2.5256822,-9.31813,-10.630165
0.10340878,-0.6590764,-0.019228527,-2.4465287,-9.026104,-10.297022
0.10016936,-0.63842994,-0.018626167,-2.3698876,-8.743349,-9.974453
0.097032644,-0.61843807,-0.018042905,-2.2956767,-8.469559,-9.662112
0.09399527,-0.5990793,-0.017478114,-2.2238162,-8.204439,-9.359663
0.09105399,-0.58033305,-0.016931193,-2.154229,-7.9477077,-9.066782
0.08820567,-0.56217927,-0.016401557,-2.086841,-7.69909,-8.783158
0.08544729,-0.54459876,-0.015888646,-2.0215812,-7.458323,-8.50849
0.082775936,-0.5275728,-0.015391915,-1.95838,-7.225152,-8.242487
0.08018879,-0.5110836,-0.014910843,-1.8971711,-6.999331,-7.9848695
0.07768313,-0.49511382,-0.014444925,-1.8378903,-6.7806234,-7.735367
0.07525634,-0.47964668,-0.013993672,-1.7804754,-6.5687995,-7.493717
0.07290588,-0.46466604,-0.013556613,-1.7248664,-6.3636384,-7.2596684
0.07062931,-0.4501563,-0.013133291,-1.6710055,-6.1649265,-7.032977
0.06842426,-0.4361024,-0.012723269,-1.6188366,-5.972457,-6.813407
0.06628845,-0.42248976,-0.012326121,-1.5683057,-5.786031,-6.6007314
0.06421965,-0.4093043,-0.011941436,-1.5193605,-5.605455,-6.394729
0.062215753,-0.39653242,-0.011568816,-1.4719505,-5.430543,-6.195189
0.06027467,-0.38416094,-0.0112078795,-1.4260269,-5.2611146,-6.001904
0.05839442,-0.37217712,-0.010858253,-1.3815424,-5.0969954,-5.8146763
0.056573067,-0.36056873,-0.010519577,-1.3384514,-4.9380174,-5.633313
0.054808743,-0.3493238,-0.010191508,-1.2967095,-4.784017,-5.457629
0.053099643,-0.33843085,-0.009873706,-1.2562743,-4.6348376,-5.287444
0.051444024,-0.32787874,-0.009565849,-1.2171043,-4.4903255,-5.1225843
0.04984019,-0.3176567,-0.009267621,-1.1791595,-4.3503337,-4.962881
0.04828651,-0.3077543,-0.008978719,-1.1424012,-4.21472,-4.808172
0.046781402,-0.29816148,-0.008698849,-1.1067922,-4.0833454,-4.6582994
0.04532333,-0.2888685,-0.008427726,-1.072296,-3.9560769,-4.513111
0.04391082,-0.27986583,-0.0081650745,-1.0388777,-3.832785,-4.372459
0.042542435,-0.27114442,-0.007910627,-1.0065033,-3.7133446,-4.236201
0.041216787,-0.2626954,-0.0076641273,-0.97514004,-3.5976343,-4.104198
0.03993253,-0.2545102,-0.007425324,-0.9447561,-3.4855373,-3.9763174
0.03868837,-0.24658051,-0.0071939765,-0.91532075,-3.3769398,-3.852429
0.037483044,-0.23889837,-0.0069698496,-0.8868041,-3.271732,-3.7324073
0.036315333,-0.23145595,-0.006752718,-0.8591775,-3.1698077,-3.6161315
0.03518406,-0.22424577,-0.006542361,-0.8324129,-3.0710638,-3.5034838
0.034088075,-0.21726052,-0.006338567,-0.80648327,-2.9754002,-3.3943505
0.033026285,-0.21049319,-0.0061411303,-0.78136253,-2.882721,-3.2886217
0.03199761,-0.20393692,-0.005949851,-0.7570253,-2.7929325,-3.1861904
0.031001015,-0.19758512,-0.005764538,-0.7334471,-2.705944,-3.0869536
0.030035498,-0.19143139,-0.0055850027,-0.7106041,-2.621668,-2.9908113
0.029100083,-0.18546952,-0.0054110656,-0.6884733,-2.54002,-2.8976667
0.02819383,-0.17969352,-0.005242551,-0.6670324,-2.460917,-2.8074257
0.027315829,-0.17409757,-0.0050792894,-0.64625996,-2.3842802,-2.719998
0.026465194,-0.16867605,-0.004921117,-0.626135,-2.310032,-2.6352954
0.025641073,-0.16342351,-0.004767874,-0.60663724,-2.238098,-2.5532327
0.024842635,-0.15833466,-0.004619407,-0.5877471,-2.1684058,-2.4737275
0.024069076,-0.15340438,-0.0044755666,-0.56944567,-2.1008852,-2.3966997
0.023319624,-0.14862774,-0.004336208,-0.55171454,-2.0354688,-2.3220723
0.022593522,-0.14399993,-0.004201192,-0.5345358,-1.9720905,-2.2497702
0.021890044,-0.13951631,-0.0040703826,-0.51789236,-1.910687,-2.1797206
0.021208482,-0.13517237,-0.003943648,-0.5017674,-1.8511964,-2.1118534
0.020548154,-0.13096376,-0.0038208622,-0.4861448,-1.7935591,-2.0461006
0.019908393,-0.12688625,-0.0037019008,-0.47100887,-1.7377173,-1.982396
0.019288562,-0.12293575,-0.0035866455,-0.4563444,-1.6836149,-1.9206758
0.018688038,-0.119108304,-0.00347498,-0.4421367,-1.6311977,-1.860878
0.018106218,-0.115400076,-0.0033667923,-0.42837155,-1.5804132,-1.8029428
0.01754252,-0.11180734,-0.0032619745,-0.4150351,-1.5312104,-1.746812
0.016996378,-0.108326495,-0.003160421,-0.40211403,-1.48354,-1.6924294
0.016467243,-0.104954064,-0.0030620303,-0.38959536,-1.4373542,-1.6397405
0.01595459,-0.10168665,-0.0029667038,-0.37746656,-1.3926067,-1.5886923
0.015457898,-0.098520994,-0.002874346,-0.36571544,-1.3492528,-1.5392339
0.014976676,-0.09545392,-0.002784864,-0.3543303,-1.307249,-1.4913157
0.014510438,-0.09248234,-0.0026981686,-0.34329966,-1.2665532,-1.4448897
0.0140587175,-0.089603305,-0.0026141729,-0.3326125,-1.2271245,-1.3999094
0.013621064,-0.08681392,-0.0025327925,-0.32225814,-1.1889236,-1.3563296
0.013197037,-0.084111385,-0.002453946,-0.31222618,-1.1519121,-1.3141067
0.012786213,-0.081493,-0.0023775548,-0.30250657,-1.1160531,-1.2731986
0.012388182,-0.078956135,-0.002303542,-0.2930896,-1.0813106,-1.2335641
0.012002543,-0.07649826,-0.0022318338,-0.28396586,-1.0476499,-1.1951638
0.01162891,-0.074116915,-0.002162358,-0.27512616,-1.0150371,-1.1579591
0.0112669105,-0.07180971,-0.0020950453,-0.2665617,-0.98343974,-1.1219126
0.010916182,-0.06957434,-0.0020298285,-0.25826386,-0.95282614,-1.0869884
0.010576372,-0.06740856,-0.001966642,-0.25022435,-0.9231656,-1.0531517
0.010247142,-0.06531021,-0.0019054228,-0.24243517,-0.89442855,-1.0203683
0.009928162,-0.06327719,-0.0018461094,-0.23488848,-0.86658615,-0.98860556
0.009619112,-0.06130746,-0.0017886426,-0.22757673,-0.8396106,-0.9578317
0.0093196845,-0.059399053,-0.001732965,-0.22049263,-0.8134748,-0.9280158
0.0090295775,-0.05755006,-0.0016790206,-0.21362905,-0.78815264,-0.89912826
0.0087485025,-0.055758625,-0.0016267556,-0.20697916,-0.7636188,-0.87113994
0.008476178,-0.054022964,-0.0015761177,-0.20053627,-0.7398488,-0.844023
0.008212331,-0.05234133,-0.0015270562,-0.19429396,-0.71681875,-0.81775016
0.007956698,-0.050712053,-0.001479522,-0.18824598,-0.6945056,-0.7922952
0.007709022,-0.04913349,-0.0014334676,-0.18238628,-0.6728871,-0.7676327
0.007469057,-0.047604073,-0.0013888468,-0.17670898,-0.65194154,-0.743738
0.0072365617,-0.046122264,-0.0013456151,-0.17120843,-0.63164806,-0.7205871
0.007011304,-0.044686582,-0.0013037291,-0.1658791,-0.61198634,-0.69815683
0.006793059,-0.043295596,-0.0012631471,-0.16071567,-0.59293664,-0.67642486
0.0065816073,-0.041947905,-0.0012238284,-0.15571298,-0.57447994,-0.6553694
0.0063767377,-0.040642172,-0.0011857337,-0.15086602,-0.55659777,-0.63496935
0.006178246,-0.039377082,-0.0011488247,-0.14616995,-0.5392723,-0.61520433
0.005985933,-0.038151376,-0.0011130648,-0.14162004,-0.5224861,-0.5960546
