ax,ay,az,gx,gy,gz
-0.779098,6.8336987,-3.7327611,16.091057,71.57793,-34.346676
-0.6789932,8.90838,-2.9028695,6.068547,72.022026,-46.045044
-0.38685343,10.300778,-2.2262022,-8.57557,72.19944,-51.421864
-0.3097749,11.117756,-2.0643349,-27.036129,73.69486,-54.62692
-0.75751084,11.598841,-2.4065979,-41.34329,71.22104,-58.877934
-1.2530686,11.96791,-2.7947383,-54.147194,65.20216,-64.85097
-1.5290933,12.174877,-3.2065437,-67.16075,58.2656,-71.136116
-1.5696716,12.150011,-3.6929274,-80.6956,51.9561,-76.094864
-1.4970818,11.85242,-4.2783337,-93.752945,46.68447,-78.21702
-1.5341544,11.353823,-5.0065722,-104.40352,41.630215,-79.818016
-1.7106168,10.776372,-5.7379837,-112.49594,35.37879,-81.612816
-1.9400758,10.082548,-6.400417,-119.06822,28.702543,-83.909935
-2.19075,9.20332,-7.0454025,-124.563934,21.136715,-85.70182
-2.419291,8.0579815,-7.7238817,-127.515434,11.627464,-86.846695
-2.522273,6.430513,-8.383192,-126.78965,1.7485086,-87.69286
-2.4645882,4.6365895,-8.956233,-122.03143,-7.4290257,-88.21241
-2.1846645,2.7767265,-9.473837,-112.906494,-15.482588,-87.97853
-1.6895466,1.0009911,-9.905833,-99.42944,-22.30778,-85.31839
-1.0736105,-0.4932327,-10.161521,-82.89508,-27.99939,-80.83442
-0.40854818,-1.5604671,-10.172315,-63.31967,-31.776323,-74.346725
0.25752512,-2.086775,-9.897766,-43.416935,-34.407917,-66.609566
0.9498735,-2.1115923,-9.317598,-25.415585,-35.834084,-58.208603
1.6113025,-1.8079292,-8.545172,-10.159831,-35.919636,-48.82075
2.1443071,-1.2505432,-7.6834426,1.0269383,-34.088593,-39.2213
2.4188774,-0.48457044,-6.829626,9.191657,-31.808207,-30.511663
2.5623178,0.35026625,-6.034799,14.891127,-29.430449,-23.016476
2.624936,1.2441778,-5.281955,18.090164,-26.882298,-16.81892
2.6079543,2.121347,-4.6145363,18.867977,-24.19276,-11.840905
2.513388,2.936876,-4.0632524,16.893671,-21.261108,-8.579035
2.3378444,3.6550705,-3.6833615,13.517179,-18.375181,-6.8388267
2.1217062,4.26689,-3.444424,9.034255,-15.77647,-6.340737
1.8770953,4.7578087,-3.3474853,3.9455855,-13.82077,-6.9569025
1.6263621,5.1367316,-3.3525486,-1.2540028,-12.468922,-8.661947
1.3907102,5.432314,-3.4180562,-6.4211245,-11.720243,-11.442393
1.1655552,5.666245,-3.5229867,-11.711169,-11.544776,-14.826086
0.96360654,5.8280916,-3.647032,-16.956064,-11.663658,-18.6773
0.7624821,5.936865,-3.7849312,-22.025959,-12.210545,-22.763313
0.55034345,6.011501,-3.9236941,-27.204044,-13.323523,-27.22273
0.31922328,6.0121474,-4.0563316,-32.68773,-15.368587,-32.313274
0.08566973,5.8805056,-4.1723795,-38.45123,-18.102987,-37.40084
-0.07666444,5.647685,-4.3353996,-44.313896,-21.69705,-42.452984
-0.085572496,5.279982,-4.5389895,-50.089424,-26.166725,-47.185234
0.09374094,4.7405033,-4.7694535,-55.42066,-31.233063,-50.28872
0.39640564,4.0463986,-5.034636,-59.762707,-36.27966,-50.514915
0.6948794,3.11942,-5.3858128,-61.620953,-40.401836,-49.554356
0.902549,2.1583276,-5.7241096,-60.075626,-43.528255,-47.923565
0.9919609,1.3072217,-5.9795933,-55.585697,-46.34875,-45.98713
1.024751,0.6608712,-6.096357,-49.191048,-49.178196,-44.033073
1.0772648,0.23210466,-6.070092,-41.81002,-51.87151,-41.96995
1.184801,0.0037541545,-5.9168406,-34.12851,-54.15225,-39.830986
1.3430225,-0.078532144,-5.677416,-26.388012,-55.609226,-37.649776
1.5088168,-0.020318156,-5.3664184,-19.10712,-56.557438,-35.220615
1.6758254,0.14134975,-5.0018654,-12.722873,-57.076103,-32.504524
1.8191934,0.3516914,-4.6239724,-7.404871,-56.939823,-29.76263
1.930761,0.60824215,-4.2390304,-3.083307,-56.45272,-27.05598
2.0104342,0.88046265,-3.8676314,0.16469997,-55.691486,-24.491278
2.0617177,1.1333201,-3.5346344,2.6038625,-54.765343,-22.20874
2.1006284,1.372027,-3.228089,4.166772,-53.502594,-20.298714
2.111095,1.5717022,-2.9733293,4.9399033,-51.98998,-18.750221
2.0934699,1.7380939,-2.7764158,5.2998686,-50.403877,-17.584791
2.0595107,1.8693842,-2.6245153,5.3814683,-48.83999,-16.739998
2.015887,1.9669532,-2.5094225,5.18736,-47.443558,-15.988051
1.9750081,2.025095,-2.4270945,4.867818,-46.038475,-15.512778
1.924127,2.0482109,-2.365022,4.5258775,-44.705563,-15.148365
1.8686867,2.0460484,-2.313703,4.3213496,-43.29467,-15.073356
1.8017814,2.0347445,-2.2621455,4.1845536,-42.063263,-15.079316
1.7435892,2.0228949,-2.1943913,4.0113163,-40.787586,-15.159394
1.6838436,2.0079265,-2.1188486,3.7326345,-39.496418,-15.131326
1.6189203,1.9919285,-2.039266,3.1650913,-38.235016,-14.959972
1.5500472,1.9577161,-1.9690427,2.554263,-37.070312,-14.829365
1.4882128,1.9089466,-1.9024006,1.8724378,-36.01631,-14.477683
1.4294796,1.8494587,-1.8415947,1.2598178,-34.942947,-14.19007
1.3743708,1.7887619,-1.7862917,0.77211064,-33.98648,-13.764656
1.3130214,1.7254971,-1.7311611,0.40887067,-33.28606,-13.250688
1.276875,1.6426408,-1.6851264,0.21804042,-32.662773,-12.513812
1.2414683,1.5390152,-1.648446,0.28838572,-32.069534,-11.762442
1.2361109,1.4272947,-1.6096429,0.7635784,-31.325857,-10.960314
1.2667428,1.3252412,-1.5491414,1.5837674,-30.16879,-10.138012
1.3288507,1.2480823,-1.4579753,2.2906954,-28.276964,-9.038109
1.2869543,1.2087322,-1.4120077,2.2184737,-27.385439,-8.753152
1.2464106,1.1706529,-1.3675244,2.148584,-26.5227,-8.477396
1.2071731,1.1338003,-1.3244743,2.0809457,-25.687756,-8.210525
1.1691972,1.0981326,-1.2828082,2.015482,-24.879656,-7.952234
1.1324399,1.0636094,-1.2424791,1.9521191,-24.097486,-7.7022305
1.0968597,1.0301919,-1.2034417,1.8907856,-23.340368,-7.460234
1.0624173,0.9978428,-1.1656525,1.831413,-22.607458,-7.2259755
1.0290743,0.96652645,-1.1290696,1.7739358,-21.897943,-6.9991946
0.996794,0.9362082,-1.0936526,1.7182904,-21.211042,-6.779642
0.9655411,0.90685487,-1.0593629,1.6644162,-20.546005,-6.567077
0.9352816,0.8784345,-1.026163,1.6122543,-19.902103,-6.3612685
0.90598255,0.8509163,-0.994017,1.5617481,-19.278643,-6.161993
0.87761253,0.8242706,-0.9628902,1.5128434,-18.674948,-5.9690356
0.850141,0.7984688,-0.9327493,1.4654875,-18.090374,-5.7821894
0.82353854,0.7734833,-0.90356183,1.4196297,-17.524294,-5.601254
0.7977769,0.7492874,-0.87529695,1.3752214,-16.976105,-5.426038
0.7728287,0.72585565,-0.84792453,1.3322153,-16.445227,-5.256354
0.7486676,0.703163,-0.8214157,1.290566,-15.931095,-5.0920234
0.7252681,0.6811858,-0.7957425,1.2502295,-15.433171,-4.9328732
0.70260566,0.65990084,-0.77087796,1.2111636,-14.950932,-4.7787356
0.68065655,0.6392858,-0.7467961,1.1733274,-14.483871,-4.6294503
0.65939784,0.6193192,-0.72347164,1.1366813,-14.031502,-4.48486
0.6388074,0.59998024,-0.7008804,1.1011871,-13.593351,-4.3448153
0.6188638,0.5812488,-0.6789989,1.066808,-13.168966,-4.20917
0.5995464,0.5631055,-0.65780437,1.0335083,-12.757906,-4.0777836
0.58083516,0.54553163,-0.637275,1.0012536,-12.359745,-3.95052
0.5627109,0.5285089,-0.61738956,0.9700106,-11.974073,-3.8272486
0.54515475,0.5120199,-0.5981275,0.93974704,-11.600492,-3.7078414
0.5281488,0.49604756,-0.5794691,0.9104319,-11.238618,-3.5921764
0.51167554,0.48057556,-0.5613951,0.882035,-10.888079,-3.4801345
0.4957181,0.465588,-0.5438871,0.8545273,-10.548516,-3.3716009
0.48026013,0.4510696,-0.52692705,0.8278806,-10.219583,-3.2664642
0.46528587,0.43700546,-0.51049775,0.8020677,-9.900941,-3.1646175
0.45077997,0.42338127,-0.49458233,0.77706224,-9.592266,-3.0659566
0.4367277,0.4101831,-0.4791646,0.7528387,-9.293244,-2.9703808
0.42311475,0.39739755,-0.46422884,0.72937244,-9.003571,-2.8777928
0.40992722,0.38501155,-0.4497599,0.7066395,-8.72295,-2.7880986
0.39715177,0.3730126,-0.43574303,0.684617,-8.4510975,-2.701207
0.3847754,0.36138847,-0.42216405,0.6632824,-8.187737,-2.6170297
0.37278554,0.3501274,-0.40900916,0.64261407,-7.9326024,-2.5354815
0.36117008,0.33921793,-0.39626503,0.6225912,-7.685434,-2.4564795
0.34991726,0.32864904,-0.38391876,0.60319334,-7.445982,-2.379944
0.33901566,0.31841007,-0.37195787,0.584401,-7.214004,-2.3057973
0.32845432,0.30849063,-0.36037025,0.56619513,-6.989266,-2.2339647
0.3182225,0.2988807,-0.3491442,0.54855734,-6.77154,-2.1643736
0.30830988,0.2895706,-0.3382684,0.5314698,-6.5606074,-2.0969536
0.2987065,0.2805509,-0.32773185,0.51491535,-6.3562546,-2.0316365
0.28940263,0.27181253,-0.31752393,0.4988772,-6.158275,-1.9683568
0.28038892,0.2633467,-0.30763435,0.48333922,-5.9664702,-1.9070506
0.27165627,0.25514483,-0.29805315,0.46828574,-5.780646,-1.847656
0.26319593,0.2471987,-0.2887707,0.45370162,-5.6006155,-1.7901133
0.2549993,0.23950028,-0.27977765,0.4395722,-5.426198,-1.7343645
0.24705823,0.23204187,-0.2710649,0.4258832,-5.2572174,-1.6803536
0.23936467,0.2248159,-0.26262376,0.41262087,-5.093504,-1.6280262
0.23191088,0.21781518,-0.2544457,0.39977193,-4.934893,-1.5773298
0.2246894,0.21103261,-0.24652249,0.3873234,-4.781225,-1.5282131
0.21769296,0.20446143,-0.2388462,0.37526283,-4.6323457,-1.4806273
0.21091452,0.198095,-0.2314091,0.36357805,-4.488106,-1.434524
0.2043473,0.19192693,-0.22420375,0.35225734,-4.34836,-1.3898574
0.19798468,0.18595102,-0.21722287,0.34128937,-4.2129683,-1.3465824
0.19182028,0.18016131,-0.21045949,0.33066308,-4.0817947,-1.3046557
0.18584792,0.17455196,-0.20390679,0.32036784,-3.9547071,-1.264035
0.18006162,0.16911735,-0.19755822,0.3103933,-3.8315787,-1.2246797
0.17445555,0.16385202,-0.19140743,0.30072945,-3.7122858,-1.1865504
0.16902411,0.1587507,-0.1854482,0.29136664,-3.5967085,-1.1496086
0.16376184,0.15380828,-0.1796746,0.28229544,-3.4847314,-1.1138176
0.15866345,0.14901978,-0.1740808,0.27350676,-3.3762417,-1.0791413
0.15372387,0.14438042,-0.16866124,0.26499182,-3.2711308,-1.0455449
0.14893812,0.13988556,-0.16341045,0.25674206,-3.1692934,-1.0129948
0.1443014,0.13553067,-0.15832318,0.24874921,-3.0706277,-0.9814584
0.13980909,0.13131139,-0.15339434,0.24100529,-2.9750345,-0.9509042
0.13545665,0.1272235,-0.148619,0.23350249,-2.882418,-0.92130136
0.13123977,0.12326292,-0.14399235,0.22623335,-2.7926857,-0.8926204
0.12715419,0.11942566,-0.13950977,0.21919055,-2.7057474,-0.8648325
0.12319582,0.11570789,-0.13516676,0.21236706,-2.6215165,-0.83790994
0.11936071,0.11210588,-0.130959,0.20575602,-2.539908,-0.81182563
0.11564501,0.108616024,-0.12688226,0.19935083,-2.4608407,-0.7865535
0.112045005,0.10523483,-0.12293243,0.1931451,-2.3842351,-0.7620682
0.10855709,0.101958916,-0.11910559,0.18713255,-2.310015,-0.7383454
0.10517777,0.09878499,-0.1153979,0.18130723,-2.2381055,-0.71536106
0.10190366,0.09570988,-0.111805655,0.17566326,-2.1684349,-0.6930924
0.09873149,0.09273052,-0.10832524,0.17019503,-2.1009336,-0.6715171
0.095658086,0.08984392,-0.10495319,0.16489704,-2.0355337,-0.6506134
0.09268036,0.08704718,-0.10168612,0.15976398,-1.9721699,-0.6303606
0.08979534,0.08433752,-0.09852076,0.15479074,-1.9107788,-0.61073834
0.08700014,0.08171221,-0.095453955,0.14997232,-1.8512989,-0.5917269
0.08429196,0.07916863,-0.09248262,0.14530392,-1.7936709,-0.57330734
0.08166809,0.07670424,-0.08960378,0.14078084,-1.7378368,-0.5554612
0.0791259,0.074316576,-0.086814575,0.13639858,-1.683741,-0.5381707
0.07666286,0.07200324,-0.0841122,0.13215274,-1.6313292,-0.52141845
0.07427649,0.06976192,-0.081493944,0.12803908,-1.5805491,-0.5051877
0.07196441,0.06759036,-0.0789572,0.124053486,-1.5313498,-0.4894622
0.069724314,0.065486416,-0.07649943,0.120191954,-1.483682,-0.47422627
0.067553945,0.06344797,-0.07411817,0.11645064,-1.4374982,-0.4594646
0.06545114,0.061472975,-0.071811035,0.11282579,-1.392752,-0.4451625
0.0634138,0.05955946,-0.06957572,0.109313786,-1.349399,-0.43130562
0.06143987,0.057705514,-0.06740999,0.1059111,-1.3073953,-0.4178801
0.059527397,0.05590928,-0.065311685,0.10261434,-1.2666992,-0.40487248
0.057674456,0.054168962,-0.06327869,0.09942021,-1.22727,-0.3922698
0.055879194,0.052482817,-0.061308984,0.09632551,-1.1890682,-0.38005942
0.05413982,0.050849162,-0.059400592,0.09332714,-1.1520555,-0.36822915
