ax,ay,az,gx,gy,gz
-2.4318402,4.2282205,-5.037318,-11.707379,166.18333,-5.937327
-3.0356,4.557354,-6.022977,-18.634075,163.57356,-15.933448
-3.611934,4.589233,-6.982141,-19.160812,149.49046,-28.457598
-3.9869955,4.427603,-7.611017,-20.715876,130.71973,-36.955704
-4.1746364,4.194069,-7.9825444,-29.63461,111.466866,-39.912422
-4.502863,3.785132,-8.496301,-38.032955,93.19201,-42.317085
-4.9972897,3.2353277,-9.07102,-45.16647,75.23906,-45.110672
-5.5388722,2.651318,-9.683387,-50.504692,54.95397,-47.79443
-6.0459247,2.0665586,-10.229617,-52.861946,31.717136,-50.394665
-6.4434314,1.5698828,-10.615338,-53.060394,4.8900185,-53.884888
-6.6717286,1.0516561,-10.879835,-51.24233,-21.964869,-58.537003
-6.582153,0.44163525,-10.980132,-46.496384,-46.67464,-62.953644
-6.2255607,-0.22291504,-10.936511,-40.1903,-68.767815,-65.09957
-5.57426,-0.9487272,-10.679498,-32.192375,-87.2809,-62.54922
-4.78069,-1.5697316,-10.256706,-22.598469,-101.70983,-55.961205
-3.979398,-1.9375587,-9.722272,-13.1162815,-113.418655,-49.155117
-3.1634936,-2.2242126,-9.095594,-4.280328,-122.1415,-42.40128
-2.266488,-2.4472,-8.384457,4.3065376,-127.72443,-34.56022
-1.3319161,-2.5632367,-7.6256437,12.08953,-130.16473,-25.299688
-0.45328677,-2.5678537,-6.861224,18.85487,-128.93683,-16.3498
0.38413295,-2.4576514,-6.0801215,24.850454,-124.7273,-8.52483
1.1546029,-2.2630653,-5.3464317,30.61144,-117.668655,-2.4730127
1.8391546,-2.0181055,-4.6826262,35.93892,-108.45804,1.9163609
2.4403534,-1.7485689,-4.0989356,40.02391,-97.927155,5.6872993
2.9523106,-1.4575626,-3.606771,43.03236,-86.45031,9.559192
3.3531566,-1.134347,-3.2243352,45.308193,-74.722885,13.129129
3.65249,-0.8104962,-2.947088,47.327244,-62.83879,15.973262
3.8450644,-0.516058,-2.775081,49.074505,-50.843147,17.800295
3.9572432,-0.2455281,-2.6916196,50.32816,-38.902256,19.049738
4.0147996,0.021942291,-2.6781723,50.280293,-27.744884,19.88919
4.034397,0.30899146,-2.6954768,49.105423,-17.013084,20.34454
4.0137515,0.6054118,-2.7618213,47.589165,-7.1419477,20.10779
3.9555714,0.89734614,-2.8605993,45.85314,1.8104728,18.98794
3.8728788,1.1793095,-2.9811134,43.82027,9.577195,16.996332
3.7843392,1.4250853,-3.1134205,41.525917,16.29012,14.326245
3.6800487,1.6329856,-3.2757201,39.076973,21.98622,11.373752
3.5611334,1.8160841,-3.4662042,36.57631,26.602695,8.29574
3.4232275,1.9749846,-3.6848571,33.99363,30.010801,5.113977
3.2707489,2.1065767,-3.9207368,31.370644,32.15644,2.0041525
3.0948038,2.225175,-4.1696496,28.576485,32.232666,-1.4101429
2.8956072,2.3332787,-4.4303427,25.488922,30.796074,-5.15554
2.7028146,2.4085262,-4.6993275,22.461838,28.198217,-9.27714
2.5212877,2.4448853,-4.993859,19.868176,24.061419,-13.63966
2.3815715,2.4474287,-5.2805066,17.027594,18.83408,-17.926899
2.2774587,2.3939323,-5.562806,14.489726,12.062936,-21.738644
2.2038076,2.3050792,-5.7730846,12.183385,4.612733,-24.870943
2.146587,2.217751,-5.901343,10.334524,-2.989398,-27.235737
2.0870943,2.1651468,-5.926403,8.506329,-10.106906,-28.755037
1.9824895,2.1661987,-5.893693,6.32472,-16.65235,-30.232277
1.8341407,2.1785672,-5.834031,3.1676419,-23.332613,-32.801758
1.7295139,2.1236398,-5.6802,-1.1448184,-29.937914,-35.374077
1.7066411,1.9640322,-5.4445896,-6.3196816,-35.983902,-37.19604
1.7605722,1.7065954,-5.1444063,-11.485442,-41.137398,-38.347218
1.8788353,1.3759112,-4.8208137,-15.860137,-45.10642,-39.44498
2.0518334,0.98302025,-4.507995,-18.543571,-48.082695,-40.926517
2.2904718,0.55027235,-4.163725,-20.382952,-50.212185,-41.747242
2.5325434,0.14698246,-3.7992883,-21.701672,-51.142086,-41.48032
2.743419,-0.18638247,-3.430748,-22.916737,-50.87023,-40.374916
2.903453,-0.4366838,-3.0763574,-24.074324,-49.5852,-38.72488
3.0013847,-0.6102746,-2.7627673,-24.805084,-47.413403,-36.896896
3.0056925,-0.7199259,-2.527863,-24.766623,-44.997,-35.299908
2.951728,-0.8007925,-2.3405447,-24.523848,-42.560413,-33.822098
2.8778253,-0.8757451,-2.179227,-24.169193,-40.07833,-32.273373
2.799994,-0.9380808,-2.034606,-23.763817,-37.420265,-30.573465
2.706689,-0.9799369,-1.9118737,-23.698347,-34.43712,-28.780731
2.6024084,-0.9976311,-1.8202063,-23.87224,-31.383348,-27.190279
2.5047452,-1.0105903,-1.7554307,-24.057821,-28.419569,-25.72619
2.4158828,-1.0217361,-1.7119734,-23.727524,-25.938602,-24.446297
2.3391736,-1.0403001,-1.6783764,-22.51166,-23.942575,-23.318586
2.2645848,-1.0071281,-1.6248583,-21.793833,-23.179121,-22.57503
2.1924808,-0.9750614,-1.5731231,-21.099922,-22.441103,-21.856245
2.1227696,-0.9440587,-1.5231047,-20.429037,-21.727575,-21.161312
2.0553627,-0.9140809,-1.4747397,-19.780329,-21.037632,-20.489351
1.990176,-0.8850905,-1.4279678,-19.152988,-20.370417,-19.839523
1.9271293,-0.8570517,-1.3827312,-18.54624,-19.725101,-19.211027
1.8661454,-0.82993037,-1.3389747,-17.959347,-19.100903,-18.603096
1.8071512,-0.8036939,-1.2966459,-17.3916,-18.497068,-18.015
1.7500762,-0.7783109,-1.2556942,-16.842323,-17.912878,-17.446033
1.694853,-0.7537515,-1.216071,-16.310867,-17.347641,-16.895529
1.641417,-0.72998697,-1.1777303,-15.796614,-16.8007,-16.36284
1.5897065,-0.70698977,-1.1406276,-15.298964,-16.271418,-15.847353
1.539662,-0.6847335,-1.1047202,-14.817347,-15.759187,-15.348473
1.4912264,-0.66319275,-1.0699673,-14.351214,-15.263426,-14.865632
1.4443451,-0.6423432,-1.0363295,-13.900039,-14.783572,-14.398284
1.3989652,-0.62216145,-1.0037692,-13.463314,-14.319087,-13.945905
1.3550364,-0.602625,-0.9722498,-13.040553,-13.869454,-13.50799
1.3125098,-0.58371216,-0.94173664,-12.631287,-13.434174,-13.084054
1.2713387,-0.5654021,-0.912196,-12.235065,-13.012767,-12.67363
1.2314779,-0.54767483,-0.8835955,-11.851455,-12.604773,-12.276268
1.192884,-0.53051096,-0.8559041,-11.480036,-12.209745,-11.891537
1.1555152,-0.513892,-0.8290917,-11.120408,-11.827258,-11.519017
1.1193314,-0.4977999,-0.80312943,-10.772182,-11.456899,-11.15831
1.0842934,-0.4822175,-0.77798945,-10.434985,-11.098268,-10.809026
1.0503638,-0.46712804,-0.7536447,-10.108456,-10.750983,-10.470792
1.0175067,-0.45251548,-0.73006946,-9.792246,-10.414674,-10.143248
0.9856871,-0.43836436,-0.7072386,-9.486022,-10.088985,-9.826047
0.95487136,-0.4246597,-0.6851281,-9.189458,-9.773571,-9.518853
0.925027,-0.41138703,-0.6637145,-8.902244,-9.4681,-9.221343
0.89612275,-0.39853242,-0.64297545,-8.624075,-9.172251,-8.933204
0.86812824,-0.38608244,-0.62288916,-8.354663,-8.885714,-8.654135
0.84101427,-0.37402406,-0.6034347,-8.093724,-8.608189,-8.383843
0.81475264,-0.36234474,-0.58459175,-7.8409886,-8.339388,-8.122047
0.78931606,-0.35103232,-0.5663408,-7.596193,-8.079032,-7.8684773
0.76467806,-0.34007508,-0.54866284,-7.3590827,-7.8268504,-7.622868
0.74081326,-0.3294617,-0.5315396,-7.1294136,-7.582583,-7.3849664
0.717697,-0.3191812,-0.51495355,-6.906948,-7.345977,-7.1545267
0.69530547,-0.30922303,-0.49888742,-6.691457,-7.1167884,-6.931311
0.6736156,-0.29957688,-0.48332477,-6.4827185,-6.894782,-6.7150908
0.6526052,-0.29023293,-0.4682496,-6.280519,-6.67973,-6.5056434
0.6322526,-0.28118154,-0.45364645,-6.084651,-6.4714117,-6.3027544
0.6125371,-0.27241346,-0.43950042,-5.894913,-6.2696137,-6.106216
0.5934385,-0.26391974,-0.42579702,-5.711113,-6.0741305,-5.915827
0.5749373,-0.2556917,-0.41252226,-5.5330615,-5.884762,-5.7313933
0.55701464,-0.24772097,-0.39966258,-5.360578,-5.7013144,-5.552727
0.5396523,-0.23999941,-0.38720495,-5.1934867,-5.5236025,-5.379647
0.5228325,-0.23251918,-0.37513667,-5.0316176,-5.3514442,-5.2119756
0.50653833,-0.22527267,-0.36344546,-4.8748064,-5.1846657,-5.0495434
0.49075317,-0.21825254,-0.35211948,-4.7228937,-5.0230966,-4.892185
0.475461,-0.21145165,-0.3411472,-4.5757256,-4.866574,-4.739742
0.46064633,-0.20486313,-0.33051756,-4.4331527,-4.7149386,-4.592058
0.44629416,-0.1984803,-0.32021976,-4.2950306,-4.568037,-4.448985
0.43238997,-0.19229668,-0.3102434,-4.16122,-4.425721,-4.310378
0.4189197,-0.18630606,-0.30057836,-4.031585,-4.287846,-4.176097
0.40586975,-0.18050236,-0.2912149,-3.9059956,-4.1542735,-4.0460052
0.39322695,-0.17487971,-0.2821436,-3.7843242,-4.0248685,-3.9199727
0.38097852,-0.16943248,-0.27335525,-3.666448,-3.8995,-3.7978714
0.36911213,-0.16415514,-0.264841,-3.5522487,-3.7780416,-3.6795785
0.3576158,-0.15904237,-0.2565923,-3.4416106,-3.660371,-3.5649748
0.34647796,-0.15408905,-0.2486008,-3.3344226,-3.5463698,-3.4539444
0.33568737,-0.14929016,-0.24085847,-3.2305765,-3.4359229,-3.3463762
0.3252332,-0.14464088,-0.2333575,-3.1299682,-3.3289194,-3.2421613
0.3151049,-0.14013653,-0.22609037,-3.0324957,-3.2252514,-3.1411953
0.3052923,-0.13577257,-0.21904977,-2.9380617,-3.1248147,-3.0433762
0.29578555,-0.13154463,-0.21222858,-2.846571,-3.0275085,-2.9486058
0.28657508,-0.12744845,-0.20561999,-2.7579315,-2.9332347,-2.856789
0.2776516,-0.12347993,-0.19921733,-2.672054,-2.841899,-2.7678335
0.26900622,-0.11963507,-0.19301419,-2.588853,-2.753409,-2.68165
0.2606302,-0.11591,-0.18700431,-2.508244,-2.6676764,-2.5981517
0.25251514,-0.11230099,-0.1811817,-2.4301465,-2.5846148,-2.5172548
0.2446529,-0.10880442,-0.17554048,-2.3544822,-2.504141,-2.4388783
0.23703559,-0.105416775,-0.170075,-2.2811751,-2.4261742,-2.3629434
0.22965558,-0.10213467,-0.16477977,-2.2101514,-2.350636,-2.289374
0.22250545,-0.09895479,-0.15964949,-2.1413403,-2.277451,-2.2180963
0.21557802,-0.09587396,-0.15467902,-2.0746725,-2.2065456,-2.1490388
0.20886637,-0.092889085,-0.14986335,-2.010081,-2.1378486,-2.082132
0.20236377,-0.08999719,-0.14519767,-1.9475015,-2.0712912,-2.0173094
0.19606368,-0.08719535,-0.1406773,-1.8868709,-2.0068069,-1.9545056
0.1899598,-0.08448077,-0.13629772,-1.8281286,-1.9443306,-1.8936576
0.184046,-0.08185073,-0.13205452,-1.7712157,-1.8838,-1.8347046
0.17831637,-0.079302594,-0.12794347,-1.7160751,-1.8251545,-1.7775875
0.17276517,-0.07683381,-0.123960435,-1.6626515,-1.7683352,-1.722249
0.16738683,-0.0744419,-0.12010144,-1.6108917,-1.7132853,-1.6686338
0.16217597,-0.072124474,-0.116362594,-1.5607435,-1.6599495,-1.6166881
0.15712737,-0.06987921,-0.11274018,-1.5121568,-1.6082747,-1.56636
0.15223595,-0.06770386,-0.109230556,-1.4650831,-1.5582087,-1.5175989
0.14749685,-0.06559624,-0.10583021,-1.4194751,-1.5097017,-1.470356
0.1429053,-0.063554235,-0.10253573,-1.3752872,-1.462705,-1.4245842
0.13845672,-0.06157582,-0.09934384,-1.332475,-1.4171716,-1.3802373
0.13414663,-0.059658997,-0.096251324,-1.2909958,-1.3730558,-1.3372713
0.12997074,-0.057801858,-0.09325509,-1.250808,-1.3303136,-1.2956431
0.12592487,-0.05600254,-0.09035214,-1.2118715,-1.2889022,-1.2553109
0.12200496,-0.054259237,-0.08753957,-1.1741472,-1.2487799,-1.2162343
0.1182071,-0.05257021,-0.08481457,-1.1375974,-1.2099069,-1.1783744
0.114527464,-0.050933767,-0.0821744,-1.1021855,-1.1722441,-1.1416931
0.11096238,-0.049348272,-0.07961643,-1.067876,-1.1357538,-1.1061538
0.107508294,-0.047812138,-0.07713809,-1.0346347,-1.1003995,-1.071721
0.10416174,-0.046323825,-0.07473691,-1.0024282,-1.0661459,-1.0383601
0.100919366,-0.044881843,-0.07241048,-0.97122437,-1.0329586,-1.0060377
0.09777793,-0.043484755,-0.07015648,-0.94099194,-1.0008045,-0.97472167
0.094734296,-0.04213116,-0.06797264,-0.91170067,-0.9696514,-0.94438046
0.09178541,-0.0408197,-0.065856785,-0.8833212,-0.9394681,-0.91498375
0.08892832,-0.039549068,-0.0638068,-0.8558253,-0.91022444,-0.8865022
0.08616017,-0.03831799,-0.061820634,-0.8291853,-0.8818911,-0.85890734
0.0834782,-0.037125237,-0.059896294,-0.8033746,-0.8544398,-0.83217144
0.08087971,-0.03596961,-0.05803186,-0.7783674,-0.827843,-0.80626786
0.078362115,-0.034849964,-0.056225467,-0.75413865,-0.8020742,-0.78117067
0.07592289,-0.033765167,-0.054475304,-0.73066413,-0.7771076,-0.75685465
0.0735596,-0.03271414,-0.05277962,-0.7079204,-0.7529181,-0.7332957
0.07126987,-0.03169583,-0.051136725,-0.68588454,-0.7294817,-0.71047
0.06905142,-0.030709222,-0.049544968,-0.66453475,-0.7067748,-0.6883549
