ax,ay,az,gx,gy,gz
-1.0618278,0.17818344,-2.0318365,31.960289,-34.124855,-12.0410185
-0.98662806,-0.02059069,-2.1238725,34.791794,-42.439274,-7.4669266
-0.82096416,0.15766463,-2.017269,27.98631,-44.267334,-1.5232828
-0.8239106,0.2595867,-1.9733826,23.167196,-45.652863,0.55300003
-0.82373095,0.2432917,-1.9446974,22.377531,-45.629017,-1.2300711
-0.77214265,0.12938637,-1.9142973,22.946894,-45.451443,-3.9354882
-0.659225,0.03370396,-1.7960768,21.318249,-45.175488,-5.4296303
-0.49042773,-0.024065048,-1.640116,18.524166,-44.43802,-5.790463
-0.34433922,-0.10579089,-1.5380208,15.261342,-44.08759,-5.5991755
-0.2473239,-0.2168511,-1.4662,13.818617,-43.71244,-4.891972
-0.2362872,-0.35239395,-1.499947,12.586579,-43.27298,-4.7089686
-0.31862488,-0.5730844,-1.6510642,13.605549,-44.566658,-5.2182226
-0.3706028,-0.75689924,-1.8535594,13.909335,-47.144356,-5.2695913
-0.38587245,-0.9099056,-2.0890965,14.161856,-51.399242,-4.709052
-0.38262948,-1.0610583,-2.3486817,13.920089,-56.969215,-4.0136924
-0.40024865,-1.2036155,-2.6144247,14.417943,-63.52929,-4.24739
-0.4463295,-1.3254623,-2.819067,16.019821,-71.08556,-5.0717006
-0.42507717,-1.4979016,-2.8942254,18.835787,-77.88486,-4.145685
-0.4148502,-1.648805,-2.9364963,21.22304,-84.36144,-1.4375601
-0.4357784,-1.7522436,-2.9456732,22.041199,-90.013016,2.197394
-0.49436134,-1.8393885,-2.9362872,22.470423,-95.891014,5.8509684
-0.49081376,-1.9418598,-2.8283837,22.425564,-101.02509,9.918352
-0.3692994,-2.0938344,-2.597826,23.288961,-105.206825,14.64495
-0.1903607,-2.2035558,-2.320066,25.000805,-107.79283,19.788618
-0.010382763,-2.2411044,-2.0498374,27.214314,-109.4584,24.423931
0.17183577,-2.2257776,-1.7867427,30.206076,-110.226364,27.53884
0.38603723,-2.1759877,-1.5087117,33.528984,-110.14129,29.819336
0.66381925,-2.0844643,-1.1763785,36.401733,-109.19445,32.09259
1.0110943,-1.9256678,-0.7855142,38.337814,-107.13102,34.474426
1.4224126,-1.681235,-0.337959,39.718193,-103.23561,35.98954
1.843668,-1.3957937,0.112012394,41.361904,-97.93891,36.56423
2.244876,-1.0897794,0.5326964,42.922333,-91.336296,36.646008
2.5836158,-0.818288,0.87292427,43.8524,-83.71895,36.762268
2.8566632,-0.56825656,1.1211742,43.591488,-75.059235,37.088604
3.066464,-0.32339084,1.2829936,42.567036,-65.67571,37.136814
3.2125955,-0.09175893,1.359229,41.099987,-55.89261,36.53717
3.301947,0.11368299,1.3474575,39.52242,-46.29679,34.97748
3.3434315,0.2811192,1.2565156,37.5527,-37.128334,33.41257
3.356571,0.43003756,1.1161839,35.40715,-28.651585,32.20716
3.360682,0.58086985,0.95532453,33.69064,-20.79472,30.978144
3.3550816,0.7256248,0.7757327,32.384678,-13.251064,29.21351
3.322436,0.8415376,0.5633857,31.12228,-6.1615806,27.040245
3.2526164,0.9371746,0.30783844,29.787672,0.38206887,24.843737
3.1600099,1.0273197,0.030477475,28.75426,6.312296,22.516533
3.0412164,1.1283562,-0.27740744,27.376123,11.376535,19.908314
2.899464,1.2002066,-0.6106448,25.892437,15.371609,17.07431
2.740433,1.2474864,-0.96234024,24.343554,17.4091,14.239262
2.5676599,1.2657504,-1.3128867,22.683826,18.344364,11.598902
2.3863235,1.256383,-1.6631081,21.15504,18.303677,9.15577
2.2027194,1.2452493,-2.008761,19.7756,17.48859,6.7407923
2.0130467,1.2329304,-2.351742,18.680454,15.758326,4.20788
1.8374163,1.2270595,-2.674615,17.48403,12.929057,1.6904485
1.6618811,1.2253871,-2.9793012,16.229088,9.024693,-0.8638117
1.5076127,1.2291994,-3.2364118,14.726942,4.4286304,-3.421553
1.3877697,1.2219379,-3.4368865,13.145198,-0.5667089,-5.6051435
1.3056369,1.2146137,-3.5780373,11.466576,-5.6521006,-7.226959
1.2460314,1.2272207,-3.6712275,9.15874,-10.855125,-8.663172
1.1800914,1.2299663,-3.7216902,6.9863014,-16.350245,-10.451549
1.1321622,1.2011856,-3.7164078,4.9156322,-22.484003,-12.399189
1.1517006,1.1229397,-3.6199791,2.2445765,-28.65427,-13.860138
1.207255,0.9933698,-3.43168,-0.738745,-34.35123,-14.696618
1.2692232,0.85314125,-3.1649938,-3.3704379,-38.93321,-15.576968
1.3229935,0.6914811,-2.875423,-5.640389,-42.72862,-16.842937
1.3925115,0.4864912,-2.5909214,-7.467863,-46.227608,-18.047441
1.5096738,0.24835351,-2.2642906,-8.892867,-48.99966,-18.668617
1.6563265,0.00713868,-1.91365,-9.738111,-50.509056,-18.729637
1.7884821,-0.17528303,-1.5769008,-10.038269,-50.38868,-18.649689
1.8988987,-0.31251442,-1.2759987,-10.357592,-49.239452,-18.636902
1.9803736,-0.42862144,-1.032446,-10.391331,-47.70004,-18.581654
2.044008,-0.5246768,-0.8313851,-10.410293,-46.060318,-18.320002
2.0969892,-0.6015165,-0.6581963,-10.459731,-44.039913,-17.903824
2.1254146,-0.6575557,-0.5281778,-10.691879,-41.535408,-17.505335
2.1167326,-0.6951668,-0.45046958,-10.833031,-38.69698,-17.24986
2.0796342,-0.7180283,-0.4122059,-10.669473,-35.84171,-17.097664
2.0245242,-0.71954805,-0.39974955,-10.459078,-33.10725,-16.898254
1.9548572,-0.70329684,-0.4092193,-10.402368,-30.593592,-16.684137
1.8870205,-0.67303395,-0.42881235,-11.090379,-28.161942,-16.104607
1.8322551,-0.65888375,-0.45244226,-12.114536,-25.726524,-15.035032
1.7747544,-0.64610773,-0.48060668,-13.199844,-23.242992,-13.690074
1.7187994,-0.625737,-0.46545395,-12.783675,-22.51018,-13.258449
1.664651,-0.6060241,-0.4507905,-12.380944,-21.80103,-12.84076
1.6122472,-0.58694625,-0.43659946,-11.991187,-21.114725,-12.436528
1.5615282,-0.56848174,-0.42286465,-11.613962,-20.450485,-12.045293
1.5124366,-0.55060977,-0.40957057,-11.24884,-19.80756,-11.666612
1.4649175,-0.5333102,-0.3967023,-10.895413,-19.185228,-11.300059
1.4189177,-0.5165637,-0.38424546,-10.5532875,-18.582792,-10.945226
1.3743862,-0.5003518,-0.37218627,-10.222082,-17.999588,-10.60172
1.331274,-0.48465663,-0.36051142,-9.901433,-17.434973,-10.269162
1.2895341,-0.469461,-0.34920818,-9.590989,-16.888327,-9.947189
1.2491208,-0.45474836,-0.33826417,-9.290413,-16.359056,-9.635449
1.2099904,-0.44050273,-0.32766756,-8.999377,-15.846585,-9.333606
1.1721005,-0.42670876,-0.31740695,-8.71757,-15.350364,-9.041332
1.1354108,-0.41335168,-0.30747128,-8.444687,-14.869858,-8.758315
1.0998818,-0.40041715,-0.29784995,-8.180438,-14.404553,-8.484251
1.0654756,-0.38789144,-0.2885327,-7.92454,-13.953955,-8.21885
1.0321559,-0.37576124,-0.2795097,-7.676723,-13.517585,-7.961829
0.9998874,-0.36401376,-0.27077132,-7.4367237,-13.094981,-7.712917
0.9686361,-0.35263658,-0.2623084,-7.2042904,-12.6857,-7.471851
0.93836915,-0.34161773,-0.25411206,-6.9791784,-12.28931,-7.238378
0.9090549,-0.33094573,-0.24617371,-6.761152,-11.905397,-7.012254
0.8806627,-0.32060942,-0.23848505,-6.549983,-11.533561,-6.793243
0.853163,-0.31059805,-0.23103808,-6.3454523,-11.173412,-6.581116
0.8265272,-0.30090114,-0.22382505,-6.147347,-10.824577,-6.3756533
0.8007277,-0.29150873,-0.21683851,-5.9554615,-10.486695,-6.1766415
0.7757378,-0.28241104,-0.2100712,-5.769598,-10.159417,-5.9838753
0.7515318,-0.2735987,-0.20351617,-5.589564,-9.842403,-5.797155
0.7280846,-0.26506266,-0.19716664,-5.415174,-9.535329,-5.6162887
0.7053722,-0.2567941,-0.19101608,-5.246249,-9.237877,-5.44109
0.6833713,-0.24878456,-0.18505818,-5.082616,-8.949742,-5.2713795
0.66205925,-0.2410258,-0.17928684,-4.924106,-8.6706295,-5.1069827
0.6414143,-0.2335099,-0.17369615,-4.770558,-8.400254,-4.947732
0.62141526,-0.22622918,-0.16828038,-4.6218143,-8.138338,-4.793464
0.60204184,-0.2191762,-0.16303402,-4.4777236,-7.884615,-4.6440215
0.58327425,-0.21234377,-0.15795173,-4.338138,-7.638826,-4.4992523
0.5650934,-0.20572492,-0.15302831,-4.2029166,-7.400721,-4.3590093
0.5474807,-0.19931296,-0.14825878,-4.0719213,-7.1700573,-4.223149
0.5304184,-0.19310133,-0.14363825,-3.9450192,-6.946601,-4.0915337
0.513889,-0.18708374,-0.13916208,-3.8220813,-6.7301254,-3.9640298
0.49787593,-0.18125409,-0.1348257,-3.702983,-6.5204105,-3.840508
0.48236284,-0.17560647,-0.13062473,-3.5876033,-6.317244,-3.7208433
0.46733406,-0.17013519,-0.1265549,-3.4758258,-6.12042,-3.6049147
0.45277438,-0.16483466,-0.12261212,-3.3675373,-5.92974,-3.4926043
0.4386691,-0.15969956,-0.11879238,-3.2626283,-5.7450104,-3.383799
0.42500392,-0.15472469,-0.11509183,-3.1609926,-5.5660453,-3.278389
0.41176507,-0.14990503,-0.11150672,-3.0625281,-5.3926635,-3.1762674
0.39893922,-0.14523572,-0.108033456,-2.967135,-5.22469,-3.0773315
0.38651338,-0.14071204,-0.10466852,-2.874717,-5.061956,-2.9814813
0.3744751,-0.13632943,-0.10140853,-2.7851815,-4.9042964,-2.8886204
0.36281216,-0.13208349,-0.09825019,-2.6984377,-4.7515535,-2.798655
0.35151288,-0.12796992,-0.09519032,-2.6143985,-4.603573,-2.7114947
0.34056586,-0.12398461,-0.09222584,-2.5329795,-4.4602056,-2.6270518
0.32996008,-0.12012353,-0.089353785,-2.4540982,-4.3213077,-2.545241
0.3196849,-0.1163828,-0.08657125,-2.377676,-4.186739,-2.4659805
0.30972993,-0.11275865,-0.083875425,-2.3036356,-4.0563645,-2.3891902
0.30008525,-0.10924746,-0.081263624,-2.2319024,-3.9300532,-2.314793
0.29074112,-0.105845675,-0.07873321,-2.1624048,-3.8076782,-2.2427144
0.28168812,-0.1025499,-0.07628165,-2.0950727,-3.6891162,-2.1728818
0.27291724,-0.099356815,-0.07390648,-2.0298386,-3.5742486,-2.1052248
0.26441962,-0.09626321,-0.0716053,-1.966637,-3.4629598,-2.039676
0.25618672,-0.09326599,-0.06937582,-1.9054044,-3.355138,-1.9761692
0.2482103,-0.09036213,-0.06721579,-1.8460793,-3.2506752,-1.9146409
0.24048236,-0.08754874,-0.06512306,-1.7886024,-3.1494668,-1.8550292
0.23299514,-0.08482299,-0.0630955,-1.7329156,-3.0514107,-1.7972745
0.22574115,-0.08218213,-0.06113111,-1.6789637,-2.956409,-1.7413187
0.21871307,-0.079623535,-0.0592279,-1.6266919,-2.8643663,-1.6871058
0.21190391,-0.07714462,-0.057383962,-1.5760484,-2.7751904,-1.6345813
0.20530681,-0.07474292,-0.055597458,-1.5269821,-2.6887918,-1.5836927
0.19891518,-0.072416015,-0.053866588,-1.4794439,-2.605084,-1.534389
0.19272259,-0.07016157,-0.052189626,-1.4333861,-2.523983,-1.4866207
0.18672284,-0.06797734,-0.050564885,-1.3887626,-2.4454076,-1.4403399
0.18090993,-0.06586112,-0.048990738,-1.3455287,-2.3692791,-1.3955004
0.17527804,-0.0638108,-0.04746561,-1.3036412,-2.2955213,-1.3520572
0.16982152,-0.06182433,-0.045987975,-1.263058,-2.22406,-1.3099667
0.1645349,-0.05989971,-0.04455635,-1.2237384,-2.1548243,-1.2691869
0.15941289,-0.05803502,-0.0431693,-1.1856432,-2.087744,-1.2296768
0.15445037,-0.05622839,-0.04182544,-1.1487341,-2.0227525,-1.1913971
0.14964236,-0.054478012,-0.04052342,-1.1129743,-1.9597847,-1.154309
0.14498405,-0.052782133,-0.039261945,-1.0783279,-1.8987774,-1.1183759
0.14047079,-0.051139057,-0.038039744,-1.0447601,-1.8396695,-1.0835615
0.13609804,-0.049547136,-0.036855593,-1.0122375,-1.7824019,-1.049831
0.13186142,-0.048004776,-0.035708312,-0.98072743,-1.7269174,-1.0171508
0.12775671,-0.04651044,-0.03459675,-0.9501984,-1.6731602,-0.9854879
0.123779796,-0.045062624,-0.033519793,-0.92061985,-1.6210767,-0.9548108
0.1199267,-0.04365988,-0.032476366,-0.8919622,-1.5706147,-0.92508876
0.11619355,-0.042300813,-0.031465422,-0.86419666,-1.5217237,-0.8962921
0.11257662,-0.040984053,-0.030485952,-0.83729553,-1.4743547,-0.8683919
0.1090723,-0.039708287,-0.029536976,-0.8112319,-1.4284606,-0.8413603
0.10567707,-0.038472235,-0.02861754,-0.7859797,-1.383995,-0.81517017
0.10238753,-0.037274666,-0.027726728,-0.7615136,-1.3409139,-0.78979546
0.099200405,-0.03611438,-0.02686365,-0.7378091,-1.2991738,-0.7652106
0.0961125,-0.03499021,-0.026027437,-0.7148426,-1.2587332,-0.7413912
0.09312072,-0.03390104,-0.025217257,-0.692591,-1.2195513,-0.7183132
0.09022207,-0.032845773,-0.0244323,-0.6710322,-1.1815894,-0.69595367
0.087413654,-0.031823356,-0.023671776,-0.65014446,-1.1448091,-0.6742902
0.08469267,-0.030832767,-0.022934927,-0.62990695,-1.1091738,-0.65330106
0.08205639,-0.029873015,-0.022221018,-0.6102994,-1.0746479,-0.6329653
0.079502165,-0.02894314,-0.02152933,-0.5913023,-1.0411967,-0.61326265
0.07702746,-0.028042212,-0.020859174,-0.5728965,-1.0087868,-0.5941733
0.07462979,-0.027169328,-0.02020988,-0.55506366,-0.97738576,-0.57567817
0.07230675,-0.026323617,-0.0195808,-0.53778595,-0.94696224,-0.55775875
