ax,ay,az,gx,gy,gz
-4.476404,4.2109475,-3.889126,-11.541014,110.47465,6.2700567
-4.9107494,4.468741,-4.450344,-10.433221,106.635445,-3.115417
-5.250478,4.512129,-4.8877997,-13.215608,94.91698,-18.40103
-5.7468305,4.4888406,-5.5221453,-20.693598,78.688194,-33.33576
-6.219811,4.2404613,-6.175403,-28.785864,58.29718,-47.363407
-6.4884324,3.8016713,-6.6666756,-34.54709,38.326656,-59.14076
-6.5287623,3.2597828,-6.9800086,-38.36246,20.015797,-65.79659
-6.57843,2.6944404,-7.328981,-41.457043,-1.2067227,-67.06976
-6.617281,2.017141,-7.6637855,-41.338768,-22.267488,-68.46364
-6.537386,1.4178222,-7.854611,-38.607338,-41.779625,-71.07686
-6.284667,0.8405581,-7.936543,-34.23195,-59.78384,-74.08556
-5.795604,0.18970898,-7.878601,-28.138252,-75.80352,-76.00053
-5.1104536,-0.44542614,-7.6797404,-19.986511,-88.87774,-73.323166
-4.3740287,-0.93577105,-7.335625,-11.851188,-99.59901,-68.58837
-3.659512,-1.2518647,-6.933397,-2.8193903,-107.659935,-63.69208
-2.9719596,-1.4046704,-6.474044,5.9153337,-113.862656,-59.65982
-2.2243698,-1.4534584,-5.9127426,13.207487,-117.77625,-55.746258
-1.4591942,-1.4892223,-5.3140063,19.400507,-118.610664,-51.12038
-0.74436456,-1.5689563,-4.7335315,25.466589,-117.060356,-45.992275
-0.1091616,-1.660002,-4.2198777,31.59122,-113.60125,-40.116962
0.49348375,-1.6844512,-3.7303596,36.361256,-108.56934,-32.93347
1.0422424,-1.5858803,-3.2963996,40.140766,-102.5298,-25.206364
1.4956709,-1.390112,-2.9079456,43.48396,-94.77268,-19.656544
1.8474914,-1.1707771,-2.5668178,46.73116,-85.95595,-16.517912
2.1524255,-1.005326,-2.2771738,49.606876,-76.25522,-14.543749
2.4358141,-0.8816285,-2.0446613,52.027184,-66.049,-12.154336
2.678834,-0.74539316,-1.866189,53.91683,-55.627296,-8.779132
2.8264673,-0.5624601,-1.7623802,54.87194,-46.038445,-5.2720904
2.8823872,-0.35276222,-1.7058641,55.3003,-36.767284,-2.700526
2.924322,-0.15774657,-1.655478,55.37233,-27.394981,-0.83233434
2.9734266,0.027326196,-1.6184332,54.93953,-17.549746,0.8300328
3.007222,0.22502123,-1.628303,54.544334,-7.3761406,2.306191
2.9755566,0.44009143,-1.7106135,53.84412,2.0985975,3.3766162
2.876039,0.65921503,-1.8517354,52.448772,10.125737,3.8905025
2.7569299,0.8605282,-2.0022707,50.558865,16.964312,3.94326
2.659934,1.0486441,-2.1356528,48.21983,23.092876,3.8155656
2.5754414,1.2368616,-2.2733393,45.618076,28.951035,3.537361
2.454528,1.4204355,-2.4630618,42.998592,33.587494,2.5566442
2.2817876,1.598166,-2.690139,39.923298,36.771538,0.98934686
2.095822,1.7510779,-2.9175727,36.63785,38.705482,-0.9460907
1.8792462,1.9002423,-3.163135,33.346836,38.89739,-3.2674854
1.6357089,2.05369,-3.3950365,29.600004,37.379494,-6.007442
1.4158878,2.1996388,-3.593175,25.307034,34.259697,-9.205685
1.225361,2.3021474,-3.7822185,21.030352,30.388426,-12.75376
1.0421184,2.362274,-3.9608555,16.809998,25.996458,-16.475277
0.8723958,2.4160225,-4.124185,12.626561,20.959305,-20.053501
0.734767,2.4725244,-4.257652,8.445037,15.449477,-23.688463
0.6460465,2.503443,-4.3500967,4.487785,9.89551,-27.531656
0.5987219,2.500496,-4.37488,0.3830332,4.597123,-31.019182
0.5635045,2.476712,-4.3646107,-3.940439,-0.44451788,-33.988262
0.5304685,2.4264343,-4.341993,-8.542209,-5.4832563,-36.637905
0.51826984,2.3380852,-4.297121,-13.227091,-10.420353,-39.25321
0.5449197,2.1718817,-4.214167,-17.921497,-15.2126,-41.412273
0.62914354,1.9016261,-4.0690694,-22.293262,-19.495815,-42.81412
0.7311388,1.586727,-3.9152555,-26.007061,-23.28006,-43.76147
0.8543615,1.2384394,-3.7490852,-28.73819,-26.365028,-44.555103
0.98897386,0.8790761,-3.5696383,-30.552849,-28.8197,-44.93043
1.1221637,0.55245936,-3.3715708,-31.805891,-30.703625,-44.35607
1.2402586,0.28664514,-3.1584163,-32.768764,-32.270794,-43.391537
1.3388805,0.057376727,-2.9409792,-33.409153,-33.495995,-42.21274
1.4435099,-0.14873561,-2.7102258,-33.743454,-34.073334,-40.95458
1.5502108,-0.31397164,-2.4805846,-33.69235,-33.69515,-39.663357
1.6259903,-0.42970398,-2.2952533,-33.151848,-32.90994,-38.48803
1.6355993,-0.5023913,-2.1680107,-32.332825,-32.391975,-37.47138
1.6473236,-0.56399244,-2.0322027,-31.479088,-31.885908,-36.42091
1.6618907,-0.6139544,-1.8927464,-30.650574,-31.085495,-35.177006
1.6638491,-0.6439528,-1.7646266,-29.949953,-29.909317,-33.75039
1.6583835,-0.6512162,-1.6480002,-29.501444,-28.269108,-32.204037
1.6161184,-0.6253722,-1.5808364,-28.876995,-26.69572,-30.900682
1.5555934,-0.59825647,-1.5394205,-28.331825,-25.389069,-30.07495
1.5152017,-0.5932176,-1.4969647,-27.69599,-24.08125,-29.502153
1.4901403,-0.6047843,-1.4540735,-27.05019,-22.60335,-28.709675
1.4630177,-0.6180962,-1.4153311,-26.493565,-20.955294,-27.445295
1.4258784,-0.6189811,-1.3789431,-26.046265,-19.206656,-26.038645
1.380708,-0.59937245,-1.3352594,-25.221144,-18.598207,-25.213766
1.3370156,-0.58040535,-1.2930053,-24.423025,-18.00967,-24.41588
1.2947488,-0.5620571,-1.2521297,-23.650942,-17.440332,-23.644024
1.2538569,-0.5443057,-1.2125839,-22.903976,-16.889517,-22.897276
1.2142917,-0.52713025,-1.174321,-22.181248,-16.356573,-22.174759
1.1760072,-0.51051074,-1.1372967,-21.48191,-15.840877,-21.475626
1.1389587,-0.4944278,-1.1014678,-20.805153,-15.341832,-20.799067
1.1031039,-0.47886303,-1.0667932,-20.1502,-14.858866,-20.144304
1.0684018,-0.4637987,-1.0332334,-19.516304,-14.391428,-19.510593
1.0348133,-0.44921774,-1.0007504,-18.902748,-13.938988,-18.897217
1.0023005,-0.43510377,-0.96930796,-18.308842,-13.5010395,-18.303486
0.9708273,-0.4214411,-0.9388707,-17.733927,-13.077094,-17.728739
0.94035876,-0.40821454,-0.9094051,-17.177364,-12.666681,-17.172338
0.9108613,-0.39540955,-0.8808787,-16.63854,-12.269349,-16.633673
0.8823027,-0.38301212,-0.8532601,-16.116865,-11.884664,-16.11215
0.8546518,-0.37100872,-0.82651937,-15.611771,-11.512204,-15.6072035
0.82787865,-0.35938635,-0.8006275,-15.12271,-11.151568,-15.118286
0.8019544,-0.3481325,-0.77555656,-14.649156,-10.802367,-14.644871
0.7768511,-0.33723503,-0.75127965,-14.190599,-10.464225,-14.186448
0.752542,-0.32668236,-0.72777075,-13.74655,-10.13678,-13.742529
0.7290013,-0.3164632,-0.7050049,-13.316535,-9.819685,-13.312639
0.7062039,-0.30656672,-0.6829579,-12.900099,-9.512603,-12.896325
0.68412566,-0.29698247,-0.66160643,-12.4968,-9.215208,-12.493144
0.66274345,-0.28770033,-0.64092803,-12.106215,-8.927188,-12.102674
0.6420347,-0.27871054,-0.620901,-11.727932,-8.648241,-11.724502
0.6219778,-0.27000377,-0.60150427,-11.361557,-8.378074,-11.3582325
0.6025518,-0.2615708,-0.5827177,-11.006705,-8.116404,-11.003485
0.5837364,-0.25340298,-0.5645217,-10.663008,-7.86296,-10.659888
0.5655121,-0.24549171,-0.5468973,-10.330109,-7.617478,-10.327086
0.5478601,-0.23782887,-0.5298262,-10.007661,-7.3797035,-10.004733
0.53076196,-0.23040648,-0.51329094,-9.695333,-7.1493907,-9.692496
0.5142001,-0.22321689,-0.49727425,-9.3928,-6.9263015,-9.390053
0.49815747,-0.21625271,-0.4817597,-9.099752,-6.710207,-9.097091
0.4826176,-0.20950677,-0.46673134,-8.815888,-6.500884,-8.81331
0.4675645,-0.20297213,-0.45217374,-8.540916,-6.2981176,-8.538418
0.45298272,-0.19664212,-0.43807197,-8.274553,-6.101701,-8.272133
0.43885738,-0.19051023,-0.42441157,-8.016528,-5.9114313,-8.014183
0.42517403,-0.18457022,-0.41117862,-7.7665772,-5.727116,-7.764305
0.41191867,-0.178816,-0.39835963,-7.524444,-5.548566,-7.522243
0.39907783,-0.17324173,-0.38594145,-7.2898827,-5.375599,-7.2877502
0.38663843,-0.16784172,-0.3739115,-7.0626545,-5.2080393,-7.0605884
0.3745878,-0.16261047,-0.36225754,-6.842528,-5.045717,-6.840526
0.3629137,-0.15754269,-0.3509677,-6.629279,-4.888466,-6.6273394
0.35160428,-0.15263322,-0.34003058,-6.422692,-4.736128,-6.420813
0.34064806,-0.14787707,-0.329435,-6.2225566,-4.5885468,-6.2207365
0.33003396,-0.14326943,-0.3191703,-6.028671,-4.4455743,-6.0269074
0.31975123,-0.13880564,-0.30922604,-5.840838,-4.3070655,-5.8391294
0.30978945,-0.13448119,-0.29959217,-5.6588683,-4.17288,-5.6572127
0.30013856,-0.13029169,-0.29025897,-5.4825773,-4.042882,-5.4809732
0.29078883,-0.12623292,-0.28121698,-5.311787,-3.9169405,-5.310233
0.28173077,-0.122300774,-0.2724571,-5.1463256,-3.794928,-5.1448197
0.2729553,-0.11849129,-0.26397046,-4.986025,-3.6767218,-4.984566
0.2644535,-0.114800625,-0.25574854,-4.8307247,-3.5622025,-4.8293114
0.25621685,-0.11122505,-0.24778302,-4.6802673,-3.4512544,-4.678898
0.24823706,-0.10776098,-0.24006587,-4.5345016,-3.343766,-4.533175
0.24050605,-0.10440491,-0.23258935,-4.3932805,-3.239629,-4.3919954
0.23301607,-0.10115347,-0.22534592,-4.2564626,-3.1387384,-4.2552176
0.22575958,-0.09800339,-0.21832828,-4.1239095,-3.0409932,-4.122703
0.21872926,-0.094951496,-0.21152939,-3.995488,-2.9462945,-3.9943192
0.21191807,-0.09199472,-0.20494239,-3.8710692,-2.8545473,-3.8699367
0.20531914,-0.08913009,-0.19856068,-3.7505276,-2.7656593,-3.7494304
0.19892585,-0.08635473,-0.19237784,-3.6337426,-2.6795416,-3.6326797
0.19273178,-0.083665855,-0.18638766,-3.5205967,-2.596107,-3.5195668
0.18673071,-0.08106076,-0.18058412,-3.4109762,-2.5152724,-3.4099784
0.1809166,-0.07853682,-0.1749614,-3.304771,-2.436956,-3.3038042
0.17528364,-0.07609153,-0.16951385,-3.2018747,-2.3610797,-3.200938
0.16982615,-0.07372241,-0.16423601,-3.1021838,-2.2875671,-3.1012762
0.16453868,-0.071427085,-0.15912259,-3.0055983,-2.2163446,-3.004719
0.1594159,-0.069203265,-0.15416844,-2.9120216,-2.1473405,-2.9111698
0.1544527,-0.067048706,-0.1493686,-2.8213596,-2.0804858,-2.8205342
0.14964408,-0.06496126,-0.14471827,-2.7335215,-2.0157135,-2.7327218
0.14498523,-0.06293883,-0.14021277,-2.6484191,-1.9529586,-2.6476443
0.14047147,-0.06097939,-0.1358476,-2.5659673,-1.892158,-2.5652165
0.1360983,-0.05908097,-0.13161838,-2.486083,-1.8332511,-2.4853559
0.13186131,-0.05724167,-0.12752086,-2.4086869,-1.7761787,-2.407982
0.12775627,-0.055459652,-0.123550944,-2.333701,-1.7208836,-2.333018
0.123779066,-0.05373313,-0.11970466,-2.26105,-1.6673105,-2.2603884
0.11992571,-0.052060366,-0.11597814,-2.1906614,-1.6154056,-2.1900206
0.11619234,-0.05043969,-0.11236766,-2.1224647,-1.5651169,-2.1218436
0.112575226,-0.048869483,-0.108869605,-2.0563912,-1.516394,-2.0557897
0.10907073,-0.047348164,-0.10548047,-1.9923755,-1.4691885,-1.9917926
0.10567536,-0.045874216,-0.102196865,-1.9303528,-1.4234526,-1.9297881
0.10238571,-0.044446163,-0.0990155,-1.8702613,-1.3791409,-1.8697141
0.09919848,-0.04306257,-0.095933184,-1.8120408,-1.3362087,-1.8115107
0.09611049,-0.041722056,-0.09294684,-1.755633,-1.2946132,-1.7551194
0.093118645,-0.04042328,-0.09005347,-1.7009815,-1.2543129,-1.7004839
0.090219945,-0.039164938,-0.08725019,-1.6480315,-1.2152673,-1.6475493
0.08741149,-0.037945777,-0.08453418,-1.5967299,-1.1774373,-1.5962628
0.084690474,-0.03676457,-0.08190273,-1.5470256,-1.140785,-1.546573
0.08205417,-0.035620134,-0.079353206,-1.4988687,-1.1052738,-1.4984303
0.07949994,-0.03451133,-0.076883055,-1.452211,-1.0708683,-1.4517863
0.07702523,-0.033437047,-0.0744898,-1.407006,-1.0375338,-1.4065944
0.07462756,-0.032396205,-0.072171055,-1.3632082,-1.0052371,-1.3628094
0.07230453,-0.03138777,-0.069924496,-1.3207738,-0.9739458,-1.3203875
0.07005382,-0.030410726,-0.067747876,-1.2796606,-0.94362867,-1.2792863
0.06787319,-0.029464098,-0.06563902,-1.2398273,-0.9142553,-1.2394645
0.065760426,-0.028546939,-0.0635958,-1.2012339,-0.88579637,-1.2008826
0.063713446,-0.027658332,-0.0616162,-1.163842,-0.8582234,-1.1635015
0.061730184,-0.026797388,-0.05969822,-1.1276141,-0.83150876,-1.1272843
0.05980866,-0.025963245,-0.05783995,-1.092514,-0.80562574,-1.0921944
0.057946954,-0.02515507,-0.056039523,-1.0585065,-0.78054845,-1.0581969
0.056143202,-0.02437205,-0.054295145,-1.0255578,-0.7562518,-1.0252577
0.054395597,-0.023613408,-0.052605066,-0.9936346,-0.7327115,-0.9933439
0.052702397,-0.02287838,-0.0509676,-0.9627052,-0.709904,-0.96242356
0.051061902,-0.022166234,-0.049381107,-0.9327386,-0.6878065,-0.93246573
0.049472477,-0.021476256,-0.047844,-0.9037048,-0.6663968,-0.9034404
