ax,ay,az,gx,gy,gz
-2.5754778,2.6882062,-6.2209654,-13.428304,-54.765953,-84.33986
-2.721049,2.731943,-6.496856,-12.032111,-71.91545,-89.318054
-2.77274,2.5603602,-6.5977306,-11.398347,-81.59509,-88.85688
-2.9292355,2.4219558,-6.9481163,-14.943321,-92.54972,-86.78241
-3.1933844,2.2065043,-7.3946013,-23.327065,-109.79093,-86.1099
-3.2881465,1.6187662,-7.7284603,-30.830036,-126.1761,-86.66729
-3.1214201,0.8536387,-7.792622,-31.970137,-137.61182,-86.02298
-2.8278122,0.18112141,-7.770678,-28.251673,-147.17148,-83.18205
-2.4421024,-0.36426714,-7.6835847,-23.380547,-156.41953,-78.79825
-1.9622816,-0.856071,-7.4745884,-18.001827,-163.9257,-73.89856
-1.3449595,-1.3712238,-7.1326795,-12.400197,-169.25577,-68.497215
-0.71621716,-1.8397053,-6.716501,-5.8947544,-172.75739,-62.254192
-0.10332758,-2.2066507,-6.2401924,1.4181665,-174.55084,-55.4531
0.4795638,-2.400966,-5.6905684,9.037087,-175.03725,-48.403362
1.0153215,-2.4274082,-5.0684123,16.104605,-173.68321,-41.90498
1.4758977,-2.4023607,-4.4111714,22.740314,-170.9449,-35.712566
1.9041263,-2.2821686,-3.7419007,28.089605,-167.44933,-29.262367
2.318392,-2.0996208,-3.06872,31.528542,-163.22649,-22.640463
2.7160003,-1.9046026,-2.4146721,33.92655,-157.93976,-16.103569
3.0901031,-1.6838228,-1.8010412,35.200512,-150.8041,-10.264666
3.43212,-1.4655612,-1.2296222,37.15939,-141.85776,-5.9971666
3.7300398,-1.2603933,-0.7245532,39.709724,-130.95818,-3.1805353
3.960476,-1.0737424,-0.33428308,41.50466,-118.970375,-0.47272465
4.0893207,-0.90384775,-0.08033449,42.4417,-107.22804,2.6620162
4.123658,-0.7299592,0.072207406,43.186813,-96.41523,5.9079914
4.1031833,-0.53022313,0.18748096,43.357025,-86.416595,8.815498
4.095115,-0.357444,0.31736258,43.66109,-76.17983,11.436145
4.090534,-0.19369355,0.41582277,44.08452,-65.09041,13.535336
4.0623474,-0.022786131,0.4288357,44.449116,-53.934254,15.27859
3.989657,0.16982487,0.35198876,43.78389,-44.1749,16.349329
3.9052677,0.36791968,0.26845533,42.21071,-35.06292,17.20151
3.8314466,0.5647768,0.17127126,39.785404,-26.257883,17.653912
3.754149,0.73923576,0.042994175,37.17456,-17.905895,17.748604
3.653544,0.8997989,-0.13180298,34.83668,-10.329126,17.417189
3.517988,1.0499434,-0.34167588,32.82247,-4.066212,16.733683
3.3731418,1.2124529,-0.56047165,30.629791,1.2008789,15.924262
3.2321725,1.3651247,-0.7906785,28.293966,5.525454,14.79794
3.0849223,1.4875864,-1.035287,26.045921,9.041497,13.264104
2.9109848,1.5834591,-1.302931,24.1474,11.5988865,11.391331
2.7147737,1.666593,-1.5812719,22.512312,12.355399,9.432638
2.5137317,1.7594028,-1.8410738,20.548143,11.667188,7.614983
2.3236609,1.8361882,-2.0601356,18.208414,10.219641,6.1507993
2.1391168,1.8991936,-2.2645648,16.052507,8.195868,4.849029
1.9657938,1.9621798,-2.4498205,14.360461,5.805736,3.4121811
1.809907,2.054296,-2.610796,12.975529,3.0240464,1.2056111
1.6728566,2.158987,-2.7631814,11.481125,-0.19463012,-1.4790139
1.5412867,2.2418604,-2.9206715,9.618606,-4.0368214,-4.3246474
1.4237725,2.2980793,-3.071113,7.3900137,-8.426333,-7.1887007
1.3248042,2.325625,-3.1949742,5.1840386,-13.387225,-10.004702
1.2787685,2.3462176,-3.2268114,3.075481,-18.214375,-12.682627
1.2851845,2.402164,-3.1784866,1.166399,-22.421165,-16.324648
1.2899106,2.422866,-3.108259,-0.5483863,-26.193707,-20.830294
1.2995682,2.3930714,-3.019454,-2.5344296,-29.828949,-24.905691
1.3301842,2.312673,-2.9113684,-5.36547,-33.518383,-28.011772
1.3855013,2.1641064,-2.7757647,-8.857573,-36.850216,-29.971148
1.4706943,1.9480428,-2.5920868,-11.862594,-39.398743,-31.534122
1.5601798,1.7172005,-2.3883717,-14.30245,-41.05755,-33.106335
1.6422044,1.4736916,-2.1877897,-16.354082,-42.31237,-34.871765
1.7270732,1.1999638,-1.9909301,-18.06704,-43.04167,-36.436382
1.8086005,0.9086989,-1.8138666,-19.387117,-43.63174,-37.118347
1.8858564,0.627542,-1.6346337,-20.444542,-43.911552,-37.07445
1.9537338,0.38318223,-1.4543856,-21.10903,-43.705032,-36.535763
2.0056455,0.18584146,-1.2862862,-21.55906,-43.024376,-35.739643
2.0338702,0.024336947,-1.1505302,-21.710154,-42.203888,-34.784077
2.0431085,-0.111481555,-1.0377744,-21.66755,-41.38409,-33.645298
2.0345,-0.2185178,-0.941615,-21.324574,-40.488403,-32.463062
2.010704,-0.29955062,-0.85516185,-20.760479,-39.447086,-31.291641
1.9789788,-0.35580477,-0.7731643,-19.992846,-38.235912,-30.015285
1.9452858,-0.381744,-0.68993086,-19.317284,-36.761345,-28.692152
1.9061514,-0.394762,-0.62032396,-18.728546,-34.94493,-27.428885
1.8407477,-0.40107384,-0.5899067,-17.970934,-33.323143,-26.273773
1.7607579,-0.406127,-0.577096,-17.026924,-32.02104,-25.238483
1.6832854,-0.41009223,-0.5631846,-16.0676,-30.96547,-24.134724
1.6168326,-0.409233,-0.5397094,-15.118593,-29.884657,-22.8834
1.5574397,-0.3979479,-0.51352,-14.214265,-28.60151,-21.545551
1.5008764,-0.3753551,-0.48894715,-13.470886,-27.06871,-20.25148
1.4445145,-0.34486905,-0.46865335,-12.9620495,-25.319641,-19.134676
1.3911864,-0.3114585,-0.45173585,-12.8341055,-23.41928,-18.254692
1.3463727,-0.28638956,-0.4273524,-12.997272,-21.368717,-17.412886
1.3143282,-0.27282012,-0.40451476,-13.209039,-18.913048,-16.5964
1.2845155,-0.26920286,-0.39057398,-13.331303,-16.580898,-15.7062845
1.2440785,-0.26072827,-0.37827855,-12.911629,-16.058926,-15.211845
1.2049416,-0.25252613,-0.36637846,-12.505447,-15.553735,-14.733303
1.1670605,-0.24458717,-0.35486022,-12.1123,-15.0647545,-14.270115
1.1303927,-0.2369025,-0.34371087,-11.731744,-14.591436,-13.821763
1.0948973,-0.22946353,-0.33291802,-11.363356,-14.13325,-13.387746
1.0605348,-0.22226202,-0.32246968,-11.006727,-13.689692,-12.967584
1.0272677,-0.21529005,-0.31235436,-10.661465,-13.260269,-12.560813
0.9950594,-0.20853998,-0.30256099,-10.327192,-12.844515,-12.166989
0.96387476,-0.20200445,-0.2930789,-10.003543,-12.441975,-11.785682
0.93368,-0.19567637,-0.2838978,-9.690168,-12.052213,-11.416479
0.90444267,-0.18954894,-0.27500778,-9.386729,-11.674808,-11.058982
0.87613124,-0.18361557,-0.26639932,-9.0929,-11.309356,-10.712807
0.84871554,-0.1778699,-0.2580632,-8.808367,-10.955466,-10.377584
0.8221663,-0.17230584,-0.24999057,-8.532826,-10.612761,-10.052957
0.7964554,-0.16691746,-0.24217282,-8.265986,-10.280877,-9.738579
0.77155566,-0.16169909,-0.23460172,-8.0075655,-9.959464,-9.434119
0.7474408,-0.15664521,-0.22726929,-7.7572904,-9.648183,-9.139257
0.72408557,-0.15175052,-0.22016782,-7.514899,-9.346706,-8.853683
0.7014654,-0.14700991,-0.21328986,-7.2801366,-9.054719,-8.577098
0.6795568,-0.1424184,-0.20662825,-7.0527587,-8.771916,-8.309213
0.6583369,-0.13797122,-0.20017605,-6.832528,-8.498003,-8.049748
0.6377835,-0.13366374,-0.19392654,-6.619216,-8.232695,-7.7984347
0.6178756,-0.12949152,-0.18787326,-6.412602,-7.975717,-7.5550117
0.59859234,-0.12545022,-0.18200994,-6.212471,-7.7268033,-7.3192277
0.5799139,-0.121535696,-0.1763305,-6.018618,-7.485697,-7.0908394
0.56182104,-0.11774388,-0.17082915,-5.830842,-7.252149,-6.869611
0.5442952,-0.11407089,-0.16550018,-5.6489506,-7.0259204,-6.6553154
0.52731836,-0.11051296,-0.16033813,-5.472757,-6.806778,-6.4477324
0.5108731,-0.10706643,-0.15533772,-5.3020797,-6.5944977,-6.2466493
0.49494252,-0.10372778,-0.15049383,-5.136745,-6.3888617,-6.0518603
0.47951046,-0.1004936,-0.14580151,-4.976584,-6.18966,-5.8631663
0.4645611,-0.09736059,-0.14125596,-4.8214326,-5.9966893,-5.6803746
0.45007923,-0.09432554,-0.13685256,-4.671133,-5.8097534,-5.5032988
0.4360501,-0.09138538,-0.1325868,-4.525532,-5.628661,-5.331759
0.42245942,-0.088537104,-0.12845439,-4.3844814,-5.4532285,-5.1655803
0.40929338,-0.08577783,-0.12445108,-4.2478385,-5.2832775,-5.004594
0.39653865,-0.083104745,-0.12057283,-4.1154637,-5.1186357,-4.8486366
0.38418224,-0.08051515,-0.11681571,-3.9872231,-4.959136,-4.69755
0.3722117,-0.07800642,-0.1131759,-3.862987,-4.8046165,-4.5511813
0.36061484,-0.075576,-0.109649725,-3.7426295,-4.654921,-4.409382
0.34938,-0.07322145,-0.10623361,-3.6260288,-4.509898,-4.272009
0.33849573,-0.07094038,-0.10292411,-3.513067,-4.369401,-4.1389227
0.3279511,-0.06873049,-0.09971788,-3.40363,-4.233288,-4.0099893
0.31773543,-0.066589534,-0.09661167,-3.2976072,-4.1014214,-3.8850784
0.30783847,-0.064515375,-0.09360237,-3.1948917,-3.973668,-3.764064
0.29825017,-0.0625059,-0.09068692,-3.0953798,-3.8498998,-3.6468241
0.2889609,-0.060559098,-0.087862395,-2.9989715,-3.7299912,-3.5332406
0.2799613,-0.058673,-0.08512594,-2.9055693,-3.6138215,-3.4231987
0.2712423,-0.056845713,-0.08247481,-2.8150792,-3.501274,-3.316588
0.2627951,-0.05507539,-0.07990633,-2.7274106,-3.3922353,-3.2133007
0.25461122,-0.053360254,-0.07741792,-2.6424744,-3.2865956,-3.1132333
0.24668245,-0.051698577,-0.07500707,-2.560186,-3.1842487,-3.016285
0.2390008,-0.05008869,-0.07267136,-2.480462,-3.0850916,-2.9223583
0.23155855,-0.048528977,-0.07040844,-2.403223,-2.9890249,-2.831359
0.2243482,-0.04701787,-0.06821605,-2.3283906,-2.8959517,-2.7431953
0.21736254,-0.045553844,-0.06609196,-2.2558901,-2.8057787,-2.6577787
0.21059455,-0.044135436,-0.06403406,-2.1856487,-2.7184155,-2.5750237
0.20403741,-0.042761225,-0.06204028,-2.1175957,-2.633774,-2.494847
0.19768456,-0.04142982,-0.060108613,-2.051663,-2.5517697,-2.4171681
0.19152962,-0.0401399,-0.05823712,-1.987784,-2.4723198,-2.3419094
0.18556641,-0.038890157,-0.05642393,-1.9258951,-2.3953452,-2.2689948
0.17978896,-0.037679344,-0.054667216,-1.865934,-2.320768,-2.1983516
0.17419147,-0.036506247,-0.052965224,-1.8078406,-2.248514,-2.1299088
0.16876832,-0.03536969,-0.051316243,-1.7515566,-2.1785104,-2.0635977
0.16351408,-0.03426853,-0.049718622,-1.6970255,-2.110687,-1.999352
0.15842347,-0.033201665,-0.048170757,-1.6441929,-2.0449762,-1.9371072
0.15349141,-0.032168027,-0.0466711,-1.5930057,-1.9813117,-1.8768009
0.14871295,-0.031166576,-0.045218144,-1.5434126,-1.9196298,-1.8183727
0.14408329,-0.030196315,-0.043810435,-1.4953638,-1.8598689,-1.761764
0.1395978,-0.029256267,-0.04244656,-1.4488113,-1.8019689,-1.7069181
0.135252,-0.028345492,-0.04112516,-1.4037085,-1.7458719,-1.6537802
0.13104151,-0.027463077,-0.039844908,-1.3600101,-1.6915218,-1.602297
0.12696213,-0.02660814,-0.038604517,-1.3176724,-1.6388639,-1.5524167
0.12300977,-0.025779823,-0.037402753,-1.2766529,-1.5878458,-1.5040897
0.11918048,-0.024977297,-0.036238406,-1.2369108,-1.5384161,-1.4572674
0.11547042,-0.02419976,-0.03511031,-1.198406,-1.4905256,-1.4119029
0.11187587,-0.02344643,-0.03401734,-1.1611001,-1.4441261,-1.3679509
0.10839324,-0.022716556,-0.0329584,-1.1249558,-1.3991714,-1.3253675
0.10501903,-0.022009406,-0.03193243,-1.0899366,-1.3556161,-1.2841097
0.10174988,-0.021324273,-0.030938402,-1.0560079,-1.313417,-1.2441366
0.09858251,-0.020660471,-0.029975321,-1.0231355,-1.2725317,-1.2054079
0.09551376,-0.020017335,-0.029042223,-0.99128646,-1.2329193,-1.167885
0.09254054,-0.01939422,-0.028138177,-0.960429,-1.1945401,-1.1315302
0.089659885,-0.018790508,-0.027262276,-0.9305322,-1.1573558,-1.0963073
0.08686891,-0.018205587,-0.026413644,-0.9015662,-1.1213291,-1.0621809
0.08416482,-0.017638877,-0.02559143,-0.8735019,-1.086424,-1.029117
0.08154492,-0.01708981,-0.024794813,-0.84631133,-1.0526055,-0.99708235
0.079006575,-0.016557835,-0.024022996,-0.8199672,-1.0198398,-0.966045
0.07654725,-0.016042423,-0.023275208,-0.7944432,-0.98809415,-0.9359739
0.07416449,-0.015543053,-0.022550697,-0.7697138,-0.9573367,-0.9068389
0.0718559,-0.015059231,-0.02184874,-0.7457542,-0.92753685,-0.8786109
0.069619186,-0.014590469,-0.021168636,-0.7225405,-0.89866465,-0.8512616
0.067452095,-0.0141363,-0.020509703,-0.7000494,-0.8706912,-0.8247637
0.06535246,-0.01369627,-0.019871283,-0.6782585,-0.8435886,-0.79909074
0.0633182,-0.013269937,-0.019252736,-0.65714586,-0.81732965,-0.7742169
0.061347254,-0.012856876,-0.018653445,-0.6366905,-0.7918881,-0.7501174
0.059437666,-0.012456673,-0.01807281,-0.6168719,-0.7672386,-0.7267681
0.05758752,-0.012068928,-0.017510248,-0.5976702,-0.7433564,-0.7041456
0.055794965,-0.011693253,-0.0169652,-0.5790663,-0.7202176,-0.6822274
