ax,ay,az,gx,gy,gz
-3.940945,2.6882062,-5.920963,22.361113,68.41516,-35.567596
-4.3912325,3.1240752,-6.6494985,23.77569,51.870247,-43.775883
-4.6034775,3.4365523,-6.985753,16.486782,36.231846,-50.142612
-4.787456,3.3708086,-7.2915783,10.358811,22.012722,-57.755
-4.954091,3.009773,-7.5335608,8.339007,7.5777345,-64.53194
-5.0907707,2.5171473,-7.8207583,5.868077,-5.686072,-66.5491
-5.208268,2.0178661,-8.143499,1.005919,-18.873632,-65.901535
-5.3415656,1.4449732,-8.499573,-2.5183647,-32.94635,-65.48941
-5.3935547,0.83709294,-8.744708,-3.5733223,-47.625336,-66.48455
-5.2949896,0.24042758,-8.881448,-1.2445283,-64.30559,-67.440346
-4.941291,-0.36133114,-8.787292,1.4619032,-80.16317,-66.00033
-4.3939347,-0.9176797,-8.48866,3.6285775,-93.23345,-60.771667
-3.7647135,-1.3792235,-8.0690155,6.503459,-103.34946,-53.619728
-3.103417,-1.6816007,-7.5591936,10.8997,-110.52377,-47.601143
-2.4638803,-1.9219921,-7.017727,18.40937,-114.67981,-43.726837
-1.7797822,-2.0424771,-6.3933125,25.323729,-117.52616,-39.32344
-1.055983,-2.0361521,-5.6779995,30.644573,-118.793015,-33.338284
-0.33760282,-1.893765,-4.8990154,34.420982,-118.1032,-26.709772
0.30877164,-1.6939756,-4.136162,36.66517,-114.948105,-20.482494
0.8352953,-1.4996176,-3.467387,38.42304,-109.32892,-15.40374
1.2519397,-1.2835164,-2.9020753,40.13659,-102.74898,-11.345481
1.595484,-1.0818279,-2.420958,41.449177,-95.519615,-7.6178265
1.8593556,-0.886866,-2.0336816,42.071304,-88.21585,-3.8530612
2.0516171,-0.69113314,-1.7234678,42.025814,-81.259705,-0.1370808
2.198807,-0.47586563,-1.4599485,41.90277,-74.64168,2.8539782
2.3371742,-0.2456748,-1.2161396,41.875923,-67.64219,4.682726
2.4706717,-0.022580003,-1.0036503,41.6833,-60.171776,5.846014
2.581791,0.18245015,-0.8398908,40.96104,-52.327354,6.875217
2.6467834,0.3701463,-0.74459505,39.93043,-44.543755,7.8749356
2.6695826,0.55545884,-0.7067128,38.291584,-37.09464,8.784186
2.6761436,0.74093723,-0.70200336,36.114254,-29.90374,9.464377
2.682119,0.91423464,-0.7096528,33.738323,-22.654663,9.695191
2.6866367,1.0813916,-0.7329587,31.15942,-15.165009,9.434209
2.669786,1.2380869,-0.79986876,28.832502,-8.114717,8.927776
2.6224153,1.3905116,-0.90465117,26.636663,-1.9093722,8.080946
2.5523703,1.535607,-1.0496262,24.267105,3.4668288,6.9904017
2.4724755,1.6623267,-1.215151,21.523241,8.259722,5.7287464
2.3754413,1.7595552,-1.4045441,18.638638,12.622482,4.442578
2.2455702,1.8338852,-1.6300884,15.886128,16.294834,3.1732395
2.0772007,1.9003294,-1.8880565,13.807691,18.573544,1.5261999
1.8606112,1.9535035,-2.181429,12.317766,19.118673,-0.33448815
1.647623,2.0013375,-2.4500875,10.454991,18.354057,-2.0477436
1.4494965,2.0324404,-2.6927454,8.336048,16.716022,-3.4247391
1.2614876,2.0532343,-2.9204602,6.25957,14.483898,-4.5137935
1.0718005,2.0798619,-3.1491752,4.743765,11.300181,-5.987935
0.8737677,2.1003692,-3.3940864,3.6584291,6.9540052,-7.612356
0.68852854,2.13753,-3.6401477,2.1881037,0.96483,-8.790581
0.53410155,2.2427719,-3.852412,-0.63972265,-6.840975,-9.895843
0.43218997,2.3423352,-3.9783425,-3.945353,-15.437226,-12.001483
0.4156042,2.3654468,-3.9638538,-5.698849,-22.326313,-16.757662
0.47663024,2.2332208,-3.77819,-6.739712,-27.61926,-20.552465
0.5350066,2.0548325,-3.5383177,-9.080219,-32.057194,-21.773897
0.57613057,1.8560655,-3.275426,-11.798687,-36.181667,-21.731607
0.67508274,1.6351658,-2.969894,-14.230233,-39.560303,-21.826918
0.87099695,1.3692114,-2.6164587,-15.49769,-40.463783,-22.691088
1.1102241,1.047342,-2.2872217,-16.46068,-39.6179,-23.485165
1.2947907,0.735005,-2.04128,-16.924938,-38.385372,-23.51972
1.4284781,0.47645977,-1.8437488,-17.262402,-37.40542,-22.7749
1.5423485,0.2620347,-1.6525097,-17.639624,-36.16347,-21.723795
1.62973,0.084381506,-1.4744501,-17.599833,-34.102802,-20.70805
1.6489033,-0.045982286,-1.3429472,-17.28986,-31.732187,-19.886702
1.62247,-0.13951457,-1.252009,-16.71983,-29.446535,-19.177174
1.5729756,-0.20087019,-1.1838497,-16.169617,-27.469162,-18.421309
1.5167109,-0.23527859,-1.1262347,-15.793892,-25.752943,-17.565578
1.4628283,-0.24942632,-1.0749092,-15.731509,-24.109386,-16.546793
1.4049411,-0.24742186,-1.0334914,-15.792757,-22.498428,-15.470664
1.34152,-0.23766576,-1.002357,-16.00646,-20.728949,-14.495614
1.2715075,-0.22193699,-0.9790243,-16.150469,-18.927485,-13.9655075
1.1977484,-0.20031755,-0.9712947,-15.944618,-17.167063,-13.706609
1.1134794,-0.17607339,-0.983498,-14.784204,-16.255701,-13.4271965
1.0481608,-0.15461105,-0.98204935,-13.903445,-15.530178,-12.81507
1.0148338,-0.1496951,-0.9508245,-13.461376,-15.0363865,-12.407607
0.9826086,-0.14494164,-0.9206318,-13.033921,-14.558918,-12.013614
0.95144475,-0.14034475,-0.8914336,-12.620545,-14.097176,-11.632597
0.9213039,-0.13589877,-0.86319387,-12.220738,-13.650591,-11.264088
0.8921494,-0.13159828,-0.8358782,-11.834015,-13.218619,-10.907638
0.86394596,-0.12743807,-0.80945367,-11.459908,-12.800741,-10.562816
0.8366601,-0.12341321,-0.7838888,-11.097971,-12.396457,-10.229211
0.81025946,-0.11951894,-0.7591534,-10.747777,-12.00529,-9.906431
0.7847133,-0.11575071,-0.7352185,-10.408917,-11.626783,-9.594098
0.75999206,-0.11210415,-0.7120565,-10.080999,-11.260498,-9.291849
0.73606724,-0.10857507,-0.68964076,-9.763646,-10.9060135,-8.999339
0.7129116,-0.105159454,-0.6679456,-9.456495,-10.562925,-8.716232
0.690499,-0.10185344,-0.64694667,-9.159201,-10.230847,-8.44221
0.6688042,-0.09865331,-0.6266203,-8.8714285,-9.909405,-8.176965
0.6478031,-0.0955555,-0.6069438,-8.592857,-9.59824,-7.9202003
0.62747246,-0.09255657,-0.5878954,-8.323178,-9.297008,-7.671632
0.6077897,-0.08965323,-0.56945413,-8.062095,-9.005377,-7.4309864
0.58873343,-0.0868423,-0.5515998,-7.80932,-8.723027,-7.1979995
0.5702828,-0.084120706,-0.53431296,-7.5645804,-8.449653,-6.972418
0.55241793,-0.08148551,-0.5175749,-7.327609,-8.184956,-6.7539973
0.5351195,-0.078933865,-0.5013675,-7.0981517,-7.9286504,-6.542502
0.51836884,-0.07646303,-0.48567337,-6.875961,-7.6804633,-6.3377047
0.50214815,-0.074070364,-0.4704758,-6.6608,-7.4401274,-6.139386
0.4864401,-0.071753316,-0.4557585,-6.452439,-7.207388,-5.947336
0.4712281,-0.06950944,-0.44150597,-6.2506576,-6.9819975,-5.76135
0.45649597,-0.06733635,-0.42770308,-6.0552416,-6.763718,-5.581232
0.4422283,-0.06523176,-0.4143353,-5.8659863,-6.552319,-5.4067917
0.42841,-0.06319347,-0.4013886,-5.682692,-6.347579,-5.237846
0.41502663,-0.061219335,-0.38884938,-5.505167,-6.1492834,-5.074218
0.40206426,-0.059307292,-0.37670457,-5.333226,-5.957225,-4.915736
0.38950935,-0.057455353,-0.36494154,-5.16669,-5.7712035,-4.7622366
0.37734884,-0.055661593,-0.35354805,-5.005386,-5.5910263,-4.6135597
0.36557016,-0.053924154,-0.34251228,-4.849146,-5.4165063,-4.46955
0.35416108,-0.05224124,-0.33182284,-4.697809,-5.2474627,-4.3300605
0.34310988,-0.05061111,-0.32146865,-4.5512195,-5.0837216,-4.194946
0.33240515,-0.049032085,-0.3114391,-4.409225,-4.9251137,-4.064067
0.32203585,-0.04750254,-0.30172387,-4.2716804,-4.7714763,-3.9372895
0.31199136,-0.04602091,-0.29231292,-4.1384444,-4.622651,-3.8144832
0.3022614,-0.044585675,-0.28319666,-4.0093803,-4.478486,-3.6955223
0.292836,-0.04319536,-0.27436575,-3.8843558,-4.338834,-3.5802848
0.28370553,-0.04184855,-0.26581118,-3.7632434,-4.203551,-3.4686534
0.27486065,-0.04054387,-0.25752416,-3.6459196,-4.0724998,-3.3605137
0.26629233,-0.039279982,-0.2494963,-3.5322645,-3.9455469,-3.2557557
0.2579919,-0.038055614,-0.24171941,-3.4221625,-3.8225627,-3.1542723
0.2499509,-0.036869507,-0.23418556,-3.3155015,-3.7034223,-3.055961
0.24216112,-0.03572046,-0.22688712,-3.2121732,-3.5880044,-2.9607213
0.2346147,-0.03460731,-0.21981668,-3.1120727,-3.476192,-2.8684568
0.22730397,-0.033528924,-0.21296705,-3.0150988,-3.3678718,-2.779074
0.2202215,-0.03248421,-0.20633131,-2.9211526,-3.2629337,-2.692482
0.21336015,-0.031472113,-0.19990273,-2.8301394,-3.1612718,-2.6085935
0.20671296,-0.03049161,-0.1936748,-2.7419672,-3.062783,-2.5273235
0.20027323,-0.029541701,-0.18764125,-2.6565466,-2.9673681,-2.4485896
0.19403443,-0.028621435,-0.18179595,-2.5737913,-2.8749304,-2.3723125
0.18799028,-0.02772988,-0.17613302,-2.493618,-2.7853765,-2.2984152
0.18213466,-0.026866136,-0.17064674,-2.4159455,-2.6986163,-2.226823
0.17646168,-0.026029332,-0.16533159,-2.3406956,-2.614562,-2.1574638
0.17096563,-0.025218625,-0.16018218,-2.2677925,-2.533129,-2.0902677
0.16564094,-0.024433197,-0.15519336,-2.1971626,-2.4542356,-2.0251667
0.16048229,-0.02367226,-0.15036006,-2.128735,-2.3778017,-1.9620957
0.15548445,-0.022935044,-0.14567746,-2.0624409,-2.3037508,-1.900991
0.15064241,-0.022220809,-0.14114083,-1.998213,-2.2320082,-1.841791
0.1459513,-0.021528838,-0.1367456,-1.9359872,-2.1625018,-1.7844363
0.1414064,-0.020858433,-0.13248737,-1.875701,-2.095162,-1.7288693
0.13700314,-0.020208921,-0.12836184,-1.8172934,-2.0299206,-1.6750339
0.1327371,-0.01957965,-0.12436487,-1.760706,-1.9667124,-1.6228763
0.12860398,-0.018969987,-0.12049245,-1.7058818,-1.9054736,-1.5723438
0.12459965,-0.01837932,-0.11674069,-1.652766,-1.8461431,-1.5233859
0.12072008,-0.017807057,-0.11310581,-1.6013049,-1.788661,-1.4759533
0.116961375,-0.01725262,-0.10958418,-1.5514472,-1.7329698,-1.4299985
0.11331976,-0.016715458,-0.10617226,-1.5031426,-1.6790135,-1.3854753
0.10979159,-0.016195029,-0.10286663,-1.4563428,-1.6267381,-1.3423389
0.106373325,-0.01569081,-0.099663965,-1.4110008,-1.5760909,-1.3005464
0.10306153,-0.015202297,-0.09656105,-1.3670712,-1.5270214,-1.2600555
0.09985289,-0.014729,-0.093554795,-1.3245097,-1.4794801,-1.2208259
0.09674418,-0.0142704435,-0.09064216,-1.2832739,-1.4334197,-1.182818
0.09373229,-0.013826169,-0.08782025,-1.2433224,-1.3887938,-1.145994
0.0908142,-0.01339573,-0.08508621,-1.2046151,-1.3455577,-1.1103168
0.08798699,-0.012978697,-0.08243733,-1.1671133,-1.303668,-1.0757506
0.08524783,-0.012574651,-0.07987093,-1.1307793,-1.2630829,-1.0422609
0.08259396,-0.012183187,-0.07738445,-1.0955768,-1.2237616,-1.009814
0.08002273,-0.011803913,-0.0749754,-1.0614705,-1.1856648,-0.9783776
0.07753157,-0.011436449,-0.072641365,-1.0284262,-1.1487542,-0.94792
0.07511798,-0.011080428,-0.07038001,-0.9964108,-1.112993,-0.91841084
0.07277954,-0.010735491,-0.06818906,-0.96539235,-1.0783453,-0.8898205
0.07051391,-0.0104012955,-0.06606634,-0.9353397,-1.0447764,-0.86212045
0.06831883,-0.010077505,-0.06400971,-0.90622276,-1.0122527,-0.8352828
0.06619209,-0.009763797,-0.062017113,-0.8780124,-0.98074174,-0.80928075
0.06413157,-0.009459855,-0.060086556,-0.85068035,-0.95021176,-0.7840883
0.0621352,-0.009165377,-0.058216106,-0.8241993,-0.9206324,-0.7596802
0.06020099,-0.008880067,-0.05640389,-0.79854274,-0.8919739,-0.73603207
0.058326993,-0.00860364,-0.054648094,-0.7736849,-0.8642077,-0.71312016
0.056511343,-0.008335819,-0.052946962,-0.749601,-0.83730596,-0.69092155
0.05475222,-0.008076335,-0.051298793,-0.7262669,-0.8112417,-0.6694141
0.053047862,-0.00782493,-0.049701937,-0.70365924,-0.78598887,-0.64857614
0.051396564,-0.0075813527,-0.04815479,-0.6817554,-0.7615223,-0.628387
0.04979667,-0.0073453574,-0.04665581,-0.6605335,-0.73781735,-0.60882634
0.04824659,-0.0071167094,-0.045203496,-0.63997227,-0.71485037,-0.5898746
0.04674476,-0.0068951794,-0.043796394,-0.6200511,-0.6925984,-0.57151294
0.045289688,-0.0066805454,-0.042433098,-0.6007501,-0.6710391,-0.5537228
0.043879908,-0.0064725936,-0.04111224,-0.58204997,-0.650151,-0.53648657
0.04251402,-0.0062711155,-0.039832503,-0.56393194,-0.6299132,-0.51978683
0.04119065,-0.006075909,-0.038592603,-0.54637796,-0.61030537,-0.503607
0.039908476,-0.0058867796,-0.0373913,-0.5293704,-0.5913079,-0.48793083
0.03866622,-0.0057035377,-0.036227394,-0.51289237,-0.57290184,-0.47274265
0.03746263,-0.0055259997,-0.035099722,-0.4969272,-0.55506873,-0.45802727
0.036296505,-0.0053539886,-0.03400715,-0.48145905,-0.5377908,-0.44377
0.035166685,-0.005187332,-0.03294859,-0.46647242,-0.5210507,-0.42995653
0.034072034,-0.0050258636,-0.031922985,-0.4519523,-0.5048317,-0.41657308
0.03301146,-0.0048694215,-0.030929305,-0.43788418,-0.48911756,-0.4036062
