ax,ay,az,gx,gy,gz
-2.649115,2.8018436,-4.7418613,51.38138,78.62526,16.091057
-3.0307102,3.4756424,-5.282241,32.65795,65.76577,12.582803
-3.4754803,3.968263,-5.7232847,13.089948,52.520565,7.885327
-3.8991246,4.144705,-6.0980153,-0.54411113,39.932175,3.9974568
-4.367509,4.1266108,-6.538601,-4.145944,27.380598,0.065613054
-4.810441,4.086792,-7.0205736,-4.843659,15.081951,-6.2884736
-5.202307,4.004183,-7.478075,-7.628174,0.7769764,-14.929828
-5.472827,3.654935,-7.9082193,-12.920688,-14.714457,-20.723665
-5.6682415,3.1154134,-8.279648,-18.88578,-30.791328,-24.253857
-5.7434993,2.454333,-8.548622,-22.557829,-46.50045,-26.813166
-5.712112,1.7933534,-8.694819,-23.345835,-61.61632,-28.473822
-5.557199,1.2030877,-8.6907,-21.145239,-76.17403,-28.891768
-5.262491,0.7153482,-8.538729,-17.355913,-89.13044,-29.594604
-4.88251,0.28658015,-8.295737,-11.388368,-100.53842,-31.473787
-4.353958,-0.10645448,-7.9159822,-4.5165734,-110.31933,-32.78696
-3.6468413,-0.45309323,-7.3662767,2.2615092,-117.37311,-32.04305
-2.8478215,-0.68865716,-6.7132125,9.048686,-121.315735,-29.066538
-2.031479,-0.7786424,-6.004949,15.479194,-122.56488,-26.636797
-1.2750459,-0.8601526,-5.327945,22.241003,-121.657005,-24.731594
-0.5720803,-0.90984964,-4.6866293,28.307203,-118.840355,-22.12612
0.05930886,-0.9103414,-4.085893,32.86015,-114.47808,-18.362576
0.60350984,-0.850178,-3.5338976,35.55123,-108.29024,-13.3933935
1.0294452,-0.7199543,-3.0691085,37.16876,-101.5714,-8.289829
1.365485,-0.5666208,-2.6851304,38.650314,-94.95787,-3.676364
1.643174,-0.41278604,-2.3390858,40.075394,-87.99446,-0.1184952
1.8822701,-0.28731358,-2.0312603,41.377872,-80.78154,3.2192464
2.0905535,-0.16297956,-1.7611758,41.614403,-73.28292,7.312066
2.230807,-0.034935072,-1.570596,42.07953,-66.142654,11.4834385
2.3214216,0.11948927,-1.4295791,42.83799,-59.590843,15.154962
2.3955145,0.2725855,-1.3080487,43.83266,-52.727688,17.93622
2.4734776,0.42658332,-1.2064973,44.863617,-45.445465,19.943592
2.5515811,0.5902925,-1.1288016,44.781563,-37.90173,21.45167
2.6283176,0.7510838,-1.065617,44.14233,-29.91914,22.925924
2.6863475,0.9300153,-1.0488852,42.74445,-22.0157,23.98267
2.7277322,1.0981321,-1.0501324,41.269356,-13.872015,24.551697
2.7585049,1.2727401,-1.0760626,40.66107,-5.477222,24.434175
2.778872,1.4608027,-1.1287467,40.607548,3.2251809,22.972145
2.7665815,1.6467333,-1.2407212,40.26924,11.587609,20.950342
2.7027042,1.8238984,-1.4024773,38.90746,18.994888,18.9582
2.6038778,1.9970775,-1.5865318,36.34879,25.136328,17.320925
2.5005875,2.16315,-1.760915,32.913532,30.31872,15.860718
2.396971,2.308853,-1.9373678,29.75148,34.698082,13.781104
2.2499673,2.4278772,-2.15299,27.106943,38.19355,10.940504
2.0563338,2.5074868,-2.3994248,24.831226,40.159504,7.7323933
1.8336111,2.556051,-2.6711922,22.812786,40.3326,4.622617
1.6233877,2.5945868,-2.9252422,20.550226,38.975594,1.5456655
1.4553852,2.6165187,-3.1387496,18.389416,36.661243,-1.8025436
1.3281612,2.6017873,-3.328974,16.896246,34.0285,-5.4083257
1.2088255,2.5541987,-3.527404,15.762497,30.916382,-8.948845
1.0943358,2.4680746,-3.742006,15.19702,27.122114,-12.407553
1.013379,2.3651364,-3.9427843,15.590212,22.386698,-15.945628
1.0049087,2.2831738,-4.056331,16.324738,17.272161,-19.597498
1.0539869,2.276921,-4.0258527,16.902859,12.79045,-23.801773
1.0623695,2.2280939,-3.9833148,18.110964,8.34318,-28.235764
1.0742501,2.1312919,-3.9079387,19.124506,3.3091295,-31.471682
1.1398486,2.031915,-3.7554414,18.988886,-1.7108154,-33.15836
1.2137753,1.9353724,-3.5614483,18.115608,-6.399193,-34.55875
1.2608773,1.8259971,-3.3162925,16.93783,-10.674144,-36.26858
1.3120744,1.6825454,-3.0330057,15.5509815,-14.431035,-38.030823
1.3793674,1.5053967,-2.7241175,14.2333145,-17.535547,-39.263252
1.4458467,1.3178636,-2.4324877,13.190104,-20.312506,-39.912956
1.5072126,1.1486557,-2.1581943,11.88085,-22.948774,-40.34812
1.5673822,0.97111064,-1.8889452,10.672349,-25.079132,-40.7583
1.6183797,0.8007949,-1.6380897,9.737813,-26.557316,-41.0441
1.6412755,0.64893883,-1.4311095,9.09459,-27.760881,-41.037308
1.6512526,0.5211788,-1.2390294,8.455697,-28.654867,-40.540794
1.6596732,0.4110881,-1.0606813,7.582238,-28.943432,-39.448895
1.6621469,0.32691756,-0.9067199,6.5938115,-28.685284,-38.202503
1.6579585,0.25579616,-0.7735509,5.6658835,-27.796432,-37.017525
1.6502432,0.19330437,-0.6582623,4.782621,-26.41964,-35.81381
1.6321186,0.13216232,-0.5759163,4.0065384,-24.729214,-34.43837
1.5933242,0.07502045,-0.5260952,3.3551881,-23.364634,-32.73596
1.5577809,0.019449925,-0.47642863,3.014142,-22.120737,-30.669235
1.5287049,-0.014848693,-0.4172975,2.7462692,-20.7436,-28.418957
1.4975737,-0.036363535,-0.36330706,2.5335994,-19.071373,-26.288958
1.4671448,-0.055212382,-0.3227286,2.1347284,-17.011532,-24.336817
1.4207641,-0.05346696,-0.31252623,2.0672433,-16.47375,-23.56746
1.3758923,-0.05177832,-0.30265573,2.0019538,-15.95346,-22.823132
1.3324764,-0.050144468,-0.2931055,1.9387828,-15.450053,-22.102953
1.2904656,-0.048563495,-0.28386438,1.8776562,-14.962938,-21.406084
1.2498114,-0.047033574,-0.27492166,1.8185034,-14.491552,-20.731716
1.2104669,-0.04555294,-0.266267,1.7612562,-14.035353,-20.079075
1.1723872,-0.04411991,-0.25789064,1.7058496,-13.593821,-19.447416
1.1355296,-0.04273286,-0.24978304,1.6522208,-13.166456,-18.836025
1.0998524,-0.04139024,-0.24193512,1.6003098,-12.75278,-18.244217
1.0653161,-0.040090546,-0.23433812,1.5500585,-12.35233,-17.671331
1.031882,-0.03883234,-0.22698362,1.5014113,-11.9646635,-17.116732
0.9995137,-0.037614238,-0.21986355,1.4543147,-11.589354,-16.57981
0.96817553,-0.036434904,-0.21297008,1.4087169,-11.225987,-16.059977
0.9378334,-0.03529305,-0.2062957,1.3645685,-10.874171,-15.556665
0.9084545,-0.034187447,-0.1998332,1.3218215,-10.533523,-15.069331
0.880007,-0.0331169,-0.1935756,1.2804298,-10.203674,-14.597448
0.85246056,-0.03208025,-0.18751618,1.240349,-9.884273,-14.14051
0.8257855,-0.031076403,-0.18164846,1.2015363,-9.574976,-13.698028
0.7999536,-0.030104283,-0.1759662,1.1639502,-9.275455,-13.269531
0.77493733,-0.029162858,-0.17046335,1.1275511,-8.985392,-12.854565
0.7507103,-0.028251134,-0.16513413,1.0923002,-8.704479,-12.452689
0.72724694,-0.027368149,-0.15997289,1.0581605,-8.432423,-12.063482
0.7045227,-0.026512977,-0.15497422,1.0250962,-8.168935,-11.686536
0.6825137,-0.025684724,-0.1501329,0.9930726,-7.913741,-11.321453
0.661197,-0.024882521,-0.14544384,0.96205634,-7.666574,-10.9678545
0.6405504,-0.024105536,-0.14090219,0.932015,-7.427176,-10.62537
0.62055236,-0.02335296,-0.13650322,0.90291744,-7.195299,-10.293646
0.6011822,-0.022624012,-0.13224237,0.8747335,-6.970703,-9.972337
0.58242,-0.021917941,-0.12811522,0.847434,-6.7531548,-9.66111
0.5642462,-0.021234015,-0.12411752,0.82099074,-6.54243,-9.359646
0.5466422,-0.020571532,-0.12024516,0.79537654,-6.3383117,-9.067633
0.52958983,-0.01992981,-0.11649415,0.770565,-6.1405897,-8.784771
0.51307166,-0.019308187,-0.11286063,0.74653065,-5.9490614,-8.510769
0.49707064,-0.01870603,-0.109340884,0.72324884,-5.7635303,-8.245346
0.4815705,-0.01812272,-0.10593131,0.7006958,-5.583806,-7.988232
0.4665554,-0.017557662,-0.102628425,0.67884845,-5.4097056,-7.739163
0.45200992,-0.01701028,-0.099428855,0.6576845,-5.241051,-7.4978848
0.43791932,-0.016480016,-0.09632933,0.63718235,-5.0776706,-7.264151
0.4242692,-0.015966326,-0.09332671,0.61732113,-4.919398,-7.037725
0.4110457,-0.015468692,-0.09041794,0.59808064,-4.7660713,-6.818375
0.39823538,-0.014986608,-0.08760004,0.5794413,-4.617536,-6.6058793
0.38582525,-0.0145195825,-0.084870175,0.5613843,-4.4736404,-6.400021
0.3738027,-0.014067143,-0.08222557,0.5438912,-4.334239,-6.2005925
0.36215553,-0.013628832,-0.07966354,0.52694434,-4.1991906,-6.007391
0.350872,-0.013204204,-0.077181496,0.51052654,-4.068358,-5.8202214
0.33994067,-0.012792829,-0.074776925,0.49462122,-3.9416091,-5.6388936
0.32935047,-0.012394294,-0.0724474,0.47921228,-3.8188162,-5.463225
0.31909075,-0.012008194,-0.07019056,0.46428412,-3.6998546,-5.293038
0.30915108,-0.01163414,-0.068004124,0.4498217,-3.5846043,-5.12816
0.2995215,-0.011271754,-0.0658859,0.43581045,-3.4729493,-4.9684258
0.29019225,-0.010920671,-0.063833736,0.42223617,-3.3647768,-4.813673
0.28115395,-0.010580537,-0.06184558,0.40908524,-3.2599778,-4.663747
0.2723975,-0.010251009,-0.059919417,0.3963444,-3.1584466,-4.518496
0.26391405,-0.009931755,-0.058053307,0.3840008,-3.0600812,-4.3777733
0.25569507,-0.009622455,-0.056245375,0.37204203,-2.9647822,-4.2414384
0.24773231,-0.009322796,-0.054493804,0.36045602,-2.8724542,-4.109353
0.24001776,-0.009032478,-0.05279683,0.34923118,-2.7830038,-3.981385
0.23254365,-0.008751207,-0.051152743,0.33835617,-2.6963415,-3.8574052
0.22530246,-0.008478703,-0.049559895,0.3278201,-2.61238,-3.7372892
0.21828692,-0.008214691,-0.048016686,0.31761232,-2.531035,-3.6209164
0.21148999,-0.007958905,-0.046521563,0.30772266,-2.4522247,-3.50817
0.20490485,-0.007711089,-0.045073025,0.29814112,-2.37587,-3.3989363
0.19852486,-0.0074709947,-0.04366962,0.2888581,-2.3018942,-3.293106
0.19234365,-0.0072383797,-0.042309932,0.2798643,-2.2302232,-3.1905727
0.18635501,-0.0070130117,-0.040992606,0.27115068,-2.1607847,-3.0912337
0.18055291,-0.006794664,-0.03971632,0.26270851,-2.0935094,-2.9949894
0.17493156,-0.006583118,-0.038479783,0.2545293,-2.0283298,-2.901743
0.16948529,-0.0063781613,-0.037281763,0.24660486,-1.9651804,-2.811401
0.16420865,-0.0061795884,-0.036121063,0.23892725,-1.9039979,-2.723873
0.15909636,-0.0059872,-0.03499651,0.23148875,-1.8447211,-2.6390707
0.1541433,-0.005800803,-0.03390698,0.22428192,-1.7872902,-2.55691
0.14934449,-0.005620212,-0.032851383,0.21729955,-1.7316481,-2.4773078
0.14469512,-0.0054452447,-0.03182866,0.21053462,-1.6777388,-2.4001849
0.14019054,-0.005275726,-0.030837787,0.20398036,-1.6255082,-2.3254635
0.13582624,-0.005111486,-0.029877769,0.19763021,-1.5749042,-2.253069
0.13159785,-0.004952361,-0.028947646,0.19147779,-1.5258759,-2.1829288
0.12750112,-0.0047981907,-0.028046487,0.18551697,-1.4783744,-2.1149728
0.12353195,-0.004648821,-0.027173387,0.17974174,-1.432352,-2.0491328
0.11968638,-0.0045041023,-0.026327474,0.17414634,-1.3877625,-1.9853429
0.115960546,-0.0043638893,-0.0255079,0.16872516,-1.3445616,-1.9235392
0.11235072,-0.0042280424,-0.024713844,0.16347279,-1.3027056,-1.8636597
0.10885328,-0.004096425,-0.023944512,0.15838395,-1.2621529,-1.8056448
0.10546474,-0.0039689057,-0.023199134,0.15345354,-1.2228628,-1.749436
0.1021817,-0.0038453566,-0.022476962,0.14867665,-1.184796,-1.6949774
0.09900088,-0.0037256542,-0.021777274,0.14404848,-1.1479143,-1.6422143
0.09591908,-0.0036096785,-0.02109937,0.1395644,-1.112181,-1.5910939
0.09293323,-0.0034973135,-0.020442571,0.13521992,-1.0775601,-1.541565
0.09004034,-0.0033884465,-0.019806221,0.1310107,-1.0440171,-1.4935781
0.087237515,-0.0032829691,-0.019189682,0.12693253,-1.0115182,-1.4470851
0.08452194,-0.0031807753,-0.018592335,0.12298131,-0.98003125,-1.4020395
0.08189092,-0.003081763,-0.018013587,0.119153105,-0.9495245,-1.3583964
0.07934179,-0.002985833,-0.017452855,0.11544408,-0.9199675,-1.3161119
0.07687203,-0.0028928895,-0.01690958,0.111850515,-0.89133054,-1.2751437
0.074479155,-0.0028028395,-0.016383218,0.10836882,-0.8635852,-1.235451
0.072160766,-0.0027155927,-0.01587324,0.10499552,-0.8367035,-1.1969938
0.06991455,-0.002631062,-0.015379139,0.101727225,-0.81065863,-1.1597339
0.067738265,-0.0025491626,-0.01490042,0.098560676,-0.7854246,-1.1236339
0.06562972,-0.002469813,-0.0144366035,0.095492706,-0.7609761,-1.0886577
0.063586816,-0.0023929332,-0.013987225,0.09252024,-0.73728865,-1.0547702
0.06160751,-0.002318447,-0.013551836,0.0896403,-0.71433854,-1.0219377
0.059689816,-0.0022462793,-0.01313,0.08685001,-0.6921029,-0.99012727
0.05783182,-0.0021763581,-0.012721295,0.08414658,-0.67055947,-0.9593071
0.05603166,-0.0021086135,-0.012325313,0.08152731,-0.64968663,-0.9294462
0.054287538,-0.0020429778,-0.011941657,0.07898957,-0.62946355,-0.90051496
