ax,ay,az,gx,gy,gz
-1.5227411,-0.7872799,-10.288276,-42.05947,-155.0305,-27.910254
-1.2098256,-1.3698657,-10.732688,-31.209143,-166.54599,-27.40746
-1.196309,-1.5411869,-11.301884,-20.196247,-179.25482,-26.795235
-1.2606177,-1.4157997,-11.753093,-21.348251,-194.46696,-27.03411
-1.3037063,-1.2648988,-12.028713,-26.637829,-208.82013,-29.47972
-1.19569,-1.3200237,-11.968688,-28.704165,-221.12975,-30.883781
-0.8788797,-1.3993766,-11.551255,-26.375689,-230.451,-27.094261
-0.5212503,-1.2643644,-10.847118,-23.375586,-236.78871,-19.716396
-0.21250245,-1.0200233,-9.991324,-20.164316,-240.49034,-12.0788555
0.14603123,-0.70850074,-8.938357,-16.574366,-242.47882,-6.9623194
0.65279293,-0.42946768,-7.800272,-13.832878,-242.46307,-4.2349205
1.2750951,-0.21852444,-6.6166763,-12.730558,-240.62517,-1.7877468
1.9696492,-0.050213102,-5.4134045,-13.774842,-236.80177,1.4283491
2.6454828,0.051601887,-4.28315,-16.933325,-229.37985,4.4048924
3.1986372,-0.02005472,-3.3352606,-18.950796,-219.94681,6.0093236
3.6383197,-0.12113502,-2.5230927,-19.749113,-209.7609,7.0691113
3.9953737,-0.20257448,-1.8119903,-19.665432,-199.39272,8.288345
4.261605,-0.23905925,-1.1937656,-19.575806,-189.06294,9.873835
4.45266,-0.23324758,-0.65111667,-18.906767,-177.98602,11.636524
4.556386,-0.13856445,-0.20928279,-17.954174,-166.68127,12.720478
4.5884986,-0.00022053515,0.1498426,-16.877909,-155.34357,13.086441
4.5726447,0.17213236,0.44429985,-16.122381,-143.96268,13.164311
4.5335784,0.36759856,0.6767824,-15.392165,-132.4438,13.195946
4.466094,0.6095142,0.8229152,-15.159571,-121.148445,12.514126
4.325883,0.8824162,0.8558031,-15.297286,-110.84152,11.010181
4.1383805,1.168528,0.8202765,-15.856059,-101.824905,8.575383
3.9225032,1.4614958,0.7482207,-17.002672,-94.03008,5.520725
3.7002277,1.7572544,0.64916277,-19.447783,-87.548,2.0469668
3.4844246,2.0244548,0.54804176,-23.023386,-82.03521,-1.8234859
3.2713177,2.2443619,0.4360722,-26.448833,-76.821335,-6.045786
3.0540004,2.4399495,0.30602637,-29.956518,-71.99421,-10.64111
2.823619,2.621832,0.17712225,-33.88088,-67.69397,-15.560011
2.5767465,2.771796,0.042127643,-38.140644,-63.924706,-21.063492
2.3296523,2.8490758,-0.11829219,-42.81148,-61.052265,-27.107103
2.1243443,2.7898881,-0.30453432,-47.845005,-58.911194,-32.81925
1.9897895,2.6173863,-0.49303302,-52.343952,-57.383877,-37.865776
1.9496301,2.3529558,-0.66856533,-56.09616,-56.55701,-41.77083
2.0085788,2.0234153,-0.80577236,-59.230053,-56.12675,-44.28134
2.1384122,1.6395636,-0.8973147,-61.475533,-55.39918,-44.8125
2.2821004,1.229312,-0.9748957,-63.057384,-54.286263,-44.372375
2.402191,0.8164838,-1.0317786,-63.121166,-52.245667,-43.607773
2.474787,0.43171358,-1.0824723,-62.083015,-49.64248,-42.525192
2.4866717,0.0940824,-1.128719,-60.530823,-47.09367,-40.930534
2.4447114,-0.19379775,-1.1611423,-58.72523,-44.86434,-38.417004
2.347419,-0.40944558,-1.1769578,-56.616383,-42.82619,-35.70944
2.229081,-0.57546514,-1.1767856,-54.17811,-40.920155,-33.00084
2.1157968,-0.6961514,-1.1589482,-51.450687,-38.97897,-30.374458
2.017129,-0.7815821,-1.1379254,-48.637245,-36.96802,-28.015951
1.9318886,-0.8507057,-1.121324,-45.749138,-34.952225,-25.92249
1.8663888,-0.8218629,-1.0833061,-44.198032,-33.767185,-25.0436
1.8034406,-0.7941437,-1.046769,-42.70735,-32.62831,-24.198948
1.7429138,-0.7674908,-1.0116376,-41.274017,-31.533245,-23.386787
1.6846881,-0.74185115,-0.9778417,-39.895172,-30.479809,-22.605501
1.6286508,-0.7171752,-0.945316,-38.56815,-29.46597,-21.853582
1.5746974,-0.69341683,-0.9139999,-37.290478,-28.48983,-21.129623
1.5227302,-0.6705331,-0.8838366,-36.05984,-27.549625,-20.432318
1.4726578,-0.64848375,-0.85477316,-34.874073,-26.643703,-19.760435
1.4243946,-0.6272311,-0.8267598,-33.73115,-25.770514,-19.11283
1.3778603,-0.60673976,-0.79975,-32.62917,-24.928602,-18.488422
1.3329796,-0.5869765,-0.7736999,-31.566345,-24.116608,-17.886202
1.2896813,-0.5679102,-0.74856836,-30.540998,-23.333246,-17.305218
1.2478988,-0.5495113,-0.72431654,-29.551546,-22.577307,-16.744572
1.207569,-0.5317521,-0.70090795,-28.596493,-21.847649,-16.203417
1.1686323,-0.51460636,-0.67830795,-27.67443,-21.143194,-15.680956
1.1310323,-0.49804926,-0.6564839,-26.784027,-20.462929,-15.176432
1.094716,-0.48205733,-0.63540477,-25.924015,-19.805882,-14.689131
1.0596324,-0.46660838,-0.6150413,-25.093203,-19.171143,-14.218373
1.025734,-0.4516812,-0.5953657,-24.290451,-18.557842,-13.763516
0.992975,-0.4372558,-0.5763514,-23.514683,-17.965158,-13.323949
0.9613121,-0.42331308,-0.5579733,-22.764874,-17.392305,-12.89909
0.9307042,-0.40983486,-0.5402076,-22.040045,-16.83854,-12.488385
0.90111184,-0.39680392,-0.52303135,-21.339268,-16.303146,-12.09131
0.87249774,-0.38420373,-0.50642294,-20.661657,-15.785453,-11.707359
0.8448261,-0.37201855,-0.4903615,-20.006365,-15.284811,-11.336056
0.8180629,-0.36023337,-0.47482735,-19.372581,-14.800604,-10.976941
0.79217535,-0.34883383,-0.4598015,-18.759539,-14.33224,-10.629577
0.7671324,-0.3378062,-0.44526583,-18.166496,-13.879157,-10.293546
0.7429042,-0.3271373,-0.43120307,-17.592747,-13.440813,-9.968446
0.71946204,-0.31681457,-0.41759658,-17.037611,-13.016692,-9.653894
0.6967786,-0.30682594,-0.40443045,-16.500444,-12.6062975,-9.349523
0.6748276,-0.29715982,-0.39168945,-15.98062,-12.209153,-9.054979
0.65358377,-0.2878051,-0.37935892,-15.477545,-11.824805,-8.769925
0.63302296,-0.2787512,-0.36742482,-14.9906435,-11.452814,-8.494036
0.61312187,-0.26998776,-0.35587367,-14.519366,-11.092758,-8.226999
0.59385824,-0.26150504,-0.3446925,-14.063183,-10.744236,-7.968516
0.5752105,-0.2532935,-0.3338688,-13.621585,-10.406857,-7.7182965
0.55715805,-0.24534413,-0.32339063,-13.194084,-10.080247,-7.4760647
0.53968096,-0.23764811,-0.31324643,-12.780209,-9.764047,-7.241554
0.52276015,-0.23019703,-0.3034251,-12.379505,-9.457911,-7.0145063
0.5063771,-0.22298278,-0.29391593,-11.991538,-9.161505,-6.7946754
0.49051413,-0.21599753,-0.2847086,-11.615887,-8.874508,-6.581823
0.47515413,-0.20923376,-0.2757932,-11.252145,-8.59661,-6.3757186
0.46028057,-0.2026842,-0.26716015,-10.899924,-8.327514,-6.176142
0.44587755,-0.19634184,-0.25880024,-10.5588455,-8.066931,-5.9828796
0.43192977,-0.19019994,-0.25070453,-10.228547,-7.8145843,-5.7957253
0.4184224,-0.184252,-0.24286446,-9.908679,-7.5702057,-5.6144805
0.40534118,-0.17849168,-0.23527174,-9.598902,-7.3335366,-5.438954
0.3926723,-0.17291296,-0.22791836,-9.29889,-7.104328,-5.26896
0.38040248,-0.16750994,-0.2207966,-9.0083275,-6.8823395,-5.104321
0.36851886,-0.16227701,-0.21389902,-8.726912,-6.667338,-4.9448643
0.35700905,-0.15720867,-0.20721838,-8.454347,-6.4590993,-4.790423
0.34586102,-0.15229964,-0.20074774,-8.19035,-6.2574067,-4.6408367
0.33506322,-0.14754485,-0.19448039,-7.934647,-6.06205,-4.4959493
0.32460445,-0.14293933,-0.18840982,-7.686972,-5.872827,-4.3556113
0.3144739,-0.13847834,-0.18252975,-7.44707,-5.6895423,-4.2196774
0.3046611,-0.13415729,-0.1768341,-7.214692,-5.5120068,-4.088007
0.2951559,-0.12997168,-0.17131703,-6.9895997,-5.3400364,-3.9604647
0.2859486,-0.12591726,-0.16597284,-6.771561,-5.1734557,-3.836919
0.27702972,-0.121989824,-0.16079606,-6.560353,-5.0120926,-3.7172434
0.2683901,-0.11818537,-0.15578137,-6.355757,-4.8557825,-3.601315
0.26002088,-0.1145,-0.15092364,-6.157566,-4.704365,-3.4890153
0.25191358,-0.11092995,-0.14621791,-5.965576,-4.557685,-3.3802295
0.24405983,-0.10747156,-0.1416594,-5.7795916,-4.415593,-3.2748466
0.2364517,-0.10412133,-0.1372434,-5.599423,-4.277945,-3.172759
0.2290814,-0.100875825,-0.13296548,-5.4248867,-4.1446,-3.073863
0.22194147,-0.09773176,-0.12882125,-5.2558055,-4.015422,-2.9780576
0.21502462,-0.09468593,-0.12480651,-5.092007,-3.8902807,-2.8852458
0.20832384,-0.09173525,-0.12091718,-4.933326,-3.7690485,-2.7953334
0.20183234,-0.08887672,-0.11714933,-4.7796006,-3.6516025,-2.708229
0.19554354,-0.08610745,-0.11349913,-4.630675,-3.537824,-2.6238446
0.18945107,-0.083424635,-0.10996288,-4.486399,-3.4275973,-2.5420947
0.18354876,-0.08082556,-0.106537014,-4.3466263,-3.3208115,-2.4628963
0.17783067,-0.0783076,-0.103218056,-4.2112155,-3.217358,-2.3861694
0.17229098,-0.075868204,-0.10000267,-4.0800304,-3.1171327,-2.311837
0.16692413,-0.07350492,-0.096887596,-3.9529376,-3.0200343,-2.2398233
0.1617247,-0.07121535,-0.09386969,-3.8298097,-2.9259648,-2.1700563
0.15668744,-0.0689972,-0.090945914,-3.710522,-2.8348293,-2.1024652
0.15180726,-0.06684821,-0.08811332,-3.5949543,-2.746536,-2.036982
0.14707926,-0.06476624,-0.08536906,-3.4829905,-2.6609957,-1.9735408
0.14249869,-0.062749185,-0.082710356,-3.3745174,-2.5781229,-1.9120775
0.1380609,-0.060795017,-0.08013454,-3.2694263,-2.4978333,-1.8525305
0.13376147,-0.05890176,-0.07763902,-3.1676111,-2.4200468,-1.7948396
0.12959604,-0.057067517,-0.075221285,-3.0689695,-2.3446848,-1.7389472
0.12556043,-0.055290446,-0.072878905,-2.973402,-2.2716718,-1.6847966
0.12165061,-0.05356875,-0.070609525,-2.8808131,-2.200934,-1.6323336
0.11786261,-0.051900715,-0.068410866,-2.7911096,-2.1324008,-1.5815055
0.11419266,-0.05028465,-0.06628072,-2.7042012,-2.0660028,-1.5322613
0.11063705,-0.04871894,-0.06421694,-2.6200008,-2.001674,-1.4845513
0.10719222,-0.047202013,-0.062217463,-2.5384235,-1.9393492,-1.4383279
0.103854716,-0.045732345,-0.06028028,-2.459388,-1.8789662,-1.3935446
0.10062118,-0.04430846,-0.058403444,-2.3828146,-1.8204643,-1.3501563
0.09748838,-0.042928934,-0.056585073,-2.3086264,-1.7637848,-1.3081198
0.094453156,-0.04159238,-0.054823346,-2.2367494,-1.7088708,-1.2673925
0.09151249,-0.040297452,-0.053116493,-2.1671112,-1.6556673,-1.2279339
0.0886634,-0.03904286,-0.051462803,-2.0996418,-1.604121,-1.1897043
0.085903056,-0.037827346,-0.049860615,-2.0342739,-1.5541801,-1.1526654
0.08322868,-0.036649685,-0.04830833,-1.9709419,-1.5057946,-1.11678
0.08063759,-0.035508703,-0.04680439,-1.9095823,-1.458916,-1.0820123
0.0781272,-0.034403253,-0.045347285,-1.8501335,-1.4134973,-1.0483273
0.07569498,-0.03333223,-0.043935556,-1.7925361,-1.369493,-1.0156913
0.0733385,-0.032294556,-0.04256779,-1.7367322,-1.326859,-0.9840716
0.071055405,-0.031289194,-0.041242614,-1.6826662,-1.2855527,-0.9534365
0.0688434,-0.030315142,-0.039958704,-1.6302837,-1.2455325,-0.9237554
0.06670028,-0.029371418,-0.03871477,-1.5795323,-1.2067586,-0.8949985
0.064623885,-0.028457081,-0.03750957,-1.530361,-1.169192,-0.867137
0.062612146,-0.02757121,-0.0363419,-1.482721,-1.132795,-0.840143
0.06066304,-0.026712926,-0.035210583,-1.4365641,-1.0975313,-0.8139896
0.058774624,-0.025881363,-0.03411449,-1.3918445,-1.0633656,-0.7886504
0.056945004,-0.02507569,-0.033052526,-1.3485172,-1.0302637,-0.76410013
0.05517235,-0.024295103,-0.032023627,-1.3065388,-0.9981923,-0.7403143
0.053454883,-0.023538819,-0.03102676,-1.2658674,-0.96711946,-0.71726894
0.05179089,-0.022806078,-0.03006093,-1.2264622,-0.93701404,-0.6949411
0.0501787,-0.022096151,-0.029125167,-1.1882839,-0.9078459,-0.67330843
0.0486167,-0.021408329,-0.02821854,-1.1512942,-0.87958586,-0.6523492
0.047103334,-0.020741917,-0.027340136,-1.1154561,-0.8522056,-0.6320425
0.04563708,-0.020096254,-0.02648908,-1.0807337,-0.82567775,-0.612368
0.044216473,-0.01947069,-0.025664518,-1.0470922,-0.79997575,-0.593306
0.04284009,-0.018864602,-0.024865627,-1.014498,-0.7750739,-0.5748374
0.041506555,-0.01827738,-0.024091605,-0.98291856,-0.7509473,-0.5569438
0.04021454,-0.017708441,-0.02334168,-0.9523222,-0.7275717,-0.53960717
0.03896274,-0.017157214,-0.022615101,-0.9226783,-0.70492387,-0.5228103
0.03774991,-0.016623145,-0.021911139,-0.89395726,-0.6829811,-0.5065363
0.036574837,-0.016105702,-0.021229094,-0.8661303,-0.66172135,-0.4907689
0.035436343,-0.0156043675,-0.020568278,-0.83916956,-0.6411234,-0.47549236
0.034333292,-0.015118639,-0.019928034,-0.8130482,-0.6211667,-0.4606914
0.033264577,-0.014648031,-0.019307721,-0.7877399,-0.60183126,-0.44635114
0.03222913,-0.014192074,-0.018706718,-0.7632194,-0.5830977,-0.4324573
0.031225916,-0.013750309,-0.018124426,-0.7394623,-0.5649473,-0.41899598
0.030253932,-0.013322297,-0.017560257,-0.7164447,-0.5473619,-0.40595368
0.029312205,-0.0129076075,-0.017013652,-0.6941436,-0.5303239,-0.39331737
