ax,ay,az,gx,gy,gz
-2.4618404,1.1700106,-5.433686,-29.18572,-61.867836,-17.755615
-2.456199,1.0208714,-5.6491985,-28.3082,-72.40546,-20.49215
-2.383099,0.6815887,-5.7441454,-22.769396,-74.62869,-23.475569
-2.296413,0.30737853,-6.0107055,-12.921912,-74.94677,-27.410957
-2.2558835,0.06264211,-6.4024196,-6.590912,-76.0918,-35.743275
-2.3045566,-0.33414346,-6.746073,3.7823117,-78.66056,-45.463943
-2.4277935,-0.7112084,-6.981134,14.46269,-82.965996,-50.465256
-2.42694,-0.9447947,-7.060538,24.226954,-88.88485,-50.02175
-2.2574093,-1.0440893,-7.0102234,31.34314,-96.56823,-45.66755
-1.9436064,-1.0663898,-6.8386507,36.314003,-105.39631,-40.1511
-1.5462904,-1.0669131,-6.532367,41.60308,-113.06593,-37.453476
-1.1207548,-1.0776898,-6.164203,46.610985,-119.17894,-37.66046
-0.7274781,-1.0749089,-5.78516,50.99665,-124.96423,-39.14775
-0.34667197,-1.0491656,-5.3436437,53.289856,-130.7449,-40.153973
0.06991061,-1.0182601,-4.821091,53.988407,-135.6202,-39.382126
0.5591469,-1.0119543,-4.2143135,54.921215,-137.40042,-35.52253
1.0456641,-0.9275208,-3.5870612,55.740704,-137.64423,-30.745356
1.526506,-0.7992459,-2.8881495,57.872448,-135.25545,-25.89963
1.968715,-0.58246857,-2.2284424,59.495415,-130.64677,-21.867695
2.349528,-0.37993822,-1.6241407,59.788994,-124.56039,-18.805716
2.6761003,-0.20987065,-1.0814645,59.160675,-116.63399,-15.437091
2.9206216,-0.011484912,-0.6243023,57.62041,-107.9809,-11.516098
3.082555,0.19340664,-0.2659956,55.204033,-99.076065,-7.3286233
3.1554916,0.3810354,-0.0069920737,52.165344,-90.40958,-3.3599482
3.148124,0.53190136,0.16519758,48.594635,-82.004555,0.47215378
3.064448,0.6497734,0.25121236,44.11827,-73.80051,4.624831
2.9083638,0.7454663,0.24656501,39.55665,-66.19022,8.783545
2.7193158,0.83564955,0.19149384,35.253944,-59.259964,12.704834
2.5038967,0.9377261,0.09320075,32.250713,-53.107082,15.616693
2.2693722,1.049621,-0.028693495,30.137434,-47.560814,17.028648
2.0330846,1.1533811,-0.1656239,28.730053,-42.757477,16.950306
1.7973286,1.2645689,-0.31618884,27.285385,-38.84219,16.183628
1.5691177,1.376724,-0.46345735,25.575407,-35.934483,15.145107
1.3502222,1.4948295,-0.604349,23.646513,-34.114456,14.081739
1.1444649,1.6235359,-0.73253036,21.481432,-33.230515,12.755024
0.9607548,1.7556435,-0.83425903,19.218151,-33.091507,11.003759
0.80875605,1.9082325,-0.90024924,16.752996,-33.388924,8.973918
0.68910164,2.0704534,-0.94403934,14.188079,-34.041172,6.453363
0.58936024,2.2358408,-0.9841325,11.665442,-35.313847,3.2827723
0.51146203,2.4032445,-1.0048239,8.114381,-37.06674,-0.28091672
0.4691933,2.5494342,-0.97622776,3.6617234,-38.239487,-3.4551055
0.45013887,2.6879883,-0.92955136,-1.7592067,-39.02874,-6.22553
0.43583885,2.7855296,-0.8840862,-8.155788,-39.431465,-8.7041445
0.4253692,2.8285408,-0.8533979,-14.759055,-39.304367,-10.956756
0.40243065,2.8397572,-0.8620642,-20.83504,-38.90923,-13.630276
0.37979352,2.8130777,-0.9021286,-26.183361,-38.26979,-17.670046
0.41459274,2.6644495,-0.9819941,-30.306177,-37.395473,-22.613386
0.54840255,2.4092581,-1.0618739,-33.497448,-36.39969,-27.571537
0.7786623,2.0726013,-1.1098491,-35.99495,-35.112873,-31.217913
1.0321101,1.7171259,-1.1319261,-38.097946,-33.52713,-32.88483
1.2243856,1.3880782,-1.1570216,-40.022293,-32.005215,-32.689724
1.3055251,1.0887046,-1.1899786,-41.563305,-30.873707,-31.910095
1.327623,0.8096643,-1.2033087,-42.35247,-29.974829,-30.895048
1.3297644,0.5589413,-1.1874654,-42.76684,-29.166584,-29.633924
1.3228154,0.33307895,-1.1449473,-42.781624,-28.273146,-28.288282
1.3042747,0.12691665,-1.0877246,-42.036495,-26.985592,-27.096922
1.267831,-0.040127832,-1.0266365,-40.728447,-25.574385,-26.063402
1.2270671,-0.16207145,-0.96601856,-39.121613,-24.238157,-25.067226
1.1852479,-0.24354689,-0.9097611,-37.861465,-23.153198,-23.96913
1.1464782,-0.30763236,-0.8533202,-36.89661,-22.255875,-22.669504
1.1139154,-0.3585765,-0.7984147,-36.13826,-21.402115,-21.0965
1.0969094,-0.40229452,-0.7510037,-35.28979,-20.319191,-19.600334
1.081238,-0.44837072,-0.71946096,-34.24004,-18.922813,-18.272562
1.0554675,-0.4939194,-0.70661306,-33.18718,-17.336548,-16.888313
1.0219591,-0.5246806,-0.69957936,-32.038902,-15.767424,-15.416073
0.983012,-0.5327181,-0.6969278,-31.025833,-14.2675295,-13.905915
0.95150846,-0.51564556,-0.6745926,-30.031517,-13.810284,-13.4602585
0.92106897,-0.49914968,-0.6530119,-29.070786,-13.368483,-13.0296545
0.89165264,-0.48320827,-0.63215655,-28.142347,-12.941531,-12.613524
0.86322063,-0.46780026,-0.61199903,-27.244976,-12.528866,-12.211319
0.83573586,-0.4529056,-0.59251314,-26.377502,-12.12995,-11.822513
0.80916315,-0.43850517,-0.57367384,-25.538813,-11.74427,-11.446609
0.7834688,-0.4245808,-0.5554573,-24.727848,-11.371341,-11.083131
0.75862074,-0.41111505,-0.5378407,-23.943594,-11.010694,-10.731625
0.7345884,-0.39809135,-0.52080244,-23.185085,-10.661886,-10.391658
0.71134245,-0.3854938,-0.5043217,-22.451395,-10.3244915,-10.062815
0.6888549,-0.3733072,-0.48837864,-21.741642,-9.998105,-9.7447
0.6670988,-0.3615171,-0.47295424,-21.05498,-9.682336,-9.436934
0.6460487,-0.35010952,-0.4580303,-20.390594,-9.376812,-9.139154
0.62567985,-0.33907115,-0.4435894,-19.747713,-9.081177,-8.851012
0.6059687,-0.3283892,-0.42961472,-19.12559,-8.795088,-8.572174
0.5868926,-0.31805137,-0.4160903,-18.52351,-8.518215,-8.302319
0.5684298,-0.30804595,-0.40300068,-17.940786,-8.250244,-8.04114
0.5505594,-0.29836154,-0.39033112,-17.37676,-7.990872,-7.788341
0.5332614,-0.28898734,-0.3780673,-16.830801,-7.739807,-7.5436397
0.5165165,-0.27991286,-0.36619562,-16.302298,-7.4967694,-7.306762
0.50030607,-0.27112806,-0.35470292,-15.790665,-7.2614903,-7.077446
0.48461238,-0.26262322,-0.3435765,-15.29534,-7.03371,-6.8554387
0.4694181,-0.2543891,-0.3328042,-14.815779,-6.813179,-6.640497
0.4547068,-0.24641667,-0.32237428,-14.3514595,-6.5996575,-6.432388
0.44046247,-0.23869734,-0.31227547,-13.90188,-6.3929143,-6.230884
0.42666978,-0.23122273,-0.30249685,-13.466555,-6.1927257,-6.0357695
0.4133139,-0.22398487,-0.2930279,-13.045017,-5.9988775,-5.846834
0.40038058,-0.21697597,-0.28385854,-12.636815,-5.8111615,-5.663876
0.387856,-0.21018861,-0.27497897,-12.241514,-5.629379,-5.486701
0.3757269,-0.20361556,-0.26637977,-11.858696,-5.4533362,-5.31512
0.3639805,-0.19724989,-0.2580519,-11.487955,-5.2828474,-5.1489525
0.35260433,-0.19108488,-0.24998653,-11.1289015,-5.117733,-4.988023
0.34158653,-0.18511406,-0.2421752,-10.781157,-4.9578195,-4.832162
0.3309155,-0.17933117,-0.23460975,-10.444358,-4.802939,-4.681207
0.32058012,-0.17373018,-0.22728227,-10.118153,-4.6529307,-4.535001
0.31056964,-0.16830525,-0.22018513,-9.802202,-4.5076375,-4.39339
0.30087367,-0.16305076,-0.21331093,-9.496177,-4.366909,-4.2562284
0.2914821,-0.15796123,-0.20665258,-9.19976,-4.230599,-4.123373
0.28238523,-0.15303144,-0.20020317,-8.912645,-4.098566,-3.994687
0.27357373,-0.14825626,-0.19395605,-8.634536,-3.970675,-3.870037
0.26503843,-0.14363079,-0.18790478,-8.365146,-3.8467932,-3.7492952
0.25677064,-0.13915026,-0.18204315,-8.1041975,-3.7267935,-3.632337
0.24876182,-0.13481009,-0.17636512,-7.851423,-3.6105528,-3.5190425
0.24100378,-0.13060582,-0.17086488,-7.606563,-3.4979517,-3.4092953
0.23348857,-0.12653314,-0.1655368,-7.369368,-3.3888752,-3.3029833
0.22620851,-0.1225879,-0.16037545,-7.139595,-3.2832117,-3.199998
0.21915618,-0.11876606,-0.15537554,-6.917009,-3.1808534,-3.100234
0.21232437,-0.11506374,-0.15053198,-6.701383,-3.081696,-3.0035896
0.20570613,-0.11147716,-0.14583984,-6.4924984,-2.9856384,-2.9099665
0.19929475,-0.10800267,-0.14129435,-6.290142,-2.892583,-2.8192697
0.19308369,-0.10463674,-0.13689089,-6.0941086,-2.802435,-2.7314065
0.18706664,-0.10137597,-0.13262497,-5.904199,-2.7151031,-2.6462882
0.18123753,-0.09821703,-0.1284923,-5.7202206,-2.630499,-2.5638282
0.17559044,-0.09515673,-0.12448867,-5.541987,-2.5485363,-2.483943
0.17011964,-0.09219197,-0.12061002,-5.3693175,-2.4691327,-2.4065518
0.1648196,-0.08931975,-0.11685245,-5.2020373,-2.3922074,-2.3315763
0.15968497,-0.08653717,-0.11321214,-5.039978,-2.3176827,-2.2589405
0.15471055,-0.08384141,-0.10968542,-4.8829756,-2.2454836,-2.1885712
0.14989133,-0.08122976,-0.10626873,-4.730871,-2.175537,-2.1203976
0.14522244,-0.078699574,-0.10295861,-4.583512,-2.1077724,-2.0543504
0.14069918,-0.07624831,-0.09975175,-4.4407487,-2.0421212,-1.9903631
0.13631697,-0.07387348,-0.096644886,-4.3024373,-1.9785175,-1.9283714
0.13207142,-0.07157271,-0.09363491,-4.168439,-1.916897,-1.8683128
0.12795824,-0.06934368,-0.090718776,-4.038619,-1.857198,-1.8101268
0.12397328,-0.067184135,-0.08789356,-3.9128458,-1.79936,-1.7537547
0.12011255,-0.065091915,-0.08515641,-3.7909935,-1.743325,-1.69914
0.11637216,-0.06306491,-0.08250458,-3.672939,-1.6890366,-1.6462276
0.112748355,-0.061101075,-0.0799354,-3.5585644,-1.6364403,-1.5949643
0.10923748,-0.059198447,-0.07744629,-3.4477541,-1.5854831,-1.5452986
0.105836004,-0.057355106,-0.075034745,-3.340397,-1.5361139,-1.4971807
0.10254053,-0.05556921,-0.07269834,-3.236385,-1.488283,-1.4505621
0.09934773,-0.053838953,-0.07043474,-3.135614,-1.4419425,-1.4053961
0.096254416,-0.05216261,-0.06824166,-3.0379827,-1.3970457,-1.3616372
0.093257464,-0.050538488,-0.066116914,-2.9433928,-1.3535477,-1.3192416
0.09035388,-0.048964966,-0.06405835,-2.85175,-1.3114048,-1.2781669
0.087540746,-0.047440458,-0.062063918,-2.7629616,-1.2705747,-1.2383716
0.084815234,-0.04596344,-0.06013161,-2.6769392,-1.2310164,-1.199816
0.08217462,-0.04453243,-0.05825949,-2.5935962,-1.1926903,-1.1624613
0.079616256,-0.043145988,-0.05644568,-2.512849,-1.155558,-1.12627
0.077137575,-0.04180273,-0.054688364,-2.4346168,-1.1195822,-1.0912061
0.07473609,-0.040501308,-0.05298578,-2.3588212,-1.0847267,-1.057234
0.0724094,-0.039240412,-0.05133622,-2.285386,-1.0509568,-1.0243201
0.07015516,-0.03801879,-0.04973803,-2.2142377,-1.0182387,-0.99243116
0.067971125,-0.03683521,-0.04818961,-2.1453052,-0.98653936,-0.9615353
0.0658551,-0.035688482,-0.04668941,-2.0785193,-0.95582724,-0.9316015
0.06380497,-0.034577467,-0.045235924,-2.013813,-0.9260714,-0.90259993
0.06181868,-0.033501048,-0.0438277,-1.9511217,-0.8972422,-0.87450135
0.059894238,-0.032458145,-0.042463325,-1.8903824,-0.8693107,-0.84727776
0.05802972,-0.031447716,-0.04114143,-1.8315344,-0.84224886,-0.8209018
0.056223255,-0.030468749,-0.0398607,-1.7745187,-0.81602967,-0.79534715
0.054473035,-0.029520264,-0.038619846,-1.7192783,-0.7906268,-0.77058816
0.052777313,-0.02860131,-0.037417624,-1.6657579,-0.76601493,-0.7466001
0.051134385,-0.027710967,-0.036252834,-1.6139039,-0.7421693,-0.7233588
0.04954261,-0.026848344,-0.035124313,-1.5636642,-0.71906614,-0.7008412
0.04800039,-0.026012579,-0.03403092,-1.5149888,-0.6966822,-0.67902464
0.04650619,-0.025202835,-0.032971576,-1.4678288,-0.67499524,-0.65788734
0.045058504,-0.0244183,-0.03194521,-1.4221369,-0.6539834,-0.6374081
0.04365589,-0.02365819,-0.030950796,-1.3778677,-0.6336258,-0.61756635
0.042296946,-0.022921745,-0.029987343,-1.3349766,-0.6139019,-0.5983424
0.04098031,-0.022208227,-0.029053882,-1.2934208,-0.59479207,-0.5797169
0.039704658,-0.021516921,-0.028149482,-1.2531588,-0.5762772,-0.5616713
0.038468722,-0.020847136,-0.027273238,-1.2141501,-0.5583387,-0.5441874
0.03727126,-0.020198204,-0.026424272,-1.1763558,-0.54095864,-0.5272479
0.03611108,-0.019569471,-0.025601735,-1.1397382,-0.5241196,-0.5108357
0.034987014,-0.018960314,-0.024804804,-1.1042604,-0.5078048,-0.49493438
0.03389794,-0.018370118,-0.024032684,-1.069887,-0.49199793,-0.4795281
0.03284277,-0.017798297,-0.023284597,-1.0365838,-0.47668308,-0.46460143
0.031820446,-0.017244276,-0.0225598,-1.0043173,-0.461845,-0.45013943
0.030829951,-0.0167075,-0.021857565,-0.9730551,-0.44746882,-0.43612763
0.029870287,-0.016187435,-0.021177191,-0.94276625,-0.43354017,-0.422552
0.028940497,-0.01568356,-0.020517996,-0.9134202,-0.4200451,-0.40939897
0.02803965,-0.015195369,-0.01987932,-0.88498765,-0.40697014,-0.39665538
0.027166845,-0.014722375,-0.019260528,-0.85744023,-0.3943022,-0.3843085
0.026321212,-0.014264105,-0.018660996,-0.8307503,-0.38202855,-0.37234595
