ax,ay,az,gx,gy,gz
-4.4673133,2.601842,-9.974636,32.571205,-82.6753,-24.802954
-4.31803,2.9216266,-10.361224,28.684566,-102.056404,-34.67966
-4.0963283,2.814133,-10.626794,19.335838,-122.70625,-44.261963
-3.8186362,2.3186097,-10.791111,17.022936,-139.12103,-48.039352
-3.5211678,1.8790848,-11.126118,14.49504,-157.91539,-49.736526
-3.157062,1.4603814,-11.267757,12.651807,-177.7099,-48.859013
-2.7174532,1.1870042,-11.091096,11.386129,-194.92711,-47.356236
-2.2310703,0.97111005,-10.641954,11.328181,-206.54199,-45.938194
-1.6068772,0.7178036,-9.983485,16.244068,-211.30421,-45.350414
-1.0429343,0.6359197,-9.351533,20.94997,-213.46172,-45.543007
-0.54662275,0.65784687,-8.652478,23.823599,-214.74632,-46.378845
-0.079015836,0.64734936,-7.884812,25.210096,-215.7959,-47.56269
0.4528896,0.545991,-7.068172,25.219707,-216.02293,-47.899014
1.1811811,0.37317362,-6.151743,25.860252,-214.3811,-46.772842
1.9728111,0.2588475,-5.1925,27.09563,-210.21977,-43.466236
2.764035,0.23189753,-4.2375546,27.810469,-203.78372,-39.460056
3.4867647,0.21441911,-3.3182564,28.067944,-194.90158,-35.6278
4.107188,0.19097744,-2.4577243,27.91665,-181.8229,-31.541132
4.551216,0.20822918,-1.7510535,28.07483,-167.20314,-27.227587
4.8170815,0.2769451,-1.226771,27.856995,-152.83281,-23.08347
4.919227,0.35464868,-0.8487047,27.38993,-139.28099,-19.468592
4.902817,0.42067665,-0.5762223,26.931446,-126.38663,-16.206268
4.802452,0.47861636,-0.3989744,26.345057,-113.9018,-13.389858
4.6040587,0.51684713,-0.3340541,25.531048,-102.06738,-10.756011
4.3543944,0.54632664,-0.34021133,24.306858,-90.891785,-8.146721
4.0670915,0.5747862,-0.40291968,22.60766,-80.438225,-5.4271965
3.7409108,0.6150501,-0.5282788,21.661161,-71.10824,-3.0666852
3.369759,0.68399876,-0.7002258,20.51737,-63.843433,-1.6292025
2.9897306,0.75819796,-0.86872506,19.597034,-57.98991,-0.64961934
2.6313016,0.8491819,-1.0194901,18.643724,-53.27566,0.1454076
2.3057265,0.9612431,-1.1546482,17.510128,-49.590492,0.5059076
2.0111892,1.0835446,-1.275509,16.19916,-47.031292,0.40337482
1.7476056,1.2163514,-1.3757404,15.047679,-45.81349,-0.3040455
1.5048908,1.3905439,-1.4393886,13.615386,-45.46569,-1.4705285
1.2953793,1.5894754,-1.4615483,11.806662,-45.73848,-3.300188
1.1299077,1.7912695,-1.4411086,9.455721,-46.331486,-5.617193
1.0120567,1.9917557,-1.3780924,6.505663,-46.993813,-8.015653
0.920756,2.1880772,-1.2906396,2.7840343,-47.53451,-11.171764
0.83403504,2.3434641,-1.2022601,-1.1689245,-47.999588,-15.098456
0.7471901,2.4647722,-1.1355547,-5.107716,-48.681557,-19.608093
0.6788994,2.5531223,-1.0851002,-9.709248,-49.511116,-24.285715
0.65831304,2.585115,-1.0350206,-14.597996,-50.30544,-28.800455
0.71982056,2.543399,-0.9684517,-19.344284,-50.261578,-32.8659
0.88598585,2.398494,-0.8921105,-23.46044,-49.0679,-36.918472
1.0874517,2.1693256,-0.8258849,-27.191732,-46.94671,-41.39854
1.2979162,1.8290433,-0.7645901,-30.378447,-44.140316,-46.246483
1.5154041,1.3937955,-0.71193284,-32.089664,-40.979885,-49.6768
1.7082814,1.004282,-0.67077774,-32.90658,-38.636524,-49.042706
1.8195559,0.7359154,-0.6490331,-33.649204,-37.242252,-46.38008
1.8691732,0.53235555,-0.63384277,-34.470097,-36.318954,-42.67201
1.8877848,0.3891712,-0.609868,-34.98113,-35.143425,-38.848988
1.8934976,0.29660207,-0.58507025,-35.21438,-33.173233,-35.976032
1.8751738,0.21075895,-0.57688314,-35.14107,-30.183018,-34.274605
1.8006928,0.120192654,-0.61021626,-35.072548,-27.12042,-32.637127
1.6863464,0.035048213,-0.665466,-35.18652,-24.515448,-30.787607
1.5515903,-0.046004795,-0.7229391,-35.088852,-22.439447,-28.734241
1.4081997,-0.10917348,-0.77894133,-34.655556,-20.89474,-26.735683
1.2713991,-0.14980614,-0.82256395,-33.907856,-19.741896,-24.999355
1.1552787,-0.17117834,-0.84133047,-32.75822,-18.686184,-23.397001
1.0501572,-0.17511384,-0.8533717,-31.47846,-17.86479,-21.89533
0.95124346,-0.16445595,-0.8614152,-30.19624,-17.353882,-20.543764
0.86120284,-0.14655773,-0.8631188,-28.978699,-17.096165,-19.484697
0.7878986,-0.13610093,-0.85610193,-27.767973,-16.894753,-18.772154
0.73257136,-0.14157914,-0.84023464,-26.439655,-16.674728,-18.188503
0.7090014,-0.13702393,-0.8132007,-25.588978,-16.13823,-17.603302
0.686236,-0.13262422,-0.7870896,-24.76734,-15.620047,-17.038074
0.6642435,-0.12837388,-0.7618649,-23.973595,-15.119454,-16.492039
0.64299387,-0.124267094,-0.73749226,-23.206661,-14.635772,-15.964446
0.62245846,-0.120298356,-0.71393883,-22.465506,-14.168347,-15.454587
0.60261023,-0.11646242,-0.69117355,-21.749151,-13.716562,-14.961788
0.58342326,-0.112754285,-0.66916674,-21.056664,-13.27983,-14.485408
0.5648729,-0.10916919,-0.6478902,-20.387154,-12.85759,-14.024836
0.54693586,-0.10570261,-0.62731695,-19.739777,-12.449307,-13.579488
0.52958953,-0.102350205,-0.60742134,-19.113722,-12.054473,-13.148809
0.5128127,-0.099107854,-0.5881788,-18.508217,-11.672599,-12.732268
0.49658477,-0.0959716,-0.569566,-17.922527,-11.303221,-12.329357
0.4808863,-0.092937656,-0.55156034,-17.355944,-10.945893,-11.93959
0.46569854,-0.09000242,-0.53414047,-16.807793,-10.60019,-11.562504
0.45100355,-0.08716242,-0.5172858,-16.277428,-10.265704,-11.197652
0.43678415,-0.08441433,-0.5009767,-15.764228,-9.942043,-10.844608
0.42302388,-0.081754975,-0.48519412,-15.267598,-9.628834,-10.502965
0.40970695,-0.079181306,-0.46992004,-14.786969,-9.325715,-10.172328
0.39681816,-0.076690376,-0.455137,-14.321792,-9.032341,-9.852321
0.38434294,-0.07427937,-0.44082835,-13.871542,-8.748381,-9.5425825
0.37226728,-0.07194559,-0.426978,-13.435712,-8.473516,-9.242764
0.36057773,-0.06968643,-0.41357046,-13.013818,-8.207439,-8.952533
0.3492613,-0.067499384,-0.40059093,-12.605391,-7.9498563,-8.671565
0.3383056,-0.06538204,-0.3880251,-12.209982,-7.7004833,-8.399553
0.32769856,-0.063332096,-0.37585917,-11.827157,-7.459047,-8.136199
0.31742865,-0.0613473,-0.36407995,-11.4565,-7.225284,-7.8812146
0.30748478,-0.05942551,-0.35267463,-11.0976095,-6.998942,-7.6343246
0.29785615,-0.057564653,-0.34163094,-10.750097,-6.7797766,-7.3952622
0.28853247,-0.05576273,-0.330937,-10.413591,-6.5675516,-7.1637716
0.27950376,-0.054017812,-0.3205814,-10.087731,-6.3620415,-6.9396043
0.27076045,-0.052328046,-0.31055307,-9.772171,-6.1630263,-6.722522
0.2622932,-0.05069164,-0.30084142,-9.466574,-5.970295,-6.5122943
0.25409305,-0.049106855,-0.29143617,-9.170618,-5.7836447,-6.308699
0.24615142,-0.047572028,-0.28232735,-8.883992,-5.6028776,-6.1115217
0.23845993,-0.046085548,-0.2735055,-8.606395,-5.427805,-5.920555
0.23101054,-0.044645853,-0.2649613,-8.337534,-5.2582426,-5.7355995
0.22379547,-0.043251444,-0.25668585,-8.077131,-5.0940137,-5.5564613
0.2168072,-0.04190087,-0.24867055,-7.8249135,-4.934947,-5.3829546
0.21003847,-0.040592723,-0.24090703,-7.5806193,-4.780878,-5.2148986
0.20348226,-0.039325647,-0.23338729,-7.343995,-4.631646,-5.052119
0.1971318,-0.038098335,-0.22610351,-7.114797,-4.4870973,-4.894448
0.19098051,-0.036909517,-0.2190482,-6.8927875,-4.347082,-4.7417216
0.18502209,-0.035757974,-0.21221408,-6.677738,-4.211457,-4.593784
0.17925037,-0.03464251,-0.20559412,-6.469428,-4.0800815,-4.4504824
0.17365944,-0.033561993,-0.19918153,-6.267643,-3.9528217,-4.3116693
0.1682436,-0.032515306,-0.19296972,-6.0721765,-3.8295465,-4.1772027
0.16299726,-0.031501383,-0.18695235,-5.8828278,-3.71013,-4.046945
0.15791509,-0.030519186,-0.18112327,-5.6994042,-3.5944498,-3.9207635
0.15299188,-0.029567711,-0.17547652,-5.521718,-3.4823883,-3.7985287
0.14822263,-0.02864599,-0.17000635,-5.3495884,-3.373831,-3.6801162
0.14360248,-0.027753083,-0.16470718,-5.1828394,-3.2686672,-3.5654056
0.13912672,-0.026888084,-0.15957364,-5.021302,-3.1667905,-3.4542801
0.13479081,-0.026050111,-0.1546005,-4.8648124,-3.0680969,-3.3466268
0.13059033,-0.025238317,-0.14978272,-4.713211,-2.9724863,-3.2423363
0.12652107,-0.024451874,-0.14511539,-4.5663443,-2.8798616,-3.141303
0.12257885,-0.023689989,-0.1405938,-4.4240637,-2.7901294,-3.0434246
0.118759714,-0.02295189,-0.13621338,-4.286225,-2.7031984,-2.948602
0.11505978,-0.02223683,-0.13196969,-4.1526885,-2.618981,-2.856739
0.11147532,-0.021544084,-0.12785843,-4.0233197,-2.5373917,-2.7677429
0.1080027,-0.020872956,-0.123875454,-3.8979876,-2.4583483,-2.6815238
0.10463843,-0.020222764,-0.120016746,-3.7765656,-2.381771,-2.5979946
0.1013791,-0.019592855,-0.1162784,-3.6589313,-2.3075824,-2.5170708
0.09822143,-0.018982595,-0.11265666,-3.544966,-2.2357078,-2.4386714
0.095162235,-0.018391363,-0.10914787,-3.4345548,-2.1660748,-2.3627167
0.09219843,-0.01781857,-0.10574849,-3.3275864,-2.0986128,-2.2891304
0.08932704,-0.017263634,-0.102455094,-3.2239535,-2.0332544,-2.2178385
0.08654516,-0.016726,-0.099264376,-3.1235511,-1.9699336,-2.1487694
0.083850004,-0.016205126,-0.09617312,-3.0262787,-1.9085866,-2.0818532
0.08123886,-0.015700487,-0.09317823,-2.9320383,-1.849152,-2.0170228
0.07870909,-0.015211576,-0.090276666,-2.840735,-1.7915696,-1.954213
0.07625816,-0.014737902,-0.08746554,-2.7522771,-1.7357819,-1.8933607
0.073883615,-0.014278989,-0.08474201,-2.666576,-1.6817325,-1.8344047
0.071583055,-0.013834376,-0.08210335,-2.5835452,-1.6293675,-1.7772858
0.069354184,-0.013403616,-0.079546906,-2.5031016,-1.578634,-1.7219466
0.06719475,-0.012986277,-0.07707011,-2.4251642,-1.5294812,-1.6683315
0.06510259,-0.01258194,-0.07467048,-2.3496552,-1.4818597,-1.6163869
0.06307562,-0.012190199,-0.0723456,-2.2764983,-1.4357218,-1.5660604
0.061111778,-0.011810662,-0.07009315,-2.2056203,-1.3910211,-1.5173017
0.059209116,-0.011442947,-0.06791086,-2.1369503,-1.3477129,-1.4700618
0.057365716,-0.011086686,-0.06579654,-2.070419,-1.3057536,-1.4242933
0.055579733,-0.010741521,-0.06374808,-2.00596,-1.2651012,-1.3799504
0.053849377,-0.010407106,-0.061763417,-1.9435087,-1.2257149,-1.3369886
0.05217291,-0.010083107,-0.059840567,-1.8830025,-1.1875553,-1.2953647
0.050548658,-0.0097691985,-0.057977602,-1.8243806,-1.1505842,-1.2550373
0.048974983,-0.009465066,-0.056172654,-1.7675843,-1.1147645,-1.2159657
0.04745032,-0.009170404,-0.054423917,-1.7125568,-1.0800601,-1.1781108
0.045973133,-0.008884918,-0.052729633,-1.6592429,-1.0464365,-1.1414349
0.044541948,-0.008608323,-0.05108811,-1.607589,-1.0138601,-1.1059009
0.043155327,-0.008340339,-0.049497705,-1.5575438,-0.9822979,-1.0714735
0.041811883,-0.008080701,-0.04795682,-1.5090567,-0.95171857,-1.038118
0.04051027,-0.007829147,-0.046463914,-1.4620795,-0.92209136,-1.0058012
0.039249185,-0.007585426,-0.045017492,-1.416565,-0.89338666,-0.97449064
0.03802737,-0.007349293,-0.04361611,-1.3724676,-0.86557573,-0.944155
0.03684359,-0.007120513,-0.042258356,-1.3297431,-0.8386307,-0.9147638
0.03569667,-0.0068988553,-0.040942878,-1.288349,-0.8125246,-0.8862877
0.03458546,-0.006684099,-0.039668355,-1.2482437,-0.7872313,-0.85869825
0.033508845,-0.006476029,-0.038433515,-1.209387,-0.7627255,-0.8319677
0.03246575,-0.006274437,-0.03723712,-1.17174,-0.7389826,-0.80606943
0.03145513,-0.006079121,-0.036077973,-1.1352651,-0.715979,-0.7809774
0.030475972,-0.005889886,-0.03495491,-1.0999258,-0.6936915,-0.7566666
0.029527297,-0.005706542,-0.033866815,-1.0656867,-0.67209786,-0.7331127
0.028608158,-0.0055289064,-0.03281259,-1.0325135,-0.65117645,-0.710292
0.027717633,-0.0053568003,-0.03179119,-1.000373,-0.6309064,-0.68818176
0.026854832,-0.0051900526,-0.030801585,-0.96923316,-0.6112674,-0.66675985
0.02601889,-0.005028496,-0.029842788,-0.9390627,-0.5922398,-0.64600486
0.025208972,-0.004871968,-0.02891384,-0.9098315,-0.5738045,-0.625896
0.024424268,-0.004720314,-0.02801381,-0.8815103,-0.55594313,-0.60641307
0.023663992,-0.00457338,-0.027141798,-0.8540707,-0.53863776,-0.5875367
0.022927383,-0.004431021,-0.026296934,-0.8274853,-0.52187115,-0.56924796
0.022213703,-0.004293093,-0.025478369,-0.80172753,-0.50562644,-0.5515285
0.021522243,-0.004159459,-0.024685286,-0.7767716,-0.48988745,-0.5343607
0.020852305,-0.0040299846,-0.02391689,-0.75259256,-0.4746384,-0.5177273
0.020203223,-0.003904541,-0.023172416,-0.72916615,-0.45986405,-0.5016117
0.019574346,-0.0037830023,-0.022451114,-0.706469,-0.4455496,-0.4859978
0.018965047,-0.0036652468,-0.021752268,-0.6844784,-0.43168077,-0.4708699
0.018374713,-0.003551157,-0.021075176,-0.6631723,-0.41824365,-0.4562129
