ax,ay,az,gx,gy,gz
-0.2390931,0.02181838,-0.7481886,6.6027875,-92.60811,38.896717
0.36272907,0.28253236,-0.31403735,8.633115,-93.47189,39.99368
-0.042110264,0.35507265,-0.37801212,14.482381,-92.8912,36.477737
-1.028658,-0.04471599,-0.62624407,23.697336,-98.58513,32.224514
-1.8396608,-0.47214082,-0.8444184,29.13764,-106.50662,26.588905
-1.9390109,-0.69023323,-0.9477804,27.790281,-113.44584,19.835278
-1.4368948,-1.0034863,-0.7728281,29.721483,-113.614,14.016249
-1.232827,-1.3368162,-0.70938855,32.858917,-111.5243,12.530974
-1.3347037,-1.7702361,-0.77972305,34.654243,-111.138535,16.124538
-1.4906977,-2.370841,-0.85870093,39.79145,-112.35787,19.897566
-1.6319447,-3.0138023,-0.93614733,50.97297,-113.91847,19.886133
-1.604725,-3.6293838,-0.96887285,63.78162,-115.85654,17.56817
-1.3717034,-4.1175666,-0.9920511,78.48986,-116.222534,14.628294
-1.1667012,-4.377802,-1.0892668,92.41494,-116.19877,13.475151
-0.9587376,-4.6217847,-1.1685678,103.71074,-115.9235,15.456651
-0.71885633,-4.852934,-1.2334884,114.64876,-114.65246,19.91855
-0.51190734,-5.047307,-1.3519099,126.66964,-112.95868,25.455011
-0.33046743,-5.0824733,-1.5038784,138.55377,-111.345406,31.049492
-0.09474247,-4.8448315,-1.6616949,149.92258,-109.58253,35.106045
0.1881912,-4.2662253,-1.8012334,158.25668,-107.46669,38.38778
0.4948459,-3.594205,-1.9088519,162.688,-104.36825,40.85761
0.7408336,-3.0086174,-2.079696,165.94888,-100.46297,42.940464
0.9240569,-2.3093855,-2.3331578,166.39073,-97.00429,44.62218
1.1476727,-1.5496094,-2.5869875,163.8706,-93.71019,45.184143
1.4234102,-0.7644433,-2.7986007,158.30676,-90.039185,44.570194
1.75918,-0.060032845,-2.921194,149.0939,-84.30363,41.811882
2.0335221,0.50438374,-3.0047107,139.53897,-76.68762,37.42282
2.1886938,1.0161524,-3.1321087,128.84142,-68.58377,32.660774
2.2048988,1.4733553,-3.2968664,117.99149,-61.703423,27.800549
2.2198856,1.8356634,-3.378664,105.82488,-55.946327,22.90758
2.3273208,2.147863,-3.33366,92.84773,-50.206703,15.583825
2.602366,2.3011036,-3.1896343,79.61777,-43.107487,6.3420377
2.9390452,2.2699234,-3.0480158,68.22405,-33.40698,-4.3029017
3.0645854,2.1574667,-3.0350118,58.238808,-23.95673,-12.344175
2.8857267,2.0237002,-3.1362545,49.963623,-17.636276,-17.366293
2.586926,1.7782651,-3.1906054,42.1526,-14.383937,-21.643955
2.3091993,1.4426196,-3.156429,36.80238,-12.540213,-28.20326
2.0905685,1.1263587,-3.126441,31.985027,-12.183344,-35.030018
2.0444295,0.8548478,-3.0671513,27.940868,-11.254985,-41.228195
2.0449257,0.6867606,-3.0319695,24.92844,-9.540051,-45.387177
1.9230602,0.5135976,-3.074476,20.894571,-8.869811,-45.30625
1.6578993,0.19443151,-3.1294851,17.64259,-9.423021,-44.175873
1.3227862,-0.16623248,-3.2077708,16.474781,-11.38639,-44.330456
0.9534418,-0.51208615,-3.3196213,16.442657,-15.19985,-45.339424
0.677374,-0.8497371,-3.4320576,16.403364,-20.40803,-46.187866
0.5623736,-1.1725729,-3.5141697,16.401752,-25.603626,-45.581833
0.49919647,-1.4563088,-3.5700796,17.756927,-30.262568,-43.060516
0.33205634,-1.6817379,-3.6575365,18.807953,-35.450336,-38.043755
0.101474114,-1.8446498,-3.7656314,20.18731,-41.718544,-32.56602
-0.10118929,-2.0082848,-3.8611867,21.518425,-49.024406,-28.088827
-0.20074587,-2.1869962,-3.916392,23.614933,-56.494446,-25.550213
-0.20333865,-2.3379571,-3.9645066,25.118671,-63.543983,-22.449669
-0.167281,-2.5105066,-3.9957588,26.357286,-70.78225,-17.230177
-0.10250919,-2.5825036,-3.9906442,28.119833,-77.61852,-9.861985
-0.012252609,-2.5354788,-3.9473584,30.498238,-83.73148,-1.9772406
0.12365545,-2.3647797,-3.8703213,32.132427,-88.725075,2.2474403
0.35687524,-2.137366,-3.7674515,33.373856,-92.872284,3.4199133
0.6895566,-1.8733358,-3.6146498,34.114365,-95.3754,5.126104
1.1275713,-1.5706091,-3.4133842,33.606045,-96.0521,8.408243
1.5709012,-1.3526772,-3.180639,33.25097,-94.41447,11.551869
1.935648,-1.1808239,-2.9542167,32.07573,-91.3913,13.284089
2.3161685,-0.996844,-2.7088957,30.219877,-86.97903,14.101443
2.6642623,-0.8308628,-2.4657693,28.028126,-81.26246,14.282831
2.9887886,-0.6835772,-2.2268817,25.018606,-74.218155,14.115523
3.300017,-0.5698225,-2.0029526,21.955338,-65.76024,13.237181
3.475236,-0.5381686,-1.8450737,20.901539,-56.934532,12.394729
3.3896282,-0.654177,-1.7397935,21.094322,-49.529278,12.345672
3.3024652,-0.75999683,-1.6008642,21.893698,-43.24497,11.981979
3.2802858,-0.80068487,-1.4309949,23.059956,-37.109524,10.90145
3.3212514,-0.82948875,-1.2584232,24.20664,-30.33667,8.802227
3.363304,-0.8635736,-1.1339481,26.172153,-22.45051,6.100551
3.1550329,-0.948704,-1.1348718,29.263987,-15.992359,4.9246044
2.8475876,-0.9858976,-1.1492923,31.381453,-11.470675,4.9736776
2.6146193,-0.90835667,-1.133013,32.709076,-7.8818974,4.701728
2.4879787,-0.756793,-1.106529,33.505863,-4.5327644,3.1606479
2.4386134,-0.6294289,-1.0949935,33.68365,-0.7929793,-0.120472506
2.4659076,-0.5847147,-1.097744,33.64917,4.0037384,-3.796214
2.4846075,-0.5896822,-1.14001,34.49868,9.781739,-7.0323787
2.3687508,-0.59688675,-1.2683113,35.669216,14.848396,-8.626638
2.1434886,-0.54259855,-1.4366627,35.826218,18.411749,-8.574029
1.9140643,-0.43565652,-1.6026027,35.65127,20.381392,-9.034578
1.6299521,-0.3283823,-1.7904584,34.77296,20.669739,-10.281528
1.362367,-0.26913378,-1.9695691,33.208622,19.493385,-12.2141695
1.1648926,-0.24998376,-2.134067,31.865284,17.700457,-14.549169
0.9946366,-0.21642882,-2.3137186,30.538107,15.276532,-16.322292
0.8293847,-0.1498453,-2.5013168,28.038273,11.663269,-16.296566
0.6865122,-0.101455875,-2.6685214,25.482218,7.4144497,-15.863635
0.56996304,-0.043943547,-2.8245306,22.27628,2.5811818,-15.722145
0.51384157,0.018510673,-2.9479525,18.429867,-2.373854,-16.258753
0.524596,0.06365485,-3.042129,14.271499,-6.84622,-17.189545
0.5147722,0.09615112,-3.1205664,10.493708,-11.100118,-17.280123
0.43436462,0.07754581,-3.1722481,6.1915956,-15.962633,-16.400724
0.38392472,0.006377901,-3.1533961,1.3952359,-21.33029,-15.585457
0.44347537,-0.1516575,-3.046178,-3.0679204,-26.360062,-15.848356
0.6110363,-0.31067288,-2.8718398,-6.544222,-29.9211,-16.60508
0.8332863,-0.42038578,-2.6539407,-8.379984,-30.329136,-16.629782
0.9520463,-0.52197915,-2.429754,-8.951851,-29.541237,-15.392423
1.0040841,-0.62574583,-2.214416,-9.129883,-28.736198,-12.631701
1.0800741,-0.74839807,-1.9932994,-9.054394,-28.248333,-9.401056
1.2152455,-0.86628383,-1.7646476,-8.28342,-27.524128,-7.469511
1.3809894,-0.961191,-1.5578359,-6.9838786,-26.05828,-6.9216743
1.5470505,-1.0451834,-1.3889076,-5.3459144,-23.666506,-5.6458464
1.6618762,-1.1045893,-1.2466407,-3.025768,-20.36472,-3.363978
1.6997743,-1.0974542,-1.1384319,-0.34789854,-16.45217,-0.7212803
1.674939,-1.0394537,-1.0682607,1.7297091,-12.498583,1.3774989
1.6092255,-0.96804506,-1.0320872,2.63563,-8.931803,2.0753899
1.559019,-0.93784285,-0.999887,2.5534003,-8.653138,2.0106394
1.5103859,-0.9085871,-0.96869576,2.4737477,-8.383206,1.947918
1.463276,-0.8802478,-0.9384816,2.3965902,-8.121729,1.8871614
1.4176414,-0.8527958,-0.90921354,2.3218486,-7.8684397,1.8283072
1.3734351,-0.8262031,-0.8808616,2.2494464,-7.6230783,1.7712952
1.3306121,-0.8004425,-0.8533967,2.1793098,-7.3853946,1.7160671
1.2891285,-0.77548766,-0.826791,2.111367,-7.1551456,1.6625664
1.2489423,-0.7513132,-0.8010172,2.045549,-6.9320965,1.6107389
1.2100122,-0.7278945,-0.77604926,1.9817884,-6.71602,1.5605315
1.1722989,-0.7052077,-0.7518616,1.9200206,-6.506697,1.5118934
1.135764,-0.68322974,-0.7284296,1.8601828,-6.303915,1.4647748
1.1003704,-0.66193837,-0.7057297,1.8022143,-6.107467,1.4191283
1.0660821,-0.64131194,-0.6837387,1.7460561,-5.9171543,1.3749074
1.0328646,-0.6213296,-0.6624344,1.6916516,-5.7327847,1.3320674
1.000684,-0.6019711,-0.6417952,1.6389455,-5.5541706,1.2905647
0.969508,-0.58321685,-0.62180024,1.5878844,-5.3811316,1.2503574
0.9393048,-0.56504786,-0.6024293,1.538417,-5.213493,1.2114049
0.91004413,-0.54744583,-0.58366275,1.4904932,-5.0510855,1.173668
0.88169634,-0.53039294,-0.5654817,1.4440644,-4.8937445,1.1371083
0.85423285,-0.51387197,-0.5478678,1.399084,-4.7413116,1.1016891
0.82762593,-0.49786633,-0.53080326,1.3555065,-4.593633,1.0673746
0.80184877,-0.48235983,-0.5142709,1.313288,-4.4505606,1.0341302
0.7768754,-0.46733686,-0.4982541,1.272386,-4.311949,1.0019226
0.75268066,-0.4527823,-0.48273665,1.2327592,-4.177659,0.97071904
0.72924024,-0.43868148,-0.46770298,1.194368,-4.047556,0.94048834
0.7065305,-0.42502022,-0.45313796,1.1571734,-3.9215086,0.9112
0.68452865,-0.4117848,-0.43902692,1.1211382,-3.79939,0.8828246
0.66321254,-0.39896187,-0.42535567,1.0862261,-3.6810775,0.85533357
0.6425607,-0.3865386,-0.4121105,1.0524021,-3.5664523,0.8286993
0.6225525,-0.37450245,-0.3992781,1.0196321,-3.455399,0.802895
0.6031677,-0.36284134,-0.38684553,0.9878832,-3.3478062,0.7778948
0.58438694,-0.35154358,-0.37480035,0.9571236,-3.243566,0.75367355
0.5661913,-0.3405978,-0.36313048,0.92732227,-3.1425734,0.73020697
0.5485625,-0.32999307,-0.35182413,0.8984495,-3.044727,0.70747143
0.53148293,-0.31971866,-0.34087005,0.87047607,-2.949929,0.68544424
0.51493543,-0.30976436,-0.33025718,0.84337413,-2.858084,0.66410315
0.49890333,-0.3001201,-0.3199749,0.8171164,-2.7691,0.6434269
0.48337063,-0.29077625,-0.3100129,0.7916765,-2.6828878,0.6233946
0.4683217,-0.28172344,-0.3003612,0.76702905,-2.5993607,0.6039863
0.45374152,-0.2729526,-0.29101008,0.7431492,-2.518435,0.5851825
0.4396154,-0.26445487,-0.2819502,0.72001314,-2.4400299,0.56696427
0.42592925,-0.25622183,-0.2731725,0.6975976,-2.3640666,0.5493135
0.4126693,-0.24824518,-0.26466814,0.67588013,-2.290469,0.5322123
0.3998223,-0.24051693,-0.25642863,0.654839,-2.2191632,0.5156438
0.38737532,-0.23302935,-0.24844569,0.63445306,-2.1500778,0.49959117
0.37531596,-0.22577493,-0.24071135,0.6147019,-2.083144,0.4840384
0.36363214,-0.21874641,-0.23321784,0.59556586,-2.0182943,0.46896997
0.35231212,-0.21193674,-0.22595766,0.5770256,-1.9554639,0.45437074
0.34134457,-0.2053391,-0.21892355,0.55906266,-1.8945899,0.44022608
0.33071852,-0.1989469,-0.21210846,0.54165906,-1.8356113,0.42652184
0.3204233,-0.19275372,-0.20550558,0.5247973,-1.7784692,0.4132443
0.31044865,-0.18675338,-0.19910827,0.5084606,-1.7231061,0.4003802
0.30078456,-0.18093985,-0.19291013,0.4926325,-1.6694669,0.38791656
0.29142135,-0.17530732,-0.186905,0.47729722,-1.6174976,0.37584102
0.28234968,-0.16985017,-0.18108681,0.4624394,-1.5671463,0.36414143
0.27356043,-0.16456291,-0.17544976,0.44804412,-1.5183626,0.3528061
0.2650448,-0.15944025,-0.16998821,0.43409705,-1.4710978,0.34182364
0.2567943,-0.15447709,-0.16469671,0.42058417,-1.4253044,0.3311831
0.24880068,-0.14966844,-0.15956993,0.40749198,-1.3809367,0.32087386
0.24105589,-0.14500949,-0.15460277,0.39480737,-1.3379503,0.31088555
0.23355222,-0.14049558,-0.14979023,0.38251767,-1.2963021,0.3012082
0.22628215,-0.1361222,-0.14512752,0.37061056,-1.2559505,0.29183212
0.2192384,-0.13188496,-0.14060996,0.35907415,-1.216855,0.2827479
0.21241392,-0.12777963,-0.13623306,0.34789684,-1.1789767,0.27394652
0.2058019,-0.12380212,-0.1319924,0.3370675,-1.1422775,0.2654191
0.19939572,-0.11994842,-0.12788375,0.3265753,-1.1067208,0.25715715
0.19318897,-0.11621468,-0.123903,0.31640974,-1.072271,0.2491524
0.18717542,-0.112597175,-0.120046176,0.3065606,-1.0388936,0.24139686
0.18134908,-0.10909228,-0.11630941,0.29701808,-1.0065552,0.23388273
0.1757041,-0.10569649,-0.11268897,0.2877726,-0.9752235,0.22660251
0.17023486,-0.10240642,-0.10918124,0.27881494,-0.94486713,0.21954891
0.16493587,-0.099218756,-0.105782695,0.27013612,-0.91545576,0.2127149
0.15980183,-0.09613033,-0.10248994,0.26172745,-0.8869599,0.20609361
0.15482761,-0.09313804,-0.09929969,0.25358054,-0.8593511,0.19967845
