ax,ay,az,gx,gy,gz
-8.48735,-3.9154904,-4.145492,49.99409,-84.950775,-52.87957
-7.8406177,-3.1443331,-4.4116025,22.945494,-104.26542,-44.260487
-6.741977,-3.3436189,-3.969317,16.910856,-110.07839,-32.541042
-6.4996233,-3.8852267,-3.810604,19.913212,-108.21776,-20.062206
-6.689113,-4.383779,-3.9614253,19.41635,-109.46973,-6.3009305
-6.579871,-4.8263354,-4.0675993,19.24352,-112.02973,6.9130955
-6.172831,-5.194667,-4.107906,21.941563,-112.8182,16.493364
-5.6208034,-5.520811,-4.1154575,25.903227,-112.00964,22.443588
-5.09861,-5.957829,-4.1348557,30.038202,-110.73905,25.121716
-4.5723863,-6.556438,-4.131916,35.633217,-109.44977,25.95739
-4.067358,-7.1017776,-4.1031017,45.62559,-107.854416,26.35993
-3.6176076,-7.320195,-4.0756965,55.82401,-106.23435,28.868801
-3.2090309,-7.3356514,-4.0293846,63.967793,-104.318504,33.70798
-2.8183486,-7.371187,-3.9434721,71.39516,-102.2192,38.97616
-2.4438524,-7.416065,-3.835841,79.818954,-100.4943,42.05449
-2.0454135,-7.3422046,-3.7395844,90.452576,-98.55275,40.600815
-1.627529,-7.0899,-3.6940863,101.120766,-96.24882,38.221157
-1.2109183,-6.6377177,-3.6830404,110.31899,-93.29062,36.402386
-0.7723439,-6.0142794,-3.6797853,117.70526,-89.93529,34.713448
-0.34483442,-5.287703,-3.6635077,124.00614,-86.00769,32.177658
-0.013352854,-4.454076,-3.653056,128.08376,-81.34347,28.631657
0.2699572,-3.563408,-3.6278841,130.00153,-76.289185,25.527298
0.5328505,-2.6946862,-3.5802653,130.58124,-70.83457,23.098114
0.75711,-1.7615275,-3.5307813,129.55061,-65.362175,20.996542
0.982885,-0.77337635,-3.4781964,126.628044,-60.04115,18.168127
1.2027497,0.19842513,-3.4234533,121.27144,-54.62528,13.879109
1.3545924,1.0519854,-3.3785408,113.947624,-49.271767,9.12631
1.415025,1.693797,-3.3410714,105.232895,-44.09848,4.091957
1.3938795,2.1201384,-3.3111389,95.849106,-39.37913,-1.143965
1.3514272,2.3750038,-3.278847,86.484535,-35.02787,-6.561848
1.3392749,2.5978987,-3.2561994,76.50754,-30.885141,-12.283408
1.4171833,2.817746,-3.2701068,65.88453,-26.777449,-17.766287
1.4972173,2.9089231,-3.299718,55.37264,-22.850323,-23.017828
1.5160834,2.8223944,-3.3375177,45.783188,-19.366894,-28.315857
1.4759635,2.605174,-3.3690317,37.176334,-16.716164,-33.33399
1.4185011,2.321335,-3.3862696,29.91598,-15.072697,-37.462906
1.3965074,2.0572467,-3.394845,23.784294,-13.579217,-40.817642
1.3963389,1.8559172,-3.4321477,18.125902,-12.154794,-43.153934
1.3914117,1.6909597,-3.4982522,12.694806,-10.9703665,-44.660496
1.3422887,1.4858273,-3.5743363,7.1376615,-10.47997,-45.968945
1.24188,1.182213,-3.6342807,2.656283,-10.9557495,-47.740887
1.0854149,0.7694014,-3.681405,-0.9551526,-12.39964,-49.51608
0.95290387,0.328373,-3.713679,-3.0872483,-14.300579,-50.93929
0.8526334,-0.101092905,-3.745046,-4.173146,-16.4462,-51.009045
0.7660189,-0.4859599,-3.7702448,-4.603862,-18.564415,-49.345448
0.6476253,-0.82657987,-3.790704,-4.1936097,-21.081648,-46.646584
0.48817456,-1.1524941,-3.8073509,-2.9280953,-24.266104,-44.37503
0.3527607,-1.4748424,-3.8251395,-0.8284811,-28.116718,-42.821648
0.23094963,-1.7470915,-3.8598428,1.838432,-32.9806,-41.114044
0.16161658,-1.997575,-3.8910403,4.47663,-38.573364,-38.277725
0.15761597,-2.2445743,-3.8818314,8.096896,-44.123245,-33.942123
0.19937971,-2.4520676,-3.835052,11.774566,-48.990536,-29.218166
0.2518831,-2.6363058,-3.777757,16.144339,-53.016247,-24.953135
0.2501906,-2.6667309,-3.7385151,21.01781,-56.87235,-21.439224
0.22351651,-2.5654025,-3.713586,24.961927,-61.082466,-18.4624
0.24630342,-2.470477,-3.6655827,28.02766,-65.365204,-14.950577
0.36832342,-2.4507644,-3.5625072,31.421164,-68.54044,-10.814166
0.48203465,-2.4861667,-3.4404116,36.33427,-70.69082,-5.9750843
0.5205182,-2.3872707,-3.3399067,42.397396,-73.212814,-1.2894233
0.5200779,-2.06541,-3.2666535,47.002525,-76.98716,2.8003342
0.6057636,-1.6806115,-3.171102,48.063023,-80.79298,4.87828
0.86145264,-1.38788,-3.0337977,47.852505,-83.14663,6.4188066
1.194574,-1.1862183,-2.869725,48.515236,-83.57017,8.142471
1.5396295,-0.8950812,-2.7332132,49.271187,-82.394844,10.694173
1.8702322,-0.5386519,-2.6211112,49.54952,-80.05806,13.415532
2.1824536,-0.20806785,-2.5080514,49.11873,-76.37627,14.09793
2.484844,0.08876298,-2.3959138,47.60716,-71.7143,13.088644
2.7814674,0.36881787,-2.2920105,44.99853,-65.72782,11.633107
3.0320632,0.5479272,-2.177228,42.138416,-58.322693,9.830794
3.248637,0.6581625,-2.0580595,38.984756,-49.32033,7.4718413
3.4352934,0.74584407,-1.9588449,36.083874,-38.01771,4.0760074
3.3823762,0.76076114,-1.9399314,35.334393,-27.117296,0.60071486
3.126203,0.7179005,-1.9246598,33.80538,-19.096775,-2.4166248
2.850241,0.6134966,-1.851186,31.416916,-13.502662,-5.280379
2.669441,0.5049169,-1.7381178,29.464573,-8.960346,-8.334381
2.5716445,0.44773722,-1.6367872,27.618582,-4.425687,-11.346393
2.553415,0.44417328,-1.5712919,25.199957,0.59778064,-13.970693
2.5360944,0.4417675,-1.5369205,22.950594,6.439009,-16.607935
2.3685043,0.35518864,-1.5462632,22.659735,11.274109,-18.822575
2.093782,0.18918602,-1.579738,21.735554,14.122691,-20.367067
1.861387,-0.045899536,-1.5969157,21.089272,14.735319,-21.88475
1.8015937,-0.2430012,-1.6070551,21.462934,15.399324,-23.430412
1.8128057,-0.27854934,-1.6711974,22.335314,16.815767,-23.710978
1.7370144,-0.22527587,-1.8110594,23.50015,17.991026,-23.333973
1.5024714,-0.23202229,-1.9956125,24.13484,17.186071,-23.747604
1.2420799,-0.28452402,-2.1709678,24.059294,13.919144,-25.284536
1.0692765,-0.24104059,-2.3495755,23.020721,9.955799,-26.057919
0.99385846,-0.20000963,-2.5013173,21.31069,6.3102484,-25.703867
0.9458922,-0.16686878,-2.6237736,19.84452,3.5882943,-24.41763
0.8015146,-0.091595486,-2.7415857,18.243244,1.019796,-22.37271
0.56817955,-0.01078607,-2.8451638,15.838122,-2.6124613,-20.736885
0.33400697,0.075696826,-2.924039,12.825043,-7.0660663,-19.986227
0.16807164,0.14701365,-2.9737463,9.101127,-11.867726,-19.471416
0.08674203,0.15902928,-2.9777284,5.1187725,-16.46209,-18.63485
0.05452999,0.12530673,-2.9329414,1.0312682,-20.59624,-17.240475
0.061518375,0.04251978,-2.85051,-2.7916653,-24.02913,-15.729796
0.12496649,-0.11978379,-2.7260976,-6.100918,-26.918661,-14.507223
0.24579869,-0.31885254,-2.574196,-8.357738,-29.060877,-13.567352
0.41978806,-0.50821376,-2.404644,-9.843539,-30.414719,-12.626558
0.6636509,-0.6548144,-2.2148747,-10.77921,-30.419851,-11.381705
0.96080923,-0.7576693,-2.0122411,-11.759784,-27.74456,-9.7585535
1.2469716,-0.8421776,-1.8029872,-12.280705,-23.68202,-8.502777
1.4451262,-0.93105555,-1.6206001,-11.516197,-18.994423,-7.7800083
1.4000175,-0.9019933,-1.5700141,-11.156728,-18.401525,-7.537161
1.3563244,-0.873843,-1.5210156,-10.8085375,-17.827232,-7.301934
1.3140018,-0.84657574,-1.473554,-10.471269,-17.270954,-7.074085
1.2730061,-0.82016325,-1.4275804,-10.144574,-16.732115,-6.8533797
1.233295,-0.7945785,-1.3830473,-9.828117,-16.21016,-6.6395903
1.1948279,-0.7697952,-1.3399094,-9.521573,-15.704556,-6.432498
1.1575652,-0.74578786,-1.2981222,-9.224627,-15.214784,-6.2318897
1.1214689,-0.722532,-1.2576429,-8.9369755,-14.740342,-6.037561
1.0865021,-0.70000374,-1.2184302,-8.658325,-14.2807455,-5.849313
1.052629,-0.6781803,-1.180444,-8.388391,-13.835525,-5.666953
1.0198151,-0.65703917,-1.1436458,-8.126898,-13.404227,-5.490296
0.98802704,-0.636559,-1.1079979,-7.873579,-12.986412,-5.319161
0.95723253,-0.61671895,-1.0734642,-7.6281776,-12.5816555,-5.153375
0.9274002,-0.5974988,-1.0400094,-7.390444,-12.189546,-4.9927692
0.8984998,-0.578879,-1.0075997,-7.1601367,-11.809685,-4.83718
0.87050194,-0.5608408,-0.9762023,-6.937022,-11.441688,-4.686451
0.84337837,-0.5433658,-0.9457853,-6.720875,-11.085181,-4.5404277
0.8171016,-0.5264364,-0.9163178,-6.511475,-10.739804,-4.3989635
0.791645,-0.5100354,-0.8877702,-6.308612,-10.405209,-4.2619147
0.76698285,-0.49414623,-0.86011344,-6.112079,-10.081055,-4.129143
0.7430902,-0.47875285,-0.83331966,-5.9216795,-9.767015,-4.0005145
0.71994305,-0.46383974,-0.80736184,-5.7372193,-9.462773,-3.8758988
0.6975179,-0.44939184,-0.78221375,-5.5585136,-9.168022,-3.7551703
0.67579216,-0.43539456,-0.75785,-5.3853817,-8.882464,-3.6382074
0.654744,-0.42183378,-0.7342461,-5.2176495,-8.605812,-3.5248923
0.6343522,-0.4086959,-0.71137816,-5.055147,-8.337787,-3.4151103
0.6145962,-0.39596763,-0.6892233,-4.8977113,-8.078117,-3.3087516
0.59545606,-0.38363618,-0.66775906,-4.745184,-7.8265443,-3.2057085
0.5769126,-0.3716891,-0.64696395,-4.597411,-7.582813,-3.1058774
0.5589471,-0.36011446,-0.62681705,-4.4542446,-7.3466787,-3.0091581
0.5415416,-0.34890053,-0.6072981,-4.31554,-7.117904,-2.9154534
0.52467847,-0.33803612,-0.58838737,-4.181158,-6.8962593,-2.8246691
0.5083409,-0.32751024,-0.570066,-4.0509644,-6.681522,-2.7367136
0.4925124,-0.31731236,-0.55231553,-3.9248269,-6.4734755,-2.651499
0.47717708,-0.30743223,-0.5351181,-3.80262,-6.271911,-2.5689394
0.46231955,-0.29785994,-0.5184565,-3.6842203,-6.0766273,-2.4889522
0.4479249,-0.28858587,-0.50231403,-3.5695095,-5.8874273,-2.411457
0.4339787,-0.27960068,-0.4866744,-3.4583724,-5.704121,-2.336376
0.42046693,-0.27089542,-0.47152197,-3.3506973,-5.5265255,-2.2636337
0.40737605,-0.26246133,-0.45684153,-3.246376,-5.3544617,-2.1931574
0.39469293,-0.25428993,-0.44261834,-3.1453044,-5.1877575,-2.1248763
0.38240483,-0.24637306,-0.4288382,-3.0473807,-5.0262456,-2.0587218
0.37049946,-0.23870276,-0.41548723,-2.952507,-4.8697643,-1.994628
0.3589649,-0.23127134,-0.40255207,-2.860588,-4.7181563,-1.9325302
0.34778956,-0.22407137,-0.39001977,-2.7715318,-4.57127,-1.8723664
0.33696222,-0.21709563,-0.37787774,-2.685249,-4.428958,-1.8140763
0.3264721,-0.2103371,-0.36611384,-2.6016533,-4.291078,-1.7576014
0.31630862,-0.20378906,-0.35471627,-2.5206606,-4.1574917,-1.7028852
0.30646163,-0.19744492,-0.34367365,-2.4421902,-4.0280647,-1.6498727
0.29692128,-0.19129832,-0.33297485,-2.366163,-3.9026685,-1.5985111
0.287678,-0.18534313,-0.3226092,-2.2925034,-3.7811768,-1.5487487
0.27872252,-0.17957336,-0.3125663,-2.2211373,-3.663468,-1.5005358
0.2700459,-0.17398323,-0.30283612,-2.1519933,-3.5494242,-1.4538242
0.26163942,-0.16856718,-0.2934089,-2.0850022,-3.4389315,-1.408567
0.25349468,-0.16331975,-0.28427517,-2.020097,-3.331879,-1.3647188
0.24560355,-0.1582357,-0.27542585,-1.9572124,-3.2281594,-1.3222358
0.23795809,-0.15330994,-0.26685205,-1.8962859,-3.127669,-1.2810756
0.23055066,-0.14853753,-0.2585452,-1.8372562,-3.0303075,-1.2411969
0.22337386,-0.14391372,-0.25049695,-1.7800643,-2.9359772,-1.2025597
0.2164205,-0.13943385,-0.24269927,-1.724653,-2.8445837,-1.1651255
0.20968361,-0.13509345,-0.23514436,-1.6709669,-2.7560356,-1.1288567
0.20315646,-0.1308882,-0.22782466,-1.618952,-2.670244,-1.093717
0.19683251,-0.12681384,-0.22073282,-1.5685565,-2.5871234,-1.0596712
0.19070543,-0.12286633,-0.21386176,-1.51973,-2.5065906,-1.0266854
0.18476911,-0.11904172,-0.20720463,-1.4724234,-2.4285648,-0.9947265
0.17901759,-0.11533617,-0.20075473,-1.4265895,-2.352968,-0.96376246
0.1734451,-0.111745976,-0.19450562,-1.3821826,-2.2797246,-0.9337624
0.16804612,-0.108267546,-0.18845105,-1.3391579,-2.2087615,-0.9046962
0.16281518,-0.1048974,-0.18258496,-1.2974728,-2.1400073,-0.87653494
0.1577471,-0.10163218,-0.17690149,-1.2570852,-2.0733933,-0.84925026
0.15283678,-0.098468594,-0.17139493,-1.217955,-2.0088534,-0.822815
0.14807932,-0.09540349,-0.1660598,-1.1800429,-1.9463223,-0.79720265
0.14346996,-0.0924338,-0.16089076,-1.1433109,-1.8857379,-0.7723876
0.1390041,-0.08955656,-0.15588261,-1.1077224,-1.8270394,-0.748345
0.13467723,-0.08676889,-0.15103036,-1.0732417,-1.7701682,-0.7250509
0.13048507,-0.084067985,-0.14632916,-1.0398344,-1.7150673,-0.70248187
0.1264234,-0.08145117,-0.14177431,-1.007467,-1.6616817,-0.6806154
