ax,ay,az,gx,gy,gz
1.1745561,-1.879108,-0.33091208,5.215502,-13.205575,59.815086
0.83361727,-2.7872026,-0.5081997,2.643294,-15.69627,65.25296
0.40942413,-3.6525755,-0.45061162,15.596335,-21.412989,59.333546
0.15104823,-4.5283566,-0.228911,24.867363,-27.272707,56.716908
0.30632,-5.3579655,0.16095176,34.56872,-29.309969,55.317028
0.50270355,-5.9964314,0.49375993,43.71622,-28.772463,57.929943
0.6850086,-6.305089,0.7087414,51.37137,-26.442945,64.24463
0.8779043,-6.2619743,0.80126387,57.18009,-22.253258,72.27836
1.0438547,-6.0781617,0.80100936,63.260826,-18.632912,77.47821
1.1046863,-5.9562063,0.78328294,70.638306,-16.523384,79.99388
1.1118977,-5.810864,0.77943224,77.4054,-14.993541,81.86341
1.1620477,-5.622287,0.77577657,83.546104,-12.997153,84.38611
1.2564799,-5.3142643,0.7285765,87.84791,-9.973584,89.24194
1.4556125,-4.7999945,0.63078815,91.39767,-6.1044283,94.09834
1.6358416,-4.118636,0.48439375,94.001884,-2.31161,98.24621
1.7652342,-3.328319,0.3332432,95.724464,0.45215058,99.90943
1.8750883,-2.5328293,0.2265378,96.27416,2.398692,98.55537
2.0034478,-1.8241647,0.16317213,96.04327,5.1263995,94.624146
2.0624332,-1.1117761,0.0014030222,94.98482,8.019221,90.85815
2.0949883,-0.35170057,-0.20474978,92.66529,10.432021,86.81782
2.1179338,0.40642875,-0.41975647,89.6472,11.914727,81.434395
2.1344397,1.135783,-0.61997783,85.482765,12.481013,74.61114
2.1452687,1.7289944,-0.76506394,80.35738,12.470312,65.79747
2.150812,2.099759,-0.83134705,75.13781,12.585421,56.298725
2.1586392,2.3491948,-0.88743216,69.51553,13.122772,47.07198
2.1305504,2.503789,-0.9624062,63.41173,13.548102,38.637897
2.0852733,2.5752563,-1.0341161,57.129425,13.592134,30.360071
2.0244508,2.551,-1.0772768,50.973854,12.714731,21.802412
1.9994973,2.4122913,-1.0477662,45.895336,11.738743,13.238492
1.9991387,2.286848,-1.0255766,41.6297,11.351488,5.4929004
1.993045,2.170934,-1.0360308,38.421795,11.675084,-1.3623822
1.9248074,2.0360525,-1.1106939,35.296352,11.100713,-7.170409
1.8338082,1.8758476,-1.1964705,31.741543,9.09805,-12.044789
1.7775859,1.6970763,-1.2564253,28.011198,6.449963,-16.442787
1.7743398,1.4596351,-1.2764089,24.806705,3.8078525,-20.400255
1.7820652,1.2004113,-1.2903761,22.133123,1.4243029,-23.469765
1.7854289,0.97331035,-1.3291675,19.308393,-0.65873694,-25.287628
1.765905,0.7640183,-1.3953836,15.902116,-3.0428247,-26.041912
1.7346089,0.51846135,-1.4520562,12.759028,-5.709103,-26.714766
1.6794089,0.22233509,-1.4943241,10.326272,-8.848049,-27.440786
1.6255201,-0.09824188,-1.5148772,8.264096,-12.361733,-27.58091
1.6077094,-0.4132886,-1.5086042,6.5182853,-15.504549,-26.803911
1.5886595,-0.72019595,-1.4941097,5.155726,-17.842024,-24.416136
1.5233507,-1.0191765,-1.4981267,4.394811,-20.0156,-21.251528
1.4348562,-1.2747471,-1.5162178,4.0295134,-22.087948,-17.510504
1.3492373,-1.4765486,-1.5237162,4.27761,-24.688494,-14.22749
1.2784024,-1.6536655,-1.5198601,5.179111,-27.56307,-11.419047
1.2201166,-1.8273612,-1.5064546,6.058641,-30.743746,-7.881052
1.2144189,-1.9680223,-1.4738448,6.8155484,-33.599434,-3.2319403
1.2356967,-2.069057,-1.4172295,7.666737,-35.74642,2.1814234
1.2414743,-2.1161046,-1.3434602,8.680352,-38.01973,7.849145
1.2669318,-2.075592,-1.2400745,9.495187,-39.88604,12.762148
1.2725798,-2.0052836,-1.1318327,10.733751,-41.77929,16.364872
1.2644777,-1.9767681,-1.0372059,12.203904,-43.909954,19.80783
1.3110393,-1.9144627,-0.9303956,13.204859,-45.825928,23.74148
1.4147944,-1.7825738,-0.79940003,13.764105,-47.04091,28.031878
1.4960558,-1.6263921,-0.6651572,14.668262,-47.778057,32.061466
1.5221412,-1.460647,-0.5525445,15.857777,-48.658596,34.915314
1.51508,-1.2625505,-0.47274774,17.06649,-49.87248,36.899223
1.5313638,-1.0465423,-0.40138894,18.494694,-51.347424,37.80865
1.6255506,-0.8171673,-0.29168364,19.894333,-52.934917,37.712578
1.8528663,-0.54187995,-0.10083998,20.847523,-53.211174,36.771572
2.1285772,-0.24384548,0.121245466,21.118624,-50.655125,35.38197
2.3665185,0.016744608,0.33072606,20.74667,-46.37681,33.16069
2.5162408,0.2539095,0.46512687,19.894577,-41.200645,30.271383
2.5296226,0.39756846,0.5176533,19.577192,-36.138466,26.616459
2.47432,0.48097122,0.55689114,19.07496,-32.040344,22.406874
2.476133,0.53570837,0.65251505,18.193329,-28.162668,18.407806
2.586408,0.56886846,0.80726606,16.885204,-23.477722,14.500271
2.7547894,0.6190945,0.9577636,14.157275,-17.254368,10.451011
2.8244615,0.5442362,0.99429137,14.330316,-9.72062,6.165472
2.6456602,0.37129232,0.92220145,15.035183,-4.0961156,3.522288
2.4034815,0.23429535,0.83153677,15.395016,-0.9173882,2.1467817
2.3037214,0.24430805,0.7925733,15.247443,1.7849983,0.98499
2.2862117,0.26083472,0.7827663,15.064103,4.71575,-0.76898134
2.2913947,0.2500174,0.77527386,15.284664,8.193785,-3.4235764
2.267072,0.20718141,0.7236729,15.642723,12.029161,-6.454633
2.1465178,0.105131395,0.5907825,16.162617,14.955183,-8.388559
1.9860772,0.0062347157,0.4169228,16.118706,16.75588,-9.46238
1.8919312,-0.060045246,0.26770163,15.931877,17.9364,-10.151232
1.8498131,-0.10761423,0.13293871,15.803,18.98845,-10.854384
1.8042355,-0.16523542,-0.009696834,15.795476,19.729923,-11.609806
1.7569457,-0.21738632,-0.16743964,15.663398,20.098085,-12.170058
1.6741709,-0.26516014,-0.36617768,15.610381,19.967049,-12.570326
1.5593293,-0.31247205,-0.5779359,15.340448,18.858366,-12.637521
1.4639227,-0.3442664,-0.769107,14.61727,17.302155,-12.426584
1.4008431,-0.35357913,-0.93569046,13.38848,15.699865,-12.019358
1.3447303,-0.34518564,-1.0873657,11.526853,13.962914,-11.847198
1.2518699,-0.36631203,-1.2391675,10.00769,11.94636,-11.969469
1.1005983,-0.40431702,-1.4056375,8.487078,8.987778,-11.768412
0.9667219,-0.4238861,-1.5375956,6.339777,5.191934,-11.042191
0.9030377,-0.41631162,-1.5976374,3.941404,1.2450422,-10.428835
0.8918615,-0.41135606,-1.5831244,1.4069136,-2.2673302,-10.052708
0.8862646,-0.43487635,-1.5232593,-1.089418,-5.29042,-9.426819
0.8667678,-0.4642224,-1.4612509,-3.5564954,-8.111043,-8.511429
0.8395058,-0.5044627,-1.3936952,-5.56584,-10.99721,-7.6191907
0.83195555,-0.531616,-1.2976017,-7.569035,-14.021293,-6.7493796
0.87161934,-0.5474429,-1.1587802,-9.530055,-16.578054,-6.17406
0.96640325,-0.57130176,-0.96527463,-11.469365,-18.41728,-6.019292
1.0635769,-0.60100114,-0.7765165,-13.265661,-19.231937,-5.6710863
1.1225574,-0.6396359,-0.6210554,-14.597494,-19.229847,-4.651369
1.1365293,-0.6689686,-0.49496248,-15.702603,-19.132519,-3.2539558
1.169169,-0.6796157,-0.35818863,-16.571001,-18.922018,-2.460656
1.2197621,-0.72232884,-0.19705442,-16.52624,-18.422836,-2.5210352
1.2635245,-0.7810226,-0.052180782,-15.941908,-17.432613,-2.613787
1.3042916,-0.81338036,0.072328426,-15.280668,-15.793547,-2.1418035
1.3355441,-0.8123389,0.17786497,-14.453558,-13.358466,-1.3532819
1.3455406,-0.7753626,0.25604317,-13.536197,-10.331409,-1.2672691
1.3295542,-0.72176594,0.30282763,-12.955984,-7.4562826,-2.1548502
1.308829,-0.67477494,0.32307315,-13.073496,-4.8272715,-3.5438142
1.2887526,-0.65657115,0.32509774,-13.725953,-2.5622263,-4.9349856
1.2721416,-0.6389369,0.31421307,-14.582549,-0.49935138,-6.1303773
1.2324809,-0.61901724,0.30441707,-14.12792,-0.48378348,-5.939255
1.1940604,-0.5997205,0.2949274,-13.687507,-0.46870238,-5.7541094
1.1568412,-0.5810269,0.2857344,-13.260861,-0.45409274,-5.5747514
1.1207851,-0.56291765,0.2768287,-12.847551,-0.4399397,-5.400999
1.0858556,-0.5453742,0.2682013,-12.447155,-0.4262289,-5.232676
1.0520172,-0.5283788,0.25984338,-12.059266,-0.4129464,-5.069611
1.0192357,-0.5119142,0.2517465,-11.683492,-0.40007874,-4.9116387
0.98747784,-0.4959637,0.24390244,-11.319451,-0.38761288,-4.7585993
0.9567114,-0.48051116,0.23630327,-10.966776,-0.37553617,-4.6103377
0.9269053,-0.46554095,0.22894129,-10.625109,-0.36383644,-4.4667034
0.8980294,-0.4510379,0.22180907,-10.294104,-0.3525018,-4.3275523
0.8700545,-0.43698746,0.2148994,-9.973428,-0.34152088,-4.192743
0.8429523,-0.42337534,0.20820531,-9.662757,-0.33088252,-4.062139
0.81669563,-0.4101878,0.20172003,-9.361776,-0.32057604,-3.9356096
0.7912579,-0.39741164,0.19543703,-9.070184,-0.310591,-3.8130264
0.7666134,-0.3850339,0.18934996,-8.787684,-0.30091736,-3.6942663
0.7427375,-0.3730421,0.18345271,-8.513994,-0.2915454,-3.5792093
0.7196059,-0.36142424,0.17773932,-8.248837,-0.2824656,-3.4677398
0.69719553,-0.35016856,0.17220406,-7.991947,-0.2736689,-3.3597455
0.67548376,-0.33926374,0.16684134,-7.7430654,-0.2651464,-3.2551174
0.6544487,-0.3286988,0.16164578,-7.5019407,-0.25688955,-3.153751
0.63406926,-0.31846318,0.15661216,-7.2683315,-0.24889004,-3.0555434
0.6143249,-0.30854654,0.15173541,-7.0420027,-0.24113984,-2.9603968
0.59519595,-0.29893893,0.14701062,-6.8227267,-0.23363116,-2.868215
0.57666296,-0.28963068,0.14243308,-6.6102834,-0.22635646,-2.7789059
0.5587075,-0.2806125,0.13799815,-6.4044595,-0.2193084,-2.6923792
0.5413114,-0.27187526,0.1337014,-6.2050486,-0.21247996,-2.6085486
0.5244573,-0.26341024,0.1295385,-6.01185,-0.20586425,-2.5273297
0.5081282,-0.2552089,0.12550531,-5.82467,-0.19945464,-2.4486408
0.4923078,-0.24726307,0.121597745,-5.643321,-0.19324468,-2.3724031
0.47698024,-0.23956475,0.1178119,-5.467621,-0.18722817,-2.2985404
0.46213007,-0.23210621,0.11414398,-5.297394,-0.18139906,-2.2269783
0.44774243,-0.22487998,0.1105903,-5.132468,-0.17575152,-2.1576452
0.43380293,-0.21787882,0.10714731,-4.97268,-0.17027988,-2.0904715
0.42029756,-0.2110957,0.10381155,-4.817868,-0.16497864,-2.02539
0.4072128,-0.20452385,0.10057967,-4.6678777,-0.15984249,-1.9623352
0.39453554,-0.19815665,0.097448446,-4.5225577,-0.15486631,-1.9012442
0.38225305,-0.19198774,0.094414726,-4.381764,-0.1500451,-1.8420556
0.37035304,-0.18601093,0.09147549,-4.245354,-0.145374,-1.7847102
0.35882363,-0.18022023,0.08862777,-4.1131926,-0.14084838,-1.7291505
0.3476532,-0.17460985,0.08586872,-3.985146,-0.13646367,-1.6753209
0.33683062,-0.16917418,0.0831956,-3.8610868,-0.1322155,-1.6231674
0.326345,-0.16390775,0.0806057,-3.7408903,-0.1280996,-1.5726379
0.3161859,-0.1588053,0.07809644,-3.6244364,-0.12411186,-1.5236816
0.30634308,-0.15386173,0.07566532,-3.5116086,-0.12024829,-1.4762498
0.29680675,-0.14907207,0.07330988,-3.4022934,-0.116505004,-1.4302948
0.28756732,-0.14443155,0.07102779,-3.296382,-0.11287827,-1.3857704
0.27861556,-0.1399355,0.06881675,-3.193768,-0.10936446,-1.3426324
0.2699425,-0.13557942,0.066674545,-3.094349,-0.105960034,-1.3008375
0.26153946,-0.13135898,0.06459904,-2.9980252,-0.10266161,-1.2603438
0.25339806,-0.12726992,0.06258814,-2.9047,-0.09946588,-1.2211107
0.2455101,-0.12330818,0.060639855,-2.8142805,-0.09636963,-1.1830992
0.23786773,-0.11946978,0.058752224,-2.726676,-0.09336978,-1.146271
0.23046327,-0.115750864,0.056923356,-2.6417987,-0.090463325,-1.1105893
0.22328933,-0.11214773,0.055151425,-2.5595639,-0.08764735,-1.0760185
0.21633872,-0.108656764,0.05343466,-2.4798892,-0.08491904,-1.0425239
0.20960449,-0.10527448,0.051771335,-2.4026947,-0.08227567,-1.0100721
0.20307991,-0.10199749,0.050159793,-2.3279035,-0.07971458,-0.9786305
0.19675843,-0.09882251,0.04859842,-2.2554405,-0.077233225,-0.9481677
0.19063376,-0.095746376,0.047085654,-2.1852334,-0.07482912,-0.9186532
0.18469974,-0.092765994,0.04561998,-2.1172118,-0.07249985,-0.8900575
0.17895044,-0.089878395,0.04419993,-2.0513077,-0.07024309,-0.86235195
0.17338014,-0.08708069,0.042824086,-1.9874551,-0.06805658,-0.83550894
0.16798322,-0.08437007,0.041491073,-1.9255904,-0.065938145,-0.8095015
0.1627543,-0.08174384,0.040199555,-1.8656514,-0.063885644,-0.78430367
0.15768816,-0.07919935,0.03894824,-1.8075782,-0.061897043,-0.7598902
0.15277973,-0.07673407,0.037735883,-1.7513129,-0.059970345,-0.73623675
0.14802408,-0.07434554,0.03656126,-1.6967989,-0.05810362,-0.7133196
