ax,ay,az,gx,gy,gz
-2.5536597,0.83546215,-2.5618415,72.8543,24.136581,-5.8264165
-4.04564,1.0120112,-3.3361757,70.8873,7.343703,-10.436989
-5.2172327,1.0747018,-3.8942266,61.924194,-19.152576,-34.934906
-5.718297,0.612578,-4.1181703,52.62195,-43.04762,-56.84913
-5.577558,0.1422793,-4.1629252,44.53944,-59.85576,-71.849434
-5.179628,-0.20595768,-4.189085,42.44112,-69.11132,-79.21101
-5.0406647,-0.45045552,-4.3465014,38.962128,-76.399925,-76.12896
-5.081925,-0.7600385,-4.5333033,33.390972,-84.64725,-67.29844
-5.031342,-1.2685336,-4.67841,31.819048,-91.914955,-61.475323
-4.781521,-1.8037071,-4.746316,33.595257,-96.83357,-59.552788
-4.473477,-2.2612498,-4.838349,35.5057,-100.33181,-57.84083
-4.152774,-2.6601174,-4.930675,36.70601,-103.0565,-53.798885
-3.8493621,-3.0195742,-5.0041337,37.52611,-105.83335,-47.426067
-3.4583547,-3.4237242,-4.9689894,38.173008,-108.33528,-41.304234
-3.0135872,-3.7919233,-4.864008,39.75905,-109.65577,-35.855682
-2.5843928,-4.1170564,-4.727133,41.21095,-109.951416,-30.07204
-2.1988726,-4.3947134,-4.5424833,43.003063,-109.15414,-22.556248
-1.8370205,-4.5458446,-4.3290386,45.1596,-107.29029,-13.401271
-1.4907328,-4.5402775,-4.0659237,47.481983,-104.812836,-4.6713166
-1.211649,-4.4757175,-3.8033419,50.0052,-102.12551,2.5965936
-0.96706665,-4.4499397,-3.5354552,53.01176,-99.18613,8.603261
-0.69015443,-4.358816,-3.2618442,57.384193,-95.236176,14.295186
-0.3879198,-4.067249,-3.0253856,61.170406,-90.35367,20.460735
0.0041398853,-3.6492925,-2.769726,64.10892,-84.90866,25.297157
0.37736958,-3.2802594,-2.5183246,66.89869,-78.99403,27.88706
0.65166914,-3.0034387,-2.31068,69.55474,-73.23588,28.93236
0.86322147,-2.8248863,-2.1499925,73.13959,-67.91282,29.061436
1.084453,-2.4778047,-2.0467646,76.71066,-63.272835,29.147001
1.4140446,-1.7669142,-1.9697334,77.65735,-58.676632,28.55681
1.7980589,-1.152298,-1.8542739,76.912056,-53.379597,26.689577
2.1096208,-0.74310625,-1.7358572,75.86019,-47.15731,24.33553
2.2876103,-0.44204333,-1.6578214,74.916725,-40.58947,21.91239
2.3623044,-0.1731027,-1.6169274,74.24391,-34.52672,18.876127
2.3934612,0.16030093,-1.5997895,72.831154,-29.21472,15.229453
2.4398901,0.4701939,-1.5757587,70.57397,-24.109886,10.764944
2.4783952,0.6980108,-1.5546212,67.76978,-18.916706,5.704197
2.4608684,0.8163944,-1.5597038,64.89722,-13.858961,0.77680665
2.3329506,0.89979285,-1.5997771,62.104664,-10.373471,-3.6636312
2.16947,1.0161302,-1.6460512,58.979664,-7.646689,-8.185798
2.0178878,1.1250914,-1.6931094,55.521908,-5.3183036,-12.959353
1.8729244,1.1969563,-1.7515414,51.891895,-3.128068,-17.570528
1.7291919,1.2506568,-1.8356396,48.0622,-1.0432044,-21.85545
1.5582842,1.3258071,-1.9680775,43.486023,-0.051146634,-25.76201
1.4137006,1.3490924,-2.1246402,37.911568,-0.13974078,-29.503286
1.3287288,1.2687271,-2.2547863,32.102688,-0.75650126,-32.973934
1.2709144,1.118061,-2.363839,26.321009,-1.3092506,-35.287376
1.188079,0.91051435,-2.4703608,20.579762,-1.7823176,-35.62203
1.0334274,0.6554237,-2.5835655,14.912635,-2.901857,-33.380802
0.8604861,0.4098956,-2.6948302,9.811514,-4.6820316,-31.10027
0.7305475,0.18039943,-2.8009233,5.60086,-7.068604,-30.56111
0.64540136,-0.0685889,-2.8912475,2.2932632,-9.668923,-31.216326
0.53379494,-0.33129072,-2.975043,-0.17833556,-12.384309,-31.5616
0.36903766,-0.62188995,-3.0607643,-2.121686,-15.9548235,-29.891422
0.20125939,-0.95455384,-3.1219423,-2.8104005,-19.969736,-27.782585
0.07586263,-1.2387044,-3.1844893,-2.480734,-24.322618,-26.059498
0.034516424,-1.4219049,-3.2441065,-1.7543162,-28.549515,-24.838959
0.0481789,-1.5093776,-3.3010898,-1.2831866,-32.52795,-23.205317
0.07216277,-1.5245063,-3.3442488,-2.209276,-36.494648,-20.278494
0.07558775,-1.6133509,-3.325031,-2.8987896,-40.49073,-16.868303
0.06550361,-1.7517413,-3.2712848,-2.5499094,-44.694748,-13.75026
0.09273989,-1.8877206,-3.2076104,-1.79301,-49.145058,-10.815511
0.20477901,-2.018162,-3.1216722,-0.5030044,-53.099464,-8.072459
0.3464691,-2.0591686,-3.0330017,0.78949726,-56.156944,-5.231481
0.42986894,-1.9026514,-2.944621,0.5829914,-59.439438,-2.3213582
0.50426006,-1.793077,-2.8090832,-0.024909308,-62.829178,0.46726298
0.5966938,-1.740255,-2.635595,-0.36119074,-65.91113,2.7236567
0.7355356,-1.742298,-2.4577415,-0.17162064,-68.38969,4.2931547
0.91898555,-1.7586677,-2.286951,0.42745852,-70.14603,5.911179
1.1243738,-1.593691,-2.127714,0.13505933,-71.43009,8.492333
1.3688067,-1.3931961,-1.9359554,-1.243285,-72.091194,11.029945
1.6422848,-1.2231337,-1.6957576,-3.123733,-71.98405,12.748403
1.954445,-1.1092376,-1.4387295,-5.0407624,-70.77235,13.0611
2.305823,-1.0758246,-1.1877528,-6.7936344,-67.150894,12.758765
2.6142292,-1.148839,-0.9564286,-7.9370813,-61.58136,13.06841
2.8118672,-1.2129624,-0.7398256,-8.263784,-54.850826,14.377184
2.908673,-1.2127421,-0.5224308,-8.299708,-47.681904,15.654745
2.9607182,-1.1834767,-0.30700693,-7.9022803,-40.31272,15.636449
2.971655,-1.1615115,-0.12486826,-6.5577884,-32.539425,13.633228
2.9249964,-1.1758844,-0.010391845,-4.815879,-24.833464,11.215466
2.8475628,-1.1960031,0.06355446,-2.2201233,-17.4404,9.3782
2.7332816,-1.1537882,0.10360955,0.69367814,-10.714846,8.827007
2.6005516,-1.0462265,0.121124916,3.2695997,-5.0225735,8.910367
2.486088,-0.9329371,0.122882664,5.6186867,-0.0413426,7.37049
2.37558,-0.9242307,0.09103952,8.6157875,4.653419,4.293153
2.2358418,-0.9777299,0.005044596,12.188067,8.647447,0.99029285
2.088262,-1.0195959,-0.113966495,15.328006,11.442402,-0.9976178
1.9946352,-0.96942544,-0.2324739,17.45591,13.607954,-1.4087929
1.9406304,-0.8231419,-0.36028472,18.673565,15.671956,-1.435431
1.8038785,-0.723653,-0.52811056,19.785498,17.057873,-2.3242867
1.5594344,-0.70457816,-0.7357624,21.48568,16.63423,-4.265632
1.3345914,-0.65882355,-0.9714383,22.435913,14.629427,-6.2619805
1.2416952,-0.5475387,-1.2003934,22.224545,12.047909,-7.6961994
1.2535996,-0.39977354,-1.404568,20.474243,10.230201,-8.06284
1.2389363,-0.25518122,-1.5904548,18.531015,9.096462,-7.982425
1.103176,-0.13223866,-1.7966805,16.521294,7.431513,-7.977094
0.87891793,-0.060899444,-2.001179,13.948962,4.395222,-8.172355
0.68583894,0.0045938306,-2.1646488,10.562877,0.3689828,-8.920534
0.5966427,0.075648755,-2.2637374,6.507098,-3.570375,-9.668039
0.62346375,0.12471746,-2.2659643,2.376934,-6.3748717,-9.785527
0.6432864,0.15249828,-2.2265723,-1.4039592,-8.032854,-9.89741
0.5758149,0.102604166,-2.1797366,-4.8638825,-9.958945,-10.596728
0.51421154,-0.032842524,-2.0922492,-8.476128,-12.741228,-11.497049
0.58869594,-0.22603711,-1.9348924,-11.237474,-14.849199,-11.88889
0.80601954,-0.43720084,-1.7263216,-13.083381,-15.660266,-11.2548685
1.0356232,-0.6399591,-1.518023,-14.120848,-15.097248,-9.674982
1.222952,-0.8362017,-1.3262744,-14.308731,-13.367265,-7.54282
1.3393264,-1.0204577,-1.1586015,-13.633808,-11.0193,-5.6146235
1.3854532,-1.1571387,-1.0297486,-12.564959,-8.767781,-3.9543898
1.3873105,-1.198805,-0.94569784,-11.464869,-6.6953,-2.3956296
1.3779136,-1.2164938,-0.87622344,-10.264063,-4.632513,-0.7600581
1.3488226,-1.2205011,-0.82623017,-8.775386,-2.5372202,1.0279748
1.29601,-1.1979738,-0.80078053,-7.3237805,-0.67305267,3.0702336
1.2556052,-1.1606255,-0.7758152,-7.0954523,-0.6520694,2.9745152
1.216464,-1.1244451,-0.7516305,-6.8742642,-0.6317423,2.88179
1.1785463,-1.0893956,-0.72820187,-6.659991,-0.61205065,2.7919636
1.1418138,-1.0554416,-0.7055055,-6.452414,-0.5929744,2.7049444
1.106229,-1.0225487,-0.6835183,-6.251323,-0.57449424,2.6206443
1.0717556,-0.99068314,-0.6622179,-6.0565143,-0.5565914,2.5389776
1.038359,-0.9598128,-0.6415828,-5.8677897,-0.53924763,2.4598615
1.0060053,-0.9299064,-0.621592,-5.684958,-0.5224455,2.3832157
0.97466165,-0.90093374,-0.6022253,-5.507834,-0.5061679,2.3089628
0.9442963,-0.8728654,-0.58346313,-5.336239,-0.49039832,2.2370276
0.9148786,-0.84567297,-0.56528646,-5.1699986,-0.47512093,2.1673374
0.8863788,-0.819329,-0.547677,-5.008946,-0.46032023,2.0998218
0.85876817,-0.79380697,-0.5306169,-4.8529177,-0.4459813,2.0344124
0.83201885,-0.7690811,-0.514089,-4.7017565,-0.43208966,1.9710436
0.8061038,-0.7451264,-0.49807656,-4.5553102,-0.4186313,1.9096512
0.780997,-0.72191876,-0.48256353,-4.4134307,-0.40559262,1.8501734
0.75667304,-0.6994348,-0.4675342,-4.2759757,-0.39296055,1.7925502
0.7331075,-0.6776519,-0.4529735,-4.142806,-0.38072234,1.7367237
0.7102766,-0.656548,-0.43886673,-4.0137887,-0.36886567,1.6826376
0.68815744,-0.6361021,-0.42519972,-3.8887928,-0.35737857,1.6302376
0.6667278,-0.6162934,-0.4119587,-3.7676928,-0.34624955,1.5794709
0.64596593,-0.5971021,-0.39913034,-3.6503675,-0.3354674,1.5302863
0.6258512,-0.5785089,-0.38670182,-3.5366986,-0.32502127,1.4826347
0.60636324,-0.56049514,-0.37466058,-3.4265718,-0.31490067,1.436468
0.5874826,-0.54304266,-0.36299455,-3.3198767,-0.3050954,1.3917398
0.56919014,-0.526134,-0.35169202,-3.216506,-0.29559568,1.3484054
0.5514677,-0.50975215,-0.34074163,-3.116356,-0.28639194,1.306421
0.53429735,-0.49388063,-0.33013242,-3.019326,-0.2774749,1.2657447
0.5176619,-0.47850358,-0.3198537,-2.9253187,-0.2688357,1.2263355
0.5015447,-0.46360555,-0.30989516,-2.83424,-0.2604656,1.188154
0.48592955,-0.44917157,-0.30024683,-2.7459984,-0.2523562,1.1511618
0.47080076,-0.43518722,-0.29089904,-2.6605053,-0.24449943,1.1153219
0.4561432,-0.4216384,-0.2818424,-2.5776749,-0.23688737,1.0805982
0.44194216,-0.4085116,-0.27306783,-2.4974246,-0.22951238,1.0469562
0.42818338,-0.39579362,-0.26456654,-2.4196734,-0.2223671,1.0143617
0.41485313,-0.3834717,-0.25633004,-2.344344,-0.21544433,0.98278254
0.401938,-0.37153354,-0.24835001,-2.2713602,-0.20873715,0.9521867
0.38942507,-0.35996714,-0.2406185,-2.2006493,-0.20223884,0.9225437
0.37730178,-0.34876093,-0.23312776,-2.1321404,-0.19594291,0.8938238
0.36555603,-0.33790368,-0.22587028,-2.065765,-0.18984303,0.86599827
0.354176,-0.3273845,-0.21883878,-2.0014563,-0.18393308,0.83903915
0.34315038,-0.31719288,-0.21202624,-1.9391501,-0.17820717,0.8129195
0.33246803,-0.3073186,-0.20542581,-1.878784,-0.17265955,0.78761315
0.3221183,-0.29775178,-0.1990309,-1.8202975,-0.16728465,0.7630948
0.3120908,-0.28848284,-0.19283512,-1.7636319,-0.16207711,0.73933977
0.30237556,-0.27950248,-0.18683223,-1.7087308,-0.15703171,0.7163244
0.2929628,-0.27080172,-0.18101625,-1.655539,-0.1521434,0.69402564
0.28384307,-0.26237187,-0.17538136,-1.6040033,-0.1474073,0.67242116
0.27500728,-0.25420445,-0.16992189,-1.5540721,-0.14281864,0.65148926
0.2664466,-0.24629134,-0.1646324,-1.5056955,-0.13837284,0.6312091
0.25815243,-0.23862459,-0.15950759,-1.4588249,-0.13406546,0.6115603
0.25011647,-0.23119651,-0.15454233,-1.4134136,-0.12989217,0.5925232
0.2423307,-0.2239997,-0.14973164,-1.369416,-0.12584881,0.5740788
0.23478733,-0.21702692,-0.14507072,-1.3267882,-0.12193134,0.5562086
0.22747877,-0.21027124,-0.1405549,-1.2854875,-0.11813582,0.5388948
0.22039776,-0.20372586,-0.13617969,-1.2454726,-0.11445846,0.5221199
0.21353719,-0.19738424,-0.13194066,-1.2067032,-0.110895574,0.50586724
0.20689018,-0.19124006,-0.1278336,-1.1691409,-0.10744361,0.4901206
0.20045011,-0.18528713,-0.1238544,-1.1327479,-0.1040991,0.47486413
0.19421051,-0.17951953,-0.119999066,-1.0974878,-0.10085872,0.4600826
0.18816516,-0.17393148,-0.116263755,-1.0633254,-0.0977192,0.4457612
0.18230799,-0.16851738,-0.112644725,-1.0302263,-0.09467742,0.43188566
0.17663316,-0.16327181,-0.10913835,-0.9981578,-0.09173033,0.41844204
0.171135,-0.15818955,-0.10574113,-0.9670875,-0.08887498,0.40541694
0.16580796,-0.15326549,-0.10244966,-0.9369844,-0.08610851,0.3927973
0.16064678,-0.1484947,-0.09926066,-0.9078184,-0.08342817,0.38057047
0.15564625,-0.14387244,-0.096170925,-0.8795603,-0.08083126,0.36872426
0.15080138,-0.13939406,-0.09317736,-0.8521818,-0.07831519,0.35724682
