ax,ay,az,gx,gy,gz
-1.2181929,-2.1318376,-0.17000155,-15.70287,5.5491414,-10.653733
-1.159972,-1.6039896,-0.21002404,-0.19440843,11.047979,-9.416475
-1.4437208,-1.0749704,-0.34316063,11.72279,11.718555,-8.62198
-1.9478481,-0.44166028,-0.6983372,15.785913,5.980863,-12.727164
-2.5198736,0.32244602,-1.1232718,14.850888,-4.3035846,-22.09018
-2.9217038,0.80907804,-1.340515,13.130639,-14.530433,-34.090485
-3.1712334,1.115645,-1.5241315,13.687041,-23.26742,-45.95947
-3.371641,1.3379922,-1.8311162,11.399419,-33.727654,-58.25454
-3.547177,1.3349576,-2.3192537,12.896875,-47.735542,-70.53424
-3.588009,1.0097911,-2.9507234,17.297085,-64.09987,-82.58642
-3.360883,0.45762095,-3.4025745,25.077261,-80.238556,-93.357155
-2.8503494,-0.30618036,-3.6528,35.347557,-93.985886,-100.74745
-2.1243343,-1.2402649,-3.7029202,44.34018,-104.070984,-102.41279
-1.3325894,-2.2374396,-3.647297,51.82975,-110.192215,-93.5605
-0.5499538,-3.3034894,-3.5287912,60.087654,-112.956375,-77.35858
0.030389443,-4.125107,-3.5088024,69.30552,-114.317406,-55.038116
0.4468242,-4.5151095,-3.5485535,78.00027,-115.44678,-30.225834
0.8412105,-4.5320888,-3.4816077,84.71331,-116.78534,-6.150551
1.3287407,-4.386413,-3.1053736,90.201256,-113.533066,16.455505
1.8877896,-4.0127897,-2.5431943,94.89711,-106.24268,37.043015
2.4322426,-3.3752365,-1.9848248,96.511406,-95.56499,54.212597
2.8448946,-2.5688365,-1.6320035,93.48262,-85.20213,66.31134
3.1140206,-1.8424151,-1.3069688,87.59047,-76.28875,73.1906
3.3225775,-1.2250556,-0.8969217,84.8712,-66.28163,73.499535
3.5734909,-0.61537516,-0.4186409,83.15469,-55.12721,70.387054
3.8911197,0.049019992,0.03661394,78.570656,-42.97503,66.102104
4.1638436,0.7304597,0.27432954,69.68479,-31.60527,62.37268
4.296472,1.3175561,0.36984307,58.43533,-22.490627,58.87886
4.354416,1.8610847,0.47918907,47.23724,-14.17044,53.967213
4.392973,2.367996,0.5573011,35.75646,-6.372644,46.653595
4.4050674,2.6411276,0.63568705,27.15742,2.376988,37.340347
4.4164577,2.8089647,0.6479879,23.295763,11.83415,26.55272
4.389265,3.0270789,0.51940197,19.752222,19.614323,13.858096
4.375463,3.0207317,0.4129552,17.369753,25.996464,1.2338679
4.4872518,2.734488,0.34266526,15.159225,32.017216,-8.4517355
4.6713557,2.3206542,0.25180885,11.312024,37.88245,-14.324188
4.8295155,1.7729996,0.108734116,7.285228,43.728333,-16.642654
4.912274,1.159509,-0.103488736,4.1708646,49.25411,-16.241932
4.9332166,0.50925565,-0.31573182,3.9896865,55.454426,-13.395292
4.8716316,-0.09412505,-0.59217864,4.9128366,61.345116,-9.310047
4.7466993,-0.626235,-0.89854443,6.940359,66.76785,-3.85284
4.5755696,-1.0239646,-1.2571636,9.8922825,71.14462,2.897332
4.320478,-1.2485623,-1.6892463,12.7027855,73.37009,10.230095
3.9917407,-1.34342,-2.1177733,16.243769,72.22894,17.1972
3.6378202,-1.2844987,-2.5199769,20.281063,68.820724,22.583313
3.337657,-1.19229,-2.860909,24.86176,63.68255,26.9228
3.1169047,-1.0403061,-3.157715,29.257719,57.464928,31.039042
2.9199011,-0.79702103,-3.448056,30.870962,49.19922,35.53446
2.7683208,-0.54877913,-3.6124232,32.371765,40.492325,39.747997
2.6506274,-0.1656316,-3.7422292,33.43258,31.634552,42.96747
2.5181255,0.3539923,-3.899087,32.510857,21.382349,43.045734
2.4087098,0.8844365,-4.0240684,30.776525,10.090645,40.130264
2.3359253,1.3582692,-4.157728,29.15706,-2.297021,34.856365
2.2521722,1.7202249,-4.3369565,26.857443,-17.329329,29.5452
2.1662998,2.0988665,-4.6008525,21.857107,-34.576733,22.973728
2.1785004,2.437663,-4.846982,15.781944,-52.575005,14.4889145
2.2670386,2.7039962,-5.1324425,9.747627,-71.334015,3.7585006
2.4972994,2.8913915,-5.371342,4.5674634,-90.46137,-8.728499
2.9320557,2.92872,-5.358459,-3.005378,-106.95142,-20.768179
3.5803504,2.5825453,-4.956496,-10.4085455,-117.51155,-28.865122
4.179832,2.0398135,-4.454953,-12.889654,-121.0498,-31.317692
4.5922904,1.6086407,-4.0873723,-13.223457,-120.885124,-30.239803
4.8155026,1.3395387,-3.9439967,-11.17072,-119.03374,-26.92306
4.906801,1.1863307,-3.9178793,-7.834906,-116.992424,-23.285978
4.9972496,1.0713291,-3.8313987,-3.6984863,-113.99219,-20.598526
4.8367925,1.0369297,-3.708376,-3.5797315,-110.332,-19.937126
4.6817827,1.0036982,-3.58953,-3.465008,-106.79608,-19.298182
4.532009,0.9715891,-3.474698,-3.3541598,-103.37959,-18.680817
4.3872695,0.9405593,-3.3637261,-3.2470374,-100.07794,-18.084206
4.247373,0.9105678,-3.2564673,-3.1434996,-96.886765,-17.507557
4.112138,0.8815755,-3.1527822,-3.0434113,-93.80192,-16.950119
3.98139,0.8535453,-3.0525377,-2.946644,-90.81943,-16.41118
3.854964,0.82644165,-2.9556067,-2.8530757,-87.935524,-15.890056
3.7327023,0.80023074,-2.8618684,-2.7625895,-85.146614,-15.386096
3.614454,0.77488023,-2.7712073,-2.6750731,-82.44926,-14.89868
3.500075,0.75035924,-2.6835127,-2.590421,-79.84016,-14.427213
3.3894274,0.7266382,-2.598679,-2.5085301,-77.31618,-13.9711275
3.2823796,0.70368886,-2.5166054,-2.4293036,-74.87431,-13.529879
3.178805,0.68148416,-2.4371946,-2.3526475,-72.51167,-13.102947
3.0785825,0.65999806,-2.360354,-2.2784724,-70.2255,-12.689833
2.9815962,0.6392058,-2.2859943,-2.2066925,-68.013145,-12.290058
2.8877344,0.61908334,-2.2140303,-2.137225,-65.87207,-11.903163
2.7968905,0.5996079,-2.14438,-2.0699909,-63.799828,-11.528706
2.7089615,0.5807573,-2.0769649,-2.0049143,-61.794083,-11.1662655
2.6238487,0.56251055,-2.0117087,-1.941922,-59.852573,-10.815433
2.5414574,0.5448472,-1.9485391,-1.8809438,-57.973145,-10.475818
2.461696,0.52774763,-1.887386,-1.821912,-56.153713,-10.147043
2.384477,0.5111931,-1.828182,-1.7647618,-54.392265,-9.828749
2.3097155,0.49516547,-1.7708622,-1.7094305,-52.686886,-9.520583
2.2373302,0.47964722,-1.7153643,-1.6558579,-51.035706,-9.222214
2.1672428,0.4646216,-1.6616281,-1.6039858,-49.43694,-8.933315
2.0993774,0.4500724,-1.6095958,-1.5537584,-47.888866,-8.653576
2.0336614,0.43598396,-1.5592113,-1.5051217,-46.38982,-8.382696
1.9700245,0.42234123,-1.5104207,-1.4580238,-44.938198,-8.120387
1.9083989,0.4091297,-1.4631722,-1.4124143,-43.53246,-7.866368
1.8487191,0.39633533,-1.4174157,-1.3682451,-42.171104,-7.6203694
1.7909223,0.38394463,-1.3731028,-1.3254694,-40.8527,-7.3821325
1.7349473,0.37194452,-1.3301867,-1.2840421,-39.575855,-7.1514053
1.6807355,0.3603224,-1.2886224,-1.2439197,-38.33923,-6.9279456
1.62823,0.34906605,-1.2483664,-1.2050601,-37.14153,-6.7115192
1.577376,0.3381638,-1.2093766,-1.1674229,-35.981503,-6.5019007
1.5281206,0.32760423,-1.1716124,-1.1309688,-34.857937,-6.2988715
1.4804126,0.31737643,-1.1350346,-1.0956599,-33.769672,-6.1022205
1.4342026,0.30746973,-1.0996052,-1.0614597,-32.715572,-5.9117436
1.3894427,0.2978739,-1.0652877,-1.0283326,-31.694555,-5.7272444
1.3460866,0.2885791,-1.0320466,-0.9962446,-30.70556,-5.548532
1.3040898,0.27957568,-0.9998476,-0.9651626,-29.747574,-5.3754225
1.2634091,0.27085438,-0.9686576,-0.9350546,-28.819607,-5.2077374
1.2240027,0.2624063,-0.9384447,-0.90588975,-27.920706,-5.0453053
1.1858301,0.25422272,-0.9091777,-0.8776381,-27.049953,-4.8879595
1.1488525,0.2462953,-0.8808269,-0.85027075,-26.206455,-4.7355385
1.1130317,0.23861593,-0.8533631,-0.82375973,-25.38935,-4.5878863
1.0783316,0.23117678,-0.82675844,-0.79807794,-24.597807,-4.4448533
1.0447165,0.22397025,-0.8009857,-0.77319926,-23.831013,-4.306293
1.0121523,0.21698901,-0.7760187,-0.74909836,-23.08819,-4.172064
0.98060584,0.21022595,-0.75183195,-0.7257507,-22.368586,-4.0420303
0.95004505,0.20367423,-0.72840095,-0.7031325,-21.671463,-3.9160597
0.92043895,0.19732715,-0.70570195,-0.6812209,-20.996119,-3.7940242
0.8917575,0.19117832,-0.6837118,-0.65999365,-20.341867,-3.6758
0.86397165,0.18522148,-0.66240835,-0.6394292,-19.708044,-3.5612674
0.83705324,0.17945062,-0.64176995,-0.6195068,-19.09401,-3.4503105
0.810975,0.17385986,-0.62177575,-0.6002062,-18.49914,-3.3428168
0.7857107,0.1684436,-0.60240555,-0.5815079,-17.922834,-3.238678
0.7612347,0.16319634,-0.58363974,-0.5633931,-17.364513,-3.1377885
0.7375223,0.1581128,-0.56545943,-0.5458435,-16.82361,-3.0400467
0.7145496,0.15318783,-0.5478462,-0.52884126,-16.29958,-2.9453537
0.6922934,0.14841646,-0.53078234,-0.5123694,-15.791894,-2.8536143
0.6707313,0.1437939,-0.5142507,-0.49641117,-15.300041,-2.764736
0.64984155,0.13931547,-0.49823448,-0.48095056,-14.823525,-2.678629
0.6296031,0.13497667,-0.48271763,-0.46597204,-14.361867,-2.5952067
0.60999566,0.13077316,-0.46768457,-0.45146045,-13.914601,-2.5143852
0.59099936,0.12670067,-0.4531201,-0.43740124,-13.481278,-2.4360833
0.57259524,0.12275512,-0.43900964,-0.42378026,-13.061461,-2.3602219
0.5547647,0.11893254,-0.42533892,-0.4105838,-12.65473,-2.286725
0.5374899,0.11522909,-0.4120943,-0.39779863,-12.2606735,-2.2155185
0.5207534,0.11164106,-0.39926237,-0.38541186,-11.878897,-2.146531
0.50453836,0.108164825,-0.3868303,-0.37341106,-11.509017,-2.0796933
0.4888286,0.10479691,-0.3747856,-0.3617842,-11.150661,-2.014938
0.4736083,0.10153392,-0.36311617,-0.35051957,-10.803472,-1.9522003
0.45886216,0.098372586,-0.3518103,-0.3396059,-10.467097,-1.8914171
0.4445754,0.09530974,-0.3408566,-0.3290322,-10.141203,-1.8325276
0.4307337,0.09234231,-0.33024418,-0.3187879,-9.82546,-1.7754725
0.41732317,0.08946731,-0.3199623,-0.30886272,-9.519553,-1.7201947
0.40433037,0.08668186,-0.3100007,-0.29924667,-9.223174,-1.6666386
0.39174223,0.08398317,-0.30034935,-0.28993014,-8.936027,-1.6147507
0.37954617,0.081368536,-0.2909986,-0.2809038,-8.657823,-1.5644789
0.36772996,0.07883533,-0.28193912,-0.27215856,-8.388283,-1.5157728
0.35628173,0.07638101,-0.27316174,-0.26368567,-8.127137,-1.4685836
0.34519005,0.07400314,-0.2646577,-0.25547665,-7.874125,-1.4228638
0.33444375,0.07169931,-0.25641853,-0.2475233,-7.6289916,-1.3785679
0.32403213,0.069467224,-0.24843591,-0.23981759,-7.391492,-1.3356515
0.3139447,0.06730464,-0.24070187,-0.23235185,-7.161388,-1.2940714
0.30417138,0.0652094,-0.23320866,-0.22511858,-6.938449,-1.2537861
0.2947024,0.0631794,-0.22594877,-0.21811055,-6.722452,-1.2147552
0.28552824,0.061212618,-0.21891494,-0.21132071,-6.5131807,-1.1769396
0.27663976,0.05930707,-0.21210012,-0.2047423,-6.3104253,-1.1403015
0.26802802,0.057460852,-0.20549749,-0.19836871,-6.113983,-1.1048042
0.2596844,0.05567212,-0.19910043,-0.19219358,-5.9236574,-1.070412
0.2516006,0.053939078,-0.19290255,-0.1862107,-5.7392573,-1.0370908
0.24376845,0.052259993,-0.18689764,-0.1804141,-5.5605984,-1.0048069
0.23618016,0.05063319,-0.18107967,-0.17479797,-5.387502,-0.9735281
0.22882812,0.04905703,-0.17544286,-0.16935669,-5.2197948,-0.9432232
0.22170496,0.04752994,-0.16998152,-0.16408482,-5.0573087,-0.91386175
0.21480358,0.046050396,-0.16469023,-0.15897706,-4.8998814,-0.8854144
0.20811704,0.04461691,-0.15956365,-0.15402834,-4.747355,-0.85785276
0.20163868,0.043228056,-0.15459667,-0.14923367,-4.599577,-0.8311491
0.195362,0.04188244,-0.14978434,-0.14458828,-4.4564,-0.8052768
0.18928072,0.04057871,-0.14512181,-0.1400875,-4.31768,-0.78020996
0.18338875,0.03931557,-0.14060444,-0.13572682,-4.183278,-0.75592345
0.17768022,0.038091753,-0.1362277,-0.13150191,-4.053061,-0.732393
0.17214939,0.036906034,-0.1319872,-0.12740852,-3.9268973,-0.7095951
0.16679074,0.035757225,-0.12787871,-0.12344256,-3.804661,-0.68750685
0.1615989,0.03464418,-0.12389812,-0.11960006,-3.6862302,-0.6661062
0.15656869,0.033565782,-0.120041445,-0.115877174,-3.571486,-0.64537185
0.15169507,0.032520957,-0.11630483,-0.112270184,-3.4603138,-0.6252829
0.14697315,0.031508658,-0.11268453,-0.108775474,-3.3526025,-0.6058193
0.14239824,0.030527867,-0.10917694,-0.10538956,-3.248244,-0.5869616
0.13796572,0.029577611,-0.10577853,-0.10210904,-3.147134,-0.56869096
0.1336712,0.028656933,-0.10248591,-0.09893064,-3.0491717,-0.55098903
0.12951036,0.027764916,-0.09929578,-0.09585118,-2.954259,-0.53383815
