ax,ay,az,gx,gy,gz
-6.21642,5.899144,-7.6864333,38.507626,110.47465,-24.192038
-6.9733257,5.3387504,-6.0738626,4.310816,98.52169,-51.895714
-7.187803,3.5501077,-5.102147,9.505767,101.79255,-48.951767
-7.0306845,3.1201992,-5.450962,0.94783926,95.341,-41.196564
-6.9407744,2.7283065,-6.002248,-4.0803223,86.03123,-32.465973
-7.1938457,2.4201136,-6.906278,-3.0818684,69.68294,-34.264687
-7.404676,2.227701,-7.830112,-3.365058,47.74177,-43.47792
-7.2637196,1.6741812,-8.512463,-0.94033146,22.804955,-52.679295
-6.62675,0.6596354,-8.925123,2.5551193,-0.042662203,-57.495674
-5.8429832,-0.47312808,-9.282371,5.5342097,-21.296562,-56.538124
-5.0069585,-1.6689053,-9.539496,7.693793,-42.50936,-49.767258
-4.1580086,-2.819575,-9.599416,16.085903,-61.610523,-40.5
-3.3244376,-3.711781,-9.404498,27.41046,-76.57603,-29.49788
-2.470975,-4.411703,-8.821369,38.370407,-85.508286,-17.610605
-1.7035823,-5.001038,-8.176463,49.871044,-89.81034,-2.605473
-1.0252572,-5.2666903,-7.525775,60.331795,-92.6218,14.505845
-0.33786014,-5.031903,-6.7546077,70.2335,-92.65087,30.67809
0.3430223,-4.2389717,-5.867059,78.17303,-88.38918,40.247078
1.0028936,-3.079187,-4.8801217,83.966385,-81.39067,43.925423
1.6193937,-1.9103422,-3.887119,86.72879,-71.43975,45.61879
2.1361408,-0.70123535,-3.0655065,85.29241,-60.090366,47.342564
2.5288708,0.52265537,-2.432368,78.8169,-48.35354,48.300194
2.8244226,1.6257806,-1.979612,68.56239,-36.094032,45.585518
2.9654553,2.4582198,-1.7676612,57.706196,-24.089447,40.656574
2.987514,3.1180658,-1.7480607,46.868404,-13.216342,34.045048
2.9366329,3.5792413,-1.8122528,35.7593,-3.465949,25.95303
2.816472,3.8046362,-1.944396,25.472975,5.1409397,17.493376
2.6264071,3.822297,-2.0881326,16.101768,11.508011,9.448193
2.4549954,3.677891,-2.1857097,7.1709294,16.608326,2.0602717
2.3523972,3.3635163,-2.2210891,-2.8636262,20.582726,-3.9256058
2.3607879,2.8574047,-2.128109,-9.261625,25.367195,-9.268518
2.4292357,2.2134833,-2.021255,-12.431158,31.502289,-13.14804
2.4876964,1.4488692,-2.000514,-12.009374,38.109367,-13.545163
2.4528356,0.68242174,-2.1402214,-8.407178,43.983982,-11.830559
2.3783948,0.017197734,-2.3639033,-3.1693938,48.16606,-8.52912
2.3426373,-0.5464136,-2.576561,3.8216524,51.240444,-4.0146537
2.3379989,-0.96444845,-2.7750316,11.066613,53.741657,1.4351943
2.288706,-1.2118311,-3.0495613,16.350922,54.399708,7.8595357
2.0982213,-1.1909217,-3.450191,19.664438,52.1481,14.078354
1.831649,-0.9535031,-3.8550763,20.2577,46.40033,18.190086
1.556897,-0.645411,-4.173937,20.017054,39.067657,20.536861
1.3202953,-0.33217028,-4.4215927,20.41999,30.852879,21.201376
1.1445477,0.028626673,-4.586321,21.48661,22.65419,20.979221
0.9720207,0.49226964,-4.734939,21.01079,13.973989,20.196209
0.79897535,1.0226994,-4.8896103,19.525568,4.4953866,18.241714
0.64267117,1.5285641,-5.052601,15.714388,-6.05779,14.097625
0.5740648,1.8906862,-5.121336,10.332922,-16.76765,7.9988055
0.62084484,2.0615,-5.042199,6.283722,-25.223383,1.8755847
0.776866,2.1953034,-4.8875747,2.2571847,-31.917292,-3.1680856
0.92686415,2.289446,-4.728848,-2.5416338,-37.736485,-7.700202
1.044712,2.2654846,-4.5414305,-6.406254,-42.65175,-11.880794
1.1556432,2.1581378,-4.344677,-9.042691,-47.31238,-16.080822
1.3200518,1.9616656,-4.111773,-11.262841,-51.455322,-19.232193
1.5826923,1.6331412,-3.8271515,-12.932601,-54.559387,-21.130222
1.891684,1.2176164,-3.529329,-13.42012,-56.40359,-21.441217
2.2403212,0.8142201,-3.2026703,-13.428432,-56.880737,-20.536247
2.166652,0.78744584,-3.097356,-12.986861,-55.01031,-19.860947
2.0956447,0.76163894,-2.9958467,-12.561245,-53.207466,-19.210047
2.027181,0.73675656,-2.897974,-12.150875,-51.469204,-18.582464
1.96115,0.71275836,-2.8035789,-11.755087,-49.79271,-17.97718
1.8974473,0.68960637,-2.7125123,-11.373255,-48.175327,-17.39324
1.8359747,0.6672648,-2.6246333,-11.004789,-46.614563,-16.829742
1.7766393,0.6457,-2.53981,-10.649135,-45.108067,-16.285835
1.7193536,0.62488014,-2.4579167,-10.305765,-43.653606,-15.760717
1.6640346,0.6047751,-2.378835,-9.974184,-42.249084,-15.253628
1.6106039,0.5853563,-2.3024528,-9.653922,-40.8925,-14.763847
1.5589874,0.56659675,-2.2286637,-9.344533,-39.58198,-14.290695
1.5091141,0.5484709,-2.157367,-9.045594,-38.315723,-13.833525
1.4609174,0.5309543,-2.088467,-8.756704,-37.092026,-13.391722
1.4143332,0.51402384,-2.0218723,-8.47748,-35.90928,-12.964702
1.3693012,0.49765742,-1.9574963,-8.207559,-34.765934,-12.5519085
1.3257633,0.4818341,-1.8952564,-7.9465947,-33.66053,-12.152813
1.2836648,0.46653384,-1.8350741,-7.694257,-32.591667,-11.76691
1.2429528,0.45173752,-1.776874,-7.45023,-31.558008,-11.393718
1.2035774,0.43742692,-1.7205844,-7.2142143,-30.558283,-11.032776
1.1654903,0.4235846,-1.6661366,-6.9859214,-29.591269,-10.683644
1.1286458,0.4101939,-1.6134653,-6.765076,-28.655804,-10.345904
1.0929999,0.39723876,-1.5625074,-6.5514154,-27.75077,-10.019151
1.0585105,0.38470402,-1.5132029,-6.3446875,-26.875103,-9.702999
1.0251375,0.37257493,-1.4654942,-6.14465,-26.027775,-9.397079
0.992842,0.3608375,-1.4193258,-5.9510717,-25.207808,-9.101038
0.961587,0.3494782,-1.3746449,-5.7637296,-24.414257,-8.814534
0.9313368,0.3384841,-1.3314005,-5.5824113,-23.64622,-8.537241
0.90205735,0.3278428,-1.2895439,-5.4069104,-22.902826,-8.2688465
0.87371564,0.3175423,-1.2490277,-5.237031,-22.183243,-8.0090475
0.8462801,0.3075712,-1.209807,-5.072583,-21.486668,-7.757556
0.8197204,0.29791835,-1.1718383,-4.913385,-20.812328,-7.514092
0.7940072,0.28857318,-1.1350797,-4.75926,-20.159481,-7.278388
0.76911235,0.2795254,-1.0994911,-4.610041,-19.527412,-7.0501857
0.74500877,0.27076524,-1.0650337,-4.465565,-18.915434,-6.8292365
0.7216703,0.26228315,-1.03167,-4.325675,-18.322882,-6.615301
0.6990719,0.25406998,-0.9993642,-4.1902204,-17.749117,-6.4081492
0.6771891,0.24611692,-0.9680815,-4.0590553,-17.193523,-6.207557
0.65599865,0.23841548,-0.9377885,-3.9320405,-16.655508,-6.013312
0.6354779,0.23095745,-0.9084529,-3.8090396,-16.134495,-5.8252053
0.6156052,0.22373492,-0.8800436,-3.6899228,-15.629935,-5.6430387
0.5963594,0.21674024,-0.85253066,-3.574564,-15.141294,-5.466619
0.5777203,0.20996606,-0.82588494,-3.4628415,-14.668055,-5.295761
0.55966824,0.20340526,-0.8000786,-3.3546383,-14.2097225,-5.1302843
0.5421845,0.19705097,-0.77508444,-3.2498407,-13.765817,-4.9700165
0.5252506,0.19089654,-0.7508765,-3.1483397,-13.335874,-4.81479
0.508849,0.18493558,-0.7274295,-3.050029,-12.919446,-4.6644425
0.49296275,0.17916188,-0.7047191,-2.954807,-12.5161,-4.5188184
0.47757524,0.17356947,-0.6827218,-2.8625748,-12.125419,-4.3777666
0.46267062,0.16815254,-0.66141474,-2.7732368,-11.746997,-4.241141
0.44823352,0.16290553,-0.64077604,-2.686701,-11.380445,-4.108801
0.43424898,0.15782301,-0.62078434,-2.602878,-11.025385,-3.9806097
0.42070273,0.15289977,-0.60141915,-2.521682,-10.681451,-3.8564355
0.40758076,0.14813074,-0.58266056,-2.4430294,-10.34829,-3.7361512
0.3948697,0.14351104,-0.56448936,-2.3668396,-10.025562,-3.6196332
0.38255647,0.13903594,-0.5468869,-2.2930346,-9.712935,-3.5067625
0.37062857,0.13470086,-0.5298352,-2.2215388,-9.41009,-3.3974233
0.35907373,0.13050139,-0.5133169,-2.1522796,-9.116719,-3.2915041
0.34788024,0.12643324,-0.4973152,-2.085186,-8.832521,-3.1888974
0.3370367,0.12249227,-0.4818137,-2.02019,-8.557208,-3.0894983
0.32653204,0.118674465,-0.46679667,-1.9572253,-8.2905,-2.9932055
0.3163556,0.11497595,-0.45224884,-1.896228,-8.0321245,-2.899922
0.30649707,0.111392975,-0.4381555,-1.8371361,-7.781821,-2.809552
0.2969464,0.107921906,-0.42450228,-1.7798898,-7.539335,-2.7220047
0.287694,0.10455921,-0.41127542,-1.724431,-7.30442,-2.637191
0.27873042,0.101301506,-0.3984615,-1.6707036,-7.076839,-2.555025
0.27004665,0.09814548,-0.3860475,-1.6186533,-6.856362,-2.4754238
0.26163387,0.09508795,-0.37402096,-1.5682273,-6.6427655,-2.3983068
0.2534836,0.092125826,-0.36236966,-1.5193747,-6.4358335,-2.3235962
0.24558762,0.089256115,-0.35108188,-1.4720464,-6.2353578,-2.2512164
0.23793793,0.086475916,-0.3401462,-1.4261943,-6.041136,-2.1810944
0.23052683,0.08378244,-0.3295516,-1.3817724,-5.8529716,-2.1131594
0.22334687,0.08117296,-0.31928745,-1.3387359,-5.6706758,-2.0473433
0.21639079,0.07864485,-0.3093433,-1.2970413,-5.494064,-1.9835793
0.2096516,0.07619556,-0.29970923,-1.2566468,-5.322959,-1.9218034
0.20312251,0.07382264,-0.29037553,-1.2175115,-5.157188,-1.8619535
0.19679694,0.07152368,-0.28133276,-1.1795962,-4.996585,-1.8039691
0.19066854,0.06929638,-0.27257186,-1.1428628,-4.8409877,-1.7477924
0.18473116,0.0671385,-0.264084,-1.1072742,-4.69024,-1.6933663
0.1789788,0.065047875,-0.2558607,-1.0727947,-4.5441904,-1.6406366
0.1734057,0.0630224,-0.24789362,-1.0393897,-4.4026923,-1.5895499
0.16800627,0.06106003,-0.24017482,-1.0070256,-4.265603,-1.5400552
0.16277507,0.05915881,-0.2326965,-0.97567,-4.1327853,-1.4921026
0.15770686,0.05731682,-0.2254512,-0.9452912,-4.0041056,-1.445644
0.15279655,0.05553222,-0.21843162,-0.9158589,-3.879435,-1.4006329
0.1480392,0.053803217,-0.21163072,-0.8873435,-3.7586482,-1.357024
0.14343005,0.052128073,-0.20504166,-0.85971636,-3.641624,-1.3147736
0.13896449,0.05050511,-0.19865787,-0.8329498,-3.5282452,-1.2738391
0.13463801,0.0489327,-0.19247292,-0.807017,-3.418398,-1.2341799
0.13044629,0.047409266,-0.1864806,-0.78189194,-3.311972,-1.1957557
0.12638512,0.045933276,-0.18067493,-0.7575494,-3.2088606,-1.1585284
0.12245043,0.04450326,-0.17505006,-0.733965,-3.1089609,-1.1224606
0.118638285,0.04311778,-0.16960038,-0.7111151,-3.0121722,-1.087516
0.11494486,0.041775443,-0.16432041,-0.6889768,-2.918398,-1.0536597
0.11136646,0.04047491,-0.15920487,-0.6675279,-2.8275437,-1.0208577
0.10789949,0.03921488,-0.15424864,-0.646747,-2.739519,-0.9890771
0.104540475,0.037994083,-0.14944673,-0.62661314,-2.6542351,-0.9582862
0.10128606,0.036811303,-0.14479436,-0.60710627,-2.571607,-0.9284541
0.09813298,0.035665352,-0.14028685,-0.58820677,-2.4915519,-0.8995509
0.09507808,0.03455508,-0.13591969,-0.56989574,-2.4139893,-0.87154776
0.0921183,0.03347938,-0.1316885,-0.5521549,-2.3388417,-0.84441644
0.08925068,0.032437176,-0.12758908,-0.53496647,-2.2660341,-0.81812996
0.08647234,0.031427417,-0.12361727,-0.51831317,-2.1954935,-0.7926619
0.083780505,0.030449102,-0.11976914,-0.5021784,-2.1271489,-0.7679868
0.08117248,0.029501243,-0.11604081,-0.48654592,-2.0609324,-0.7440799
0.078645654,0.028582895,-0.11242857,-0.47140017,-1.9967774,-0.72091734
0.0761975,0.02769314,-0.108928785,-0.45672598,-1.9346198,-0.69847596
0.07382555,0.026831085,-0.10553796,-0.44250864,-1.8743973,-0.6767332
0.07152746,0.025995867,-0.1022527,-0.42873392,-1.8160498,-0.6556674
0.06930091,0.025186654,-0.099069715,-0.41538805,-1.7595187,-0.6352574
0.067143686,0.024402631,-0.09598583,-0.40245765,-1.7047476,-0.6154828
0.06505361,0.023643019,-0.092997946,-0.3899298,-1.6516817,-0.59632385
0.063028604,0.022907052,-0.09010308,-0.37779197,-1.6002676,-0.57776135
0.06106664,0.022193998,-0.08729834,-0.366032,-1.5504543,-0.55977666
0.059165753,0.021503141,-0.08458091,-0.35463813,-1.5021917,-0.5423519
0.05732404,0.020833792,-0.08194808,-0.34359896,-1.4554313,-0.5254696
0.055539664,0.020185279,-0.0793972,-0.33290344,-1.4101268,-0.50911283
0.053810835,0.019556955,-0.07692574,-0.32254088,-1.3662326,-0.49326524
0.05213582,0.01894819,-0.07453121,-0.3125009,-1.3237048,-0.47791097
0.050512955,0.018358376,-0.07221123,-0.30277345,-1.282501,-0.46303472
0.048940603,0.017786924,-0.06996346,-0.29334882,-1.2425797,-0.4486215
0.0474172,0.01723326,-0.067785665,-0.2842176,-1.2039012,-0.434657
0.04594122,0.016696831,-0.06567567,-0.2753706,-1.1664267,-0.4211272
0.044511184,0.0161771,-0.06363135,-0.266799,-1.1301187,-0.4080186
0.043125667,0.015673548,-0.061650667,-0.25849423,-1.094941,-0.395318
