ax,ay,az,gx,gy,gz
-4.9109535,-0.57818705,-5.8773265,35.62305,12.872844,-2.7191155
-5.13158,-0.070184134,-6.4127197,30.427631,-17.74723,-0.98710304
-5.1911783,-0.04136286,-6.639996,17.695013,-54.577408,1.3636392
-4.994554,-0.55488044,-6.1227183,11.824034,-85.63874,-1.9436235
-4.3310957,-0.74471414,-5.668966,3.2890809,-109.2893,-10.15861
-3.273103,-1.358729,-4.978713,0.7044461,-121.48486,-16.91149
-2.434423,-2.1202176,-4.4191203,5.2209864,-125.87189,-19.576424
-1.9300734,-2.6830468,-4.2931886,12.096911,-130.20322,-20.215004
-1.5721031,-3.36209,-4.2543807,22.065893,-135.16946,-17.26991
-1.2052567,-4.054495,-4.1983128,33.807808,-139.36884,-9.37373
-0.77411443,-4.678367,-4.1177874,46.555107,-142.2642,5.608027
-0.37349236,-4.8129067,-3.9461021,57.325535,-143.91083,21.793879
-0.0067717195,-4.6318984,-3.6696804,67.090805,-143.92143,36.041866
0.38711917,-4.295279,-3.296141,75.32843,-141.65321,48.104156
0.80053526,-3.8610504,-2.8446019,81.63602,-137.4253,58.135628
1.2424992,-3.3434515,-2.2765915,84.39412,-129.26068,67.2595
1.7339534,-2.6346152,-1.6079298,83.47549,-118.31392,75.672966
2.175953,-1.8062737,-0.97248036,78.10792,-105.39004,81.97916
2.5815442,-0.87589616,-0.3912813,70.58627,-91.8312,85.15857
2.9887536,0.11101323,0.19515981,60.25748,-77.273254,84.3406
3.4041374,1.023001,0.71460634,47.308315,-60.949978,78.611465
3.6583092,1.5701239,0.8925728,36.453384,-44.645523,69.99945
3.729078,1.8479795,0.8994265,30.792337,-29.438604,60.05297
3.727612,2.0751083,0.878935,28.021263,-15.131617,48.632828
3.71967,2.2098606,0.82458967,25.863522,-1.3831577,37.157845
3.6793962,2.195099,0.71763253,23.743174,11.480147,28.6461
3.6018414,2.0721254,0.49634072,21.091114,22.340956,22.571575
3.4890277,1.9116892,0.170052,16.703947,30.0272,18.72086
3.3513513,1.6218395,-0.13234493,11.955251,34.929283,15.570138
3.263847,1.1648169,-0.32950845,9.72998,39.68117,13.27473
3.211919,0.6665202,-0.4862843,10.674324,45.186283,12.398857
3.153086,0.15361302,-0.6547662,12.581898,50.92722,13.39188
3.0385835,-0.3146533,-0.9135092,15.422368,56.031445,16.280537
2.8285356,-0.70689714,-1.2819585,18.33563,58.53746,19.802155
2.5965912,-1.0698935,-1.5910105,21.873528,59.404827,24.36633
2.392266,-1.3471407,-1.8548832,26.310547,59.205395,30.2347
2.1997023,-1.447478,-2.122443,30.190948,57.78795,36.277473
1.9923016,-1.4069868,-2.4014795,33.697594,54.8186,41.833103
1.7626982,-1.2550713,-2.7206664,37.439194,49.42092,45.97777
1.5486532,-1.065512,-2.953968,41.32832,42.18606,49.036907
1.3687238,-0.80083007,-3.0694652,45.805134,35.47223,51.212654
1.1895219,-0.41059503,-3.1941721,48.663445,28.393536,52.116726
0.9758594,0.02361268,-3.3378637,49.585213,20.397337,52.357903
0.72523266,0.52436066,-3.522756,47.86644,10.705293,50.498306
0.4953384,1.0739326,-3.7528608,42.805046,-1.4189703,45.00301
0.37352824,1.525649,-3.893151,36.046986,-14.4751005,36.244854
0.38327804,1.8398254,-3.9584498,29.72356,-27.043255,27.06848
0.4564601,2.0813224,-4.0365305,24.73924,-39.32702,17.565628
0.57042193,2.2970266,-4.144592,19.296848,-51.87658,7.9770055
0.73375964,2.4182005,-4.245641,15.813775,-64.232895,-1.5083617
0.95626664,2.419273,-4.2520614,12.050559,-75.34621,-9.537299
1.3536291,2.2507164,-4.0496144,8.901203,-83.5923,-15.600191
1.776142,2.0084906,-3.7645307,6.5485306,-88.572426,-18.859354
2.1428251,1.7559439,-3.5027356,4.4913483,-91.13417,-19.50903
2.4219978,1.5330629,-3.3071258,3.252727,-92.2298,-18.373413
2.620006,1.3533024,-3.1480877,3.5059228,-92.153076,-16.429617
2.7838964,1.1928219,-2.9724882,5.560244,-90.69227,-14.855736
2.9299357,1.0403355,-2.795859,8.812516,-87.98807,-13.646754
2.834216,1.0063483,-2.7045197,8.524616,-85.11354,-13.200921
2.7418976,0.9735687,-2.616426,8.246945,-82.341156,-12.77093
2.6528347,0.94194496,-2.5314386,7.9790654,-79.66653,-12.356101
2.5668893,0.9114283,-2.4494262,7.7205634,-77.085526,-11.955793
2.483932,0.88197255,-2.370265,7.471049,-74.59426,-11.569404
2.4038403,0.85353434,-2.2938385,7.230153,-72.18906,-11.196362
2.3264985,0.82607245,-2.220036,6.997528,-69.866425,-10.836126
2.2517967,0.79954803,-2.1487527,6.772844,-67.62308,-10.488189
2.1796312,0.7739241,-2.0798893,6.5557876,-65.45589,-10.152062
2.109903,0.74916565,-2.0133522,6.346063,-63.361904,-9.827291
2.0425189,0.72523946,-1.9490514,6.143388,-61.338306,-9.513434
1.9773892,0.70211387,-1.8869022,5.9474945,-59.38242,-9.210081
1.9144297,0.67975867,-1.8268236,5.758127,-57.491695,-8.916834
1.8535591,0.65814537,-1.7687386,5.575044,-55.66371,-8.633318
1.7947009,0.6372465,-1.7125738,5.398013,-53.896156,-8.359174
1.7377812,0.6170359,-1.6582588,5.226813,-52.186817,-8.094059
1.68273,0.5974888,-1.6057268,5.0612326,-50.533592,-7.8376474
1.6294802,0.5785814,-1.5549138,4.9010706,-48.93446,-7.589626
1.5779676,0.56029075,-1.5057584,4.746134,-47.3875,-7.349696
1.5281309,0.54259515,-1.4582022,4.596237,-45.89087,-7.1175714
1.4799111,0.5254737,-1.4121891,4.451204,-44.442795,-6.892978
1.433252,0.5089064,-1.367665,4.310865,-43.041588,-6.6756544
1.3880994,0.49287403,-1.3245788,4.1750574,-41.685623,-6.4653473
1.3444016,0.4773582,-1.2828805,4.043625,-40.373344,-6.261816
1.3021086,0.4623412,-1.242523,3.9164183,-39.103256,-6.064828
1.2611728,0.44780603,-1.2034603,3.7932935,-37.873924,-5.8741612
1.221548,0.43373644,-1.1656489,3.674112,-36.683964,-5.689601
1.1831902,0.4201167,-1.1290464,3.5587413,-35.53205,-5.510942
1.1460569,0.4069317,-1.0936123,3.4470534,-34.416912,-5.337986
1.1101071,0.39416698,-1.0593076,3.3389254,-33.33731,-5.1705427
1.0753014,0.3818085,-1.0260947,3.2342389,-32.292072,-5.0084286
1.041602,0.3698428,-0.9939374,3.1328795,-31.280058,-4.851467
1.0089724,0.35825697,-0.9628009,3.0347376,-30.300165,-4.699488
0.9773773,0.34703848,-0.93265164,2.9397075,-29.351343,-4.552328
0.9467829,0.33617526,-0.9034572,2.847687,-28.43257,-4.409828
0.91715634,0.32565573,-0.87518644,2.7585778,-27.542864,-4.2718368
0.8884662,0.31546867,-0.84780914,2.6722848,-26.681276,-4.1382065
0.8606819,0.3056033,-0.82129633,2.5887167,-25.846897,-4.008796
0.8337742,0.29604915,-0.79561996,2.5077853,-25.03884,-3.8834682
0.80771476,0.28679618,-0.770753,2.4294047,-24.256254,-3.7620912
0.7824761,0.27783468,-0.74666935,2.3534932,-23.49832,-3.6445372
0.7580319,0.26915523,-0.7233437,2.2799711,-22.764242,-3.5306833
0.7343566,0.2607488,-0.7007518,2.2087617,-22.053255,-3.4204109
0.7114254,0.25260663,-0.67886996,2.1397905,-21.364616,-3.3136046
0.6892147,0.24472024,-0.6576756,2.0729861,-20.697613,-3.2101536
0.6677013,0.23708147,-0.6371467,2.0082793,-20.05155,-3.1099508
0.64686304,0.2296824,-0.61726207,1.945603,-19.425762,-3.0128925
0.6266784,0.22251542,-0.59800106,1.8848926,-18.819603,-2.9188786
0.6071266,0.21557312,-0.5793439,1.8260854,-18.232447,-2.827812
0.58818746,0.20884837,-0.5612714,1.7691213,-17.66369,-2.7395992
0.56984156,0.20233428,-0.54376507,1.7139415,-17.112751,-2.6541495
0.5520701,0.19602415,-0.5268069,1.6604893,-16.579062,-2.5713756
0.5348549,0.18991154,-0.5103795,1.6087104,-16.062077,-2.4911923
0.5181784,0.1839902,-0.4944661,1.5585515,-15.56127,-2.4135182
0.5020235,0.17825407,-0.4790505,1.5099617,-15.076127,-2.3382738
0.48637384,0.1726973,-0.46411693,1.4628913,-14.606155,-2.2653823
0.47121337,0.16731426,-0.44965023,1.4172925,-14.150876,-2.1947694
0.45652673,0.16209947,-0.43563566,1.3731186,-13.7098255,-2.1263635
0.44229898,0.1570476,-0.422059,1.3303251,-13.282557,-2.0600948
0.4285157,0.15215355,-0.40890643,1.2888684,-12.868634,-1.9958965
0.4151629,0.14741236,-0.39616466,1.2487066,-12.467639,-1.9337031
0.402227,0.1428192,-0.38382074,1.2097987,-12.079166,-1.8734517
0.389695,0.13836944,-0.3718622,1.1721054,-11.70282,-1.8150814
0.37755412,0.13405856,-0.3602769,1.1355888,-11.338222,-1.758533
0.36579216,0.12988225,-0.3490532,1.1002117,-10.985002,-1.7037493
0.3543972,0.12583622,-0.33817968,1.0659386,-10.642803,-1.650675
0.34335777,0.121916436,-0.32764542,1.0327346,-10.31128,-1.5992566
0.3326627,0.11811892,-0.31743976,1.0005665,-9.9901,-1.5494423
0.3223012,0.11443985,-0.3075524,0.9694017,-9.678937,-1.5011815
0.31226283,0.11087552,-0.29797342,0.9392088,-9.377478,-1.4544258
0.3025375,0.10742233,-0.2886931,0.9099574,-9.085419,-1.4091282
0.29311538,0.10407681,-0.27970216,0.881618,-8.802465,-1.3652428
0.28398702,0.100835584,-0.2709915,0.85416216,-8.528334,-1.3227255
0.27514318,0.0976954,-0.26255238,0.82756215,-8.262748,-1.2815337
0.26657504,0.0946531,-0.25437632,0.8017913,-8.00544,-1.2416259
0.25827393,0.09170562,-0.24645509,0.77682364,-7.7561517,-1.2029618
0.25023153,0.08884999,-0.2387807,0.7526341,-7.5146327,-1.1655028
0.24243975,0.08608335,-0.23134549,0.72919834,-7.2806396,-1.129211
0.23489076,0.083402924,-0.22414196,0.7064929,-7.053938,-1.09405
0.22757699,0.08080602,-0.21716286,0.68449485,-6.8343,-1.0599848
0.22049108,0.078290015,-0.2104012,0.66318226,-6.6215053,-1.0269808
0.21362594,0.0758524,-0.20385022,0.6425336,-6.4153404,-0.995005
0.20697466,0.073490724,-0.19750331,0.6225282,-6.2155976,-0.9640254
0.20053057,0.07120262,-0.19135413,0.603146,-6.022077,-0.93401074
0.19428723,0.06898578,-0.18539646,0.5843676,-5.8345847,-0.9049311
0.18823834,0.066838,-0.1796244,0.56617403,-5.6529326,-0.87675726
0.18237787,0.064757116,-0.17403209,0.5485472,-5.4769382,-0.84946096
0.17669992,0.06274104,-0.16861399,0.53146935,-5.3064256,-0.8230148
0.17119882,0.060787756,-0.1633646,0.5149234,-5.1412234,-0.7973923
0.16586903,0.058895305,-0.15827872,0.49889272,-4.981166,-0.77256775
0.16070522,0.057061788,-0.15335122,0.48336127,-4.826093,-0.7485163
0.15570223,0.055285368,-0.14857715,0.46831352,-4.67585,-0.7252139
0.15085503,0.053564265,-0.14395177,0.45373437,-4.530285,-0.70263714
0.14615877,0.051896762,-0.13947041,0.4396092,-4.389253,-0.68076336
0.14160876,0.050281182,-0.13512862,0.42592385,-4.2526126,-0.65957075
0.13720042,0.048715904,-0.130922,0.41266465,-4.120227,-0.639038
0.13292934,0.04719937,-0.12684637,0.39981833,-3.9919634,-0.6191446
0.12879124,0.045730054,-0.12289765,0.387372,-3.8676937,-0.5998707
0.124782,0.044306487,-0.11907186,0.37531316,-3.747293,-0.58119684
0.12089758,0.042927243,-0.11536521,0.36362982,-3.6306415,-0.5631044
0.11713412,0.04159094,-0.11177395,0.35231024,-3.5176215,-0.54557526
0.11348782,0.040296245,-0.10829451,0.34134308,-3.4081206,-0.52859193
0.10995504,0.039041862,-0.1049234,0.33071738,-3.302029,-0.5121373
0.10653225,0.037826527,-0.10165724,0.32042247,-3.1992402,-0.49619502
0.10321603,0.036649033,-0.09849277,0.3104481,-3.0996516,-0.48074904
0.10000305,0.035508197,-0.09542682,0.30078426,-3.0031633,-0.46578395
0.0968901,0.034402877,-0.09245632,0.29142126,-2.9096792,-0.45128477
0.09387406,0.033331968,-0.0895783,0.2823498,-2.8191054,-0.43723696
0.09095191,0.0322944,-0.08678987,0.2735607,-2.7313511,-0.4236265
0.088120736,0.03128913,-0.08408825,0.26504523,-2.646329,-0.41043973
0.0853777,0.030315157,-0.08147074,0.25679487,-2.5639536,-0.3976635
0.082720056,0.029371504,-0.078934714,0.24880132,-2.4841428,-0.38528502
0.08014515,0.028457228,-0.07647763,0.24105664,-2.4068162,-0.37329185
0.0776504,0.027571414,-0.074097045,0.23355305,-2.3318973,-0.36167207
0.07523331,0.026713176,-0.07179056,0.22628304,-2.2593102,-0.35041398
0.07289146,0.025881654,-0.069555886,0.21923935,-2.188983,-0.3395064
0.07062252,0.025076017,-0.06739077,0.21241494,-2.1208448,-0.32893834
0.0684242,0.02429546,-0.06529305,0.20580296,-2.054828,-0.31869924
0.06629432,0.0235392,-0.06326064,0.19939682,-1.9908662,-0.3087789
0.06423075,0.022806482,-0.06129149,0.19319008,-1.9288954,-0.2991674
0.062231403,0.022096574,-0.05938364,0.18717656,-1.8688537,-0.28985506
0.060294297,0.021408765,-0.05753518,0.18135023,-1.8106811,-0.2808326
