ax,ay,az,gx,gy,gz
-3.4145765,1.630924,-4.3027663,22.305656,105.75823,-40.116726
-3.1851213,2.6024764,-4.593999,2.197485,114.63566,-47.175716
-3.631051,3.0573401,-5.234191,-4.4498715,115.775894,-52.502872
-4.3434286,3.2741563,-6.055474,-11.907232,105.58752,-61.554665
-4.67127,3.4061246,-6.683806,-19.432903,86.620804,-69.76156
-4.4929924,3.299363,-6.9817195,-27.661077,70.20523,-73.33753
-4.243792,2.9609048,-7.24395,-25.289795,56.291,-73.85527
-4.019002,2.5046246,-7.716082,-17.371626,41.90756,-73.29502
-3.785607,2.0045993,-8.238738,-9.318423,24.035028,-71.209984
-3.376535,1.4587158,-8.603461,-4.9618855,3.6672301,-67.493645
-2.7697294,0.7308221,-8.676266,-3.2921755,-16.099596,-61.608097
-2.0694134,-0.10510678,-8.476626,-1.7728493,-31.676037,-51.683502
-1.4765497,-0.8723709,-8.122401,0.8500232,-43.3752,-40.371983
-1.0473912,-1.5562581,-7.697608,4.708473,-52.84797,-28.328173
-0.7216716,-2.1519163,-7.1699677,9.117688,-60.257236,-16.535028
-0.45215863,-2.6705875,-6.55584,13.746431,-65.92776,-5.0085797
-0.1833891,-3.0484157,-5.8563886,19.531694,-70.04843,6.0245194
0.23297042,-3.1763911,-5.008224,25.781727,-70.790146,15.896799
0.7210955,-3.025819,-4.128381,30.683071,-68.59637,24.211926
1.2510599,-2.6488256,-3.2528496,33.053875,-64.03414,31.366743
1.7454175,-2.1624267,-2.4537663,33.38661,-57.84162,37.477165
2.1187246,-1.6277881,-1.8210814,32.591553,-50.769882,42.358036
2.3932846,-1.0188236,-1.3266933,31.432552,-43.816257,45.85354
2.2766361,-0.96916634,-1.2620304,29.900534,-41.68066,43.61864
2.1687622,-0.92324424,-1.2022315,28.483755,-39.705704,41.551857
2.0686734,-0.8806364,-1.1467484,27.169226,-37.873276,39.63423
1.9755269,-0.84098387,-1.0951136,25.945873,-36.167953,37.849617
1.8886001,-0.803979,-1.0469265,24.804207,-34.576496,36.184162
1.8072696,-0.76935655,-1.0018418,23.73604,-33.087498,34.62593
1.7309952,-0.73688644,-0.95955986,22.73428,-31.691065,33.164574
1.6593062,-0.7063683,-0.9198198,21.792742,-30.378582,31.791063
1.5917906,-0.67762685,-0.8823931,20.906015,-29.142506,30.497515
1.5280861,-0.6505078,-0.84707916,20.069342,-27.976202,29.276983
1.4678729,-0.624875,-0.8137006,19.278524,-26.873821,28.123344
1.4108678,-0.6006079,-0.78210044,18.529839,-25.830172,27.03117
1.3568187,-0.5775991,-0.75213885,17.819977,-24.840641,25.99563
1.3055006,-0.55575293,-0.72369117,17.145985,-23.901108,25.012415
1.2567121,-0.53498363,-0.69664574,16.505213,-23.007889,24.077663
1.2102722,-0.5152141,-0.67090225,15.895287,-22.157665,23.187908
1.1660177,-0.4963749,-0.6463702,15.314064,-21.347454,22.340025
1.1238012,-0.47840333,-0.62296796,14.759608,-20.574554,21.531189
1.0834893,-0.4612425,-0.6006214,14.2301655,-19.836525,20.758842
1.0449605,-0.44484076,-0.5792634,13.724142,-19.13114,20.02066
1.0081043,-0.42915103,-0.5588325,13.240086,-18.456375,19.314524
0.9728197,-0.41413033,-0.53927284,12.77667,-17.810385,18.638496
0.9390143,-0.39973935,-0.5205332,12.332682,-17.191477,17.99081
0.90660334,-0.38594198,-0.50256646,11.907008,-16.598097,17.36984
0.8755088,-0.37270498,-0.48532954,11.498623,-16.028818,16.774094
0.84565884,-0.35999784,-0.4687825,11.106585,-15.482325,16.20219
0.8169872,-0.3477923,-0.45288867,10.730021,-14.957404,15.652863
0.78943247,-0.3360622,-0.43761396,10.368127,-14.452931,15.124934
0.76293766,-0.32478335,-0.42292687,10.020154,-13.967865,14.617314
0.7374501,-0.31393325,-0.40879807,9.685409,-13.501238,14.128991
0.71292055,-0.303491,-0.39520034,9.363246,-13.052151,13.659023
0.68930316,-0.29343706,-0.3821083,9.053063,-12.619763,13.206532
0.66655517,-0.28375322,-0.3694982,8.7543,-12.203294,12.770698
0.64463663,-0.27442247,-0.35734785,8.46643,-11.80201,12.350755
0.62351006,-0.26542887,-0.34563655,8.188961,-11.415223,11.945986
0.6031403,-0.25675744,-0.33434477,7.921431,-11.042294,11.555716
0.5834943,-0.24839413,-0.32345423,7.663408,-10.682615,11.179314
0.5645411,-0.24032572,-0.3129477,7.414483,-10.33562,10.816184
0.54625136,-0.23253976,-0.30280897,7.174272,-10.000771,10.465766
0.5285975,-0.22502449,-0.29302272,6.9424124,-9.677564,10.127532
0.51155347,-0.21776883,-0.28357452,6.718562,-9.365521,9.800981
0.49509457,-0.21076226,-0.27445072,6.502397,-9.064193,9.4856415
0.47919753,-0.20399489,-0.26563835,6.293611,-8.7731495,9.181066
0.46384022,-0.19745725,-0.25712517,6.091913,-8.491988,8.886831
0.4490016,-0.19114044,-0.24889953,5.8970284,-8.220323,8.602534
0.43466178,-0.18503596,-0.2409504,5.708694,-7.957789,8.327794
0.42080176,-0.17913574,-0.23326725,5.526662,-7.7040396,8.062246
0.40740353,-0.1734321,-0.22584006,5.350694,-7.458745,7.8055463
0.3944499,-0.16791773,-0.21865934,5.1805654,-7.2215896,7.5573645
0.38192445,-0.16258563,-0.21171598,5.016061,-6.992274,7.317386
0.36981156,-0.15742916,-0.20500132,4.856974,-6.7705107,7.0853124
0.3580963,-0.15244196,-0.19850709,4.70311,-6.556028,6.8608565
0.3467644,-0.14761795,-0.19222535,4.5542808,-6.348563,6.643746
0.33580217,-0.14295132,-0.18614855,4.410307,-6.1478667,6.4337177
0.32519656,-0.13843651,-0.18026945,4.2710166,-5.953699,6.230522
0.31493506,-0.13406818,-0.1745811,4.1362457,-5.765832,6.03392
0.3050057,-0.12984124,-0.16907685,4.005837,-5.584045,5.8436804
0.29539692,-0.12575077,-0.16375032,3.8796387,-5.4081273,5.6595836
0.2860977,-0.12179209,-0.1585954,3.7575064,-5.237878,5.481418
0.2770975,-0.117960684,-0.15360622,3.6393006,-5.0731015,5.3089805
0.26838607,-0.114252225,-0.14877713,3.5248878,-4.913613,5.142076
0.25995365,-0.110662535,-0.14410271,3.4141395,-4.759232,4.9805174
0.25179085,-0.10718763,-0.13957773,3.3069322,-4.6097875,4.8241243
0.24388863,-0.10382364,-0.13519722,3.203147,-4.4651136,4.6727233
0.23623827,-0.10056687,-0.13095632,3.10267,-4.325051,4.5261483
0.2288314,-0.097413756,-0.12685038,3.0053906,-4.1894455,4.384238
0.22165993,-0.09436086,-0.12287497,2.9112031,-4.058151,4.246838
0.21471612,-0.09140488,-0.11902574,2.8200057,-3.9310234,4.1138
0.20799248,-0.08854261,-0.11529855,2.7316997,-3.807927,3.98498
0.20148177,-0.085771,-0.1116894,2.6461904,-3.6887288,3.86024
0.19517705,-0.08308707,-0.10819444,2.5633864,-3.5733018,3.7394462
0.1890716,-0.08048797,-0.10480994,2.4831994,-3.461523,3.62247
0.18315892,-0.07797094,-0.10153231,2.4055445,-3.3532739,3.5091877
0.17743278,-0.075533316,-0.09835809,2.3303394,-3.2484398,3.3994792
0.17188714,-0.07317253,-0.09528392,2.2575052,-3.1469104,3.293229
0.1665162,-0.07088611,-0.092306584,2.186965,-3.048579,3.1903255
0.16131431,-0.068671666,-0.08942296,2.118645,-2.9533427,3.0906613
0.15627603,-0.06652687,-0.086630054,2.052474,-2.8611019,2.9941316
0.15139613,-0.06444949,-0.08392493,1.9883833,-2.7717607,2.9006364
0.14666954,-0.06243737,-0.08130479,1.9263059,-2.6852262,2.8100784
0.14209135,-0.060488433,-0.07876691,1.8661776,-2.6014087,2.7223637
0.13765682,-0.05860065,-0.07630868,1.8079361,-2.5202215,2.6374016
0.1333614,-0.056772083,-0.07392755,1.7515213,-2.4415808,2.5551045
0.12920062,-0.05500084,-0.071621075,1.6968755,-2.3654053,2.4753873
0.12517025,-0.053285103,-0.06938688,1.6439419,-2.2916172,2.3981683
0.12126612,-0.051623113,-0.06722266,1.5926664,-2.2201405,2.323368
0.11748424,-0.050013162,-0.06512621,1.5429965,-2.1509018,2.25091
0.11382073,-0.048453603,-0.06309538,1.4948813,-2.0838304,2.18072
0.110271856,-0.04694284,-0.0611281,1.4482716,-2.0188575,2.1127262
0.106833994,-0.04547934,-0.05922235,1.4031199,-1.955917,2.0468593
0.10350363,-0.0440616,-0.057376202,1.3593801,-1.8949447,1.983052
0.10027738,-0.042688183,-0.05558776,1.3170077,-1.8358786,1.9212395
0.097151965,-0.041357692,-0.053855218,1.2759596,-1.7786584,1.8613589
0.094124205,-0.04006877,-0.05217681,1.236194,-1.7232262,1.8033493
0.09119103,-0.038820114,-0.050550833,1.1976707,-1.6695256,1.7471519
0.08834946,-0.037610456,-0.04897564,1.1603506,-1.6175021,1.6927094
0.08559662,-0.03643857,-0.04744963,1.1241957,-1.5671031,1.6399671
0.08292972,-0.03530327,-0.04597126,1.0891696,-1.5182775,1.5888714
0.08034606,-0.034203403,-0.044539034,1.0552368,-1.470976,1.5393704
0.07784304,-0.03313786,-0.04315151,1.022363,-1.4251505,1.4914143
0.075418115,-0.03210557,-0.04180728,0.99051493,-1.3807551,1.4449546
0.07306885,-0.031105485,-0.040504985,0.9596605,-1.3377447,1.3999444
0.07079287,-0.030136595,-0.039243314,0.9297685,-1.2960759,1.3563383
0.06858787,-0.029197926,-0.038021,0.9008088,-1.2557069,1.3140922
0.06645164,-0.02828853,-0.0368368,0.8727523,-1.2165967,1.2731636
0.06438202,-0.027407492,-0.035689525,0.8455707,-1.1787062,1.2335112
0.062376928,-0.026553923,-0.034578025,0.8192365,-1.141997,1.1950952
0.06043435,-0.025726965,-0.033501178,0.7937234,-1.1064322,1.1578768
0.058552325,-0.024925785,-0.032457896,0.76900554,-1.0719762,1.1218187
0.056728967,-0.024149578,-0.031447135,0.7450582,-1.038594,1.0868845
0.054962434,-0.023397565,-0.030467875,0.7218572,-1.0062524,1.0530391
0.053250957,-0.022668988,-0.029519133,0.69937927,-0.97491866,1.0202484
0.051592812,-0.021963114,-0.028599959,0.67760175,-0.94456136,0.9884796
0.049986336,-0.021279234,-0.027709424,0.6565029,-0.91515,0.9577008
0.048429918,-0.020616665,-0.02684664,0.63606143,-0.88665503,0.92788094
0.046921987,-0.019974738,-0.026010735,0.61625683,-0.8590479,0.89899015
0.04546104,-0.01935281,-0.025200872,0.5970692,-0.83230084,0.87099946
0.0440456,-0.018750258,-0.024416238,0.57847935,-0.806387,0.8438808
0.04267426,-0.018166475,-0.023656048,0.5604686,-0.78128046,0.8176068
0.04134563,-0.017600877,-0.022919537,0.54301894,-0.7569559,0.79215133
0.04005839,-0.017052898,-0.022205967,0.52611274,-0.7333891,0.7674887
0.03881124,-0.016521985,-0.021514622,0.50973314,-0.71055627,0.7435943
0.037602935,-0.016007608,-0.02084481,0.49386367,-0.6884346,0.7204441
0.036432263,-0.0155092515,-0.020195859,0.47848845,-0.66700196,0.69801486
0.035298046,-0.015026415,-0.019567119,0.46359208,-0.6462367,0.67628413
0.034199156,-0.014558615,-0.01895796,0.44915962,-0.62611824,0.6552302
0.033134483,-0.014105384,-0.01836777,0.4351766,-0.6066262,0.6348319
0.03210297,-0.013666267,-0.01779596,0.42162904,-0.5877412,0.6150688
0.031103572,-0.013240823,-0.017241955,0.40850332,-0.5694443,0.59592116
0.030135298,-0.012828627,-0.0167052,0.39578635,-0.5517171,0.57736975
0.029197173,-0.012429266,-0.01618516,0.38346535,-0.5345419,0.55939597
0.028288258,-0.012042341,-0.015681313,0.371528,-0.5179015,0.5419818
0.027407646,-0.011667463,-0.015193153,0.3599623,-0.50177926,0.52510995
0.02655445,-0.011304257,-0.014720194,0.34875676,-0.48615897,0.5087634
0.025727822,-0.01095236,-0.01426196,0.3379001,-0.47102502,0.4929258
0.024926929,-0.01061142,-0.013817993,0.3273815,-0.45636228,0.4775813
0.024150971,-0.010281093,-0.01338785,0.31719032,-0.44215605,0.46271452
0.023399174,-0.009961053,-0.012971098,0.30731648,-0.42839214,0.44831064
0.022670781,-0.0096509755,-0.012567321,0.29775003,-0.41505674,0.4343552
0.021965068,-0.009350551,-0.012176115,0.2884814,-0.4021365,0.42083424
0.021281322,-0.009059481,-0.011797088,0.27950138,-0.38961852,0.40773422
0.020618865,-0.008777472,-0.011429862,0.2708009,-0.37749025,0.39504203
0.019977033,-0.008504244,-0.011074068,0.26237127,-0.36573955,0.38274497
0.01935518,-0.00823952,-0.01072935,0.2542041,-0.35435468,0.37083074
0.018752687,-0.007983038,-0.010395364,0.24629116,-0.34332424,0.35928744
0.01816895,-0.007734541,-0.010071776,0.23862457,-0.3326372,0.3481035
0.017603386,-0.0074937795,-0.009758261,0.23119666,-0.32228282,0.3372677
0.017055428,-0.007260513,-0.0094545055,0.22399996,-0.31225082,0.32676923
0.016524527,-0.0070345085,-0.009160207,0.2170273,-0.3025311,0.31659758
0.016010156,-0.006815539,-0.008875069,0.21027172,-0.29311395,0.30674258
0.015511795,-0.0066033867,-0.008598808,0.20372643,-0.28398997,0.29719436
0.015028948,-0.0063978387,-0.008331147,0.1973849,-0.27515,0.2879434
0.0145611325,-0.006198689,-0.008071817,0.19124076,-0.26658523,0.27898037
0.014107879,-0.0060057384,-0.0078205615,0.1852879,-0.25828707,0.2702964
0.0136687355,-0.005818795,-0.0075771264,0.17952034,-0.25024724,0.26188272
0.013243262,-0.0056376704,-0.00734127,0.17393233,-0.24245767,0.25373098
0.012831033,-0.005462184,-0.0071127545,0.16851826,-0.23491059,0.24583298
