ax,ay,az,gx,gy,gz
-3.2145746,-1.6709243,-9.961909,-40.616734,-58.261436,-17.977436
-3.6435976,-2.4433134,-11.138825,-19.228735,-93.46261,-13.075812
-3.4327002,-3.5293727,-12.21244,5.7628927,-123.04373,-9.777319
-2.8266299,-4.614514,-12.680894,36.043907,-144.29187,-5.6654515
-1.9252033,-5.4233747,-12.54497,69.90156,-155.80383,4.725264
-1.0459218,-5.659136,-12.1777525,98.84747,-165.82692,19.88211
-0.15146123,-5.4053473,-11.478424,125.177444,-171.77765,38.50058
0.6955834,-4.655708,-10.49001,144.35321,-177.19728,55.0694
1.3592765,-3.7874804,-9.481779,158.95476,-182.45897,68.14644
1.9495882,-2.8288295,-8.436915,169.70314,-187.07616,78.57651
2.5644972,-1.6374402,-7.2513947,176.4072,-188.77235,84.29582
3.1153178,-0.23276111,-5.942694,176.96321,-185.48671,82.770325
3.4183214,1.2363493,-4.661499,168.09045,-179.46342,80.57286
3.491118,2.6217954,-3.587317,153.62941,-172.29091,77.47491
3.4554088,3.7699678,-2.7586076,136.90895,-164.1711,72.55878
3.4064114,4.6878204,-2.1352048,121.08212,-154.76848,64.60146
3.351705,5.377056,-1.7025189,107.44602,-143.90744,51.92148
3.3054366,5.8387046,-1.4645638,94.61865,-133.09286,37.530533
3.2423918,6.195231,-1.3364016,81.79533,-122.99447,22.038973
3.1600294,6.5247474,-1.2848327,68.3965,-114.14802,5.769965
3.131656,6.766031,-1.2911286,53.39311,-107.35179,-10.171238
3.1923902,6.798048,-1.3135403,36.122005,-101.66682,-22.525166
3.1880503,6.7046046,-1.4021316,18.687948,-96.40298,-32.74169
3.1473987,6.5249686,-1.536696,3.241991,-91.30863,-42.262848
3.1334019,6.2577295,-1.6937853,-9.330011,-86.67558,-52.54564
3.1583967,5.8521285,-1.861828,-20.769346,-83.283936,-61.235687
3.2686954,5.36691,-2.0171793,-35.4991,-81.85892,-64.06282
3.3154387,4.8536763,-2.243825,-51.565758,-81.76445,-63.521385
3.3356597,4.194813,-2.531327,-64.47163,-81.4132,-62.32092
3.42654,3.3844576,-2.7930639,-70.25383,-78.36617,-62.269222
3.5595007,2.5540283,-3.007756,-70.00349,-72.54232,-62.794437
3.63858,1.8050629,-3.2029517,-67.929955,-66.32241,-60.71126
3.6032586,1.091652,-3.4237075,-65.0892,-61.538124,-56.495953
3.5557268,0.48842564,-3.5872862,-60.564285,-57.884277,-52.285606
3.606068,-0.01147719,-3.574343,-54.891468,-53.93683,-48.117054
3.7704113,-0.44071257,-3.414504,-48.853436,-48.512913,-42.768757
3.9282284,-0.82692754,-3.248445,-42.99122,-41.657085,-34.837418
3.987977,-1.1179048,-3.1526077,-37.36549,-35.00918,-25.846302
3.9785178,-1.262101,-3.0750198,-31.408375,-29.08951,-17.405289
4.030239,-1.3128872,-2.9272203,-26.037329,-22.914999,-9.700767
4.1277323,-1.3509434,-2.7458582,-21.139055,-15.62825,-1.2903472
4.190624,-1.3416189,-2.6070065,-16.354465,-7.2537146,7.425935
4.174671,-1.258849,-2.5656857,-11.503721,1.091156,16.138649
4.1065755,-1.0433167,-2.587106,-6.4868293,8.615251,23.67232
4.012088,-0.77281845,-2.6023977,-1.5428485,15.559987,29.278267
3.8987653,-0.505181,-2.6403308,2.7314885,21.893332,34.074406
3.7584314,-0.2191755,-2.715357,5.7614207,27.442968,37.952225
3.5761921,0.087864764,-2.8459165,8.680839,32.428093,40.89799
3.3594818,0.40528807,-3.033268,11.11716,36.07537,42.666637
3.1205063,0.72072595,-3.2440434,13.776015,38.575035,43.24801
2.8606544,1.0676204,-3.4824264,16.06367,39.56311,42.672485
2.5314584,1.4302346,-3.7763462,17.278013,36.979588,40.218132
2.1711469,1.7916923,-4.1077003,17.602062,31.476538,36.38696
1.793311,2.1456175,-4.5050664,16.49684,22.339226,31.110167
1.3512453,2.4348679,-5.0555463,15.372063,7.8782034,23.853981
0.95419747,2.6352897,-5.7228165,15.19712,-11.734663,14.866778
0.7453162,2.781841,-6.4296494,15.710951,-35.876812,3.8750782
0.8207817,2.855192,-7.1193986,18.27851,-61.717037,-7.273562
1.0794334,2.8910568,-7.702079,21.681316,-88.11113,-16.513365
1.6953385,2.8922925,-8.003277,21.839903,-113.24329,-22.619646
2.5049484,2.739584,-7.9453845,20.315676,-133.04634,-25.166042
3.2418647,2.567437,-7.688589,21.5973,-144.00139,-27.469053
3.8763072,2.4632611,-7.292737,24.824682,-149.8198,-30.104277
4.4666185,2.4035695,-6.80022,26.940826,-151.32797,-31.910473
4.9978604,2.3063846,-6.2758045,28.228285,-149.45778,-32.27805
5.44553,2.234801,-5.7533317,27.860853,-144.5177,-30.910425
5.7628202,2.1981447,-5.318814,26.674568,-137.66412,-28.188702
5.8965793,2.180801,-4.983173,24.784407,-130.38596,-25.408552
5.999558,2.1401832,-4.653001,22.217062,-122.31151,-22.302776
6.068703,2.089031,-4.3615227,19.741459,-113.366776,-18.761808
6.091669,2.0264647,-4.1192055,17.569876,-103.697845,-15.278575
6.121472,1.9638444,-3.884166,14.550473,-92.475075,-11.227796
6.1581964,1.9104388,-3.6906188,11.421588,-80.13094,-6.6810436
6.1316447,1.8720175,-3.5732522,8.736448,-67.5759,-2.2763124
6.0676007,1.8366631,-3.483244,5.9944263,-55.31311,1.8020847
5.875592,1.7785422,-3.373017,5.8047333,-53.562733,1.745058
5.689848,1.7223173,-3.2663863,5.6212287,-51.86946,1.6898916
5.510146,1.6679215,-3.1632245,5.443694,-50.231274,1.63652
5.336275,1.6152908,-3.0634098,5.27192,-48.64624,1.58488
5.168031,1.5643634,-2.9668255,5.1057053,-47.112507,1.5349114
5.0052195,1.5150803,-2.87336,4.944857,-45.628292,1.4865562
4.8476534,1.467385,-2.7829056,4.7891912,-44.1919,1.4397589
4.695153,1.4212232,-2.6953592,4.6385303,-42.801685,1.3944662
4.5475464,1.3765426,-2.6106222,4.4927034,-41.456078,1.3506267
4.4046674,1.3332931,-2.5285993,4.3515472,-40.153572,1.3081914
4.2663565,1.2914264,-2.4491987,4.214905,-38.89271,1.267113
4.1324606,1.2508961,-2.3723328,4.0826235,-37.6721,1.2273457
4.0028324,1.2116576,-2.297917,3.9545588,-36.49039,1.1888461
3.87733,1.173668,-2.2258694,3.83057,-35.34629,1.1515716
3.7558167,1.1368859,-2.1561117,3.710522,-34.23856,1.115482
3.6381605,1.1012714,-2.0885687,3.5942845,-33.16599,1.080538
3.5242348,1.066786,-2.023167,3.4817328,-32.127422,1.0467019
3.413917,1.0333929,-1.9598365,3.3727455,-31.121752,1.0139375
3.3070893,1.0010562,-1.8985097,3.2672062,-30.147896,0.9822095
3.203638,0.96974146,-1.8391212,3.1650026,-29.20482,0.9514844
3.1034536,0.9394156,-1.781608,3.0660262,-28.291523,0.9217294
3.0064297,0.91004646,-1.7259091,2.9701724,-27.40704,0.89291316
2.9124641,0.88160306,-1.6719662,2.87734,-26.550438,0.8650053
2.8214586,0.85405564,-1.6197224,2.787432,-25.720816,0.8379766
2.7333174,0.82737535,-1.5691229,2.7003539,-24.917309,0.8117985
2.6479485,0.8015342,-1.520115,2.6160145,-24.139076,0.7864439
2.5652633,0.77650535,-1.4726477,2.5343266,-23.385305,0.7618863
2.4851756,0.75226283,-1.4266715,2.4552047,-22.655214,0.7381002
2.4076025,0.72878146,-1.382139,2.3785672,-21.948048,0.71506083
2.332464,0.706037,-1.3390038,2.3043346,-21.263071,0.69274455
2.259682,0.68400586,-1.2972217,2.2324305,-20.59958,0.6711282
2.1891818,0.6626654,-1.2567495,2.1627803,-19.956892,0.6501896
2.1208909,0.64199376,-1.2175455,2.095313,-19.334341,0.6299071
2.054739,0.62196964,-1.1795696,2.0299592,-18.731293,0.61025995
1.9906586,0.6025725,-1.1427828,1.9666514,-18.147127,0.591228
1.928584,0.5837825,-1.1071475,1.9053254,-17.581245,0.57279176
1.8684517,0.5655804,-1.0726271,1.8459183,-17.033072,0.55493236
1.8102003,0.54794776,-1.0391866,1.7883695,-16.502043,0.53763163
1.7537705,0.53086644,-1.0067918,1.7326202,-15.987621,0.52087194
1.6991048,0.5143191,-0.9754097,1.6786138,-15.489281,0.50463617
1.6461476,0.498289,-0.9450084,1.6262952,-15.0065155,0.4889078
1.594845,0.4827597,-0.915557,1.5756115,-14.538835,0.4736709
1.5451453,0.46771556,-0.88702565,1.526511,-14.085763,0.45890996
1.4969975,0.45314124,-0.85938543,1.4789438,-13.646842,0.44461006
1.4503533,0.43902203,-0.8326082,1.4328622,-13.221626,0.43075666
1.4051652,0.4253436,-0.806667,1.388219,-12.809686,0.41733575
1.3613876,0.41209212,-0.78153545,1.3449694,-12.410603,0.40433374
1.3189763,0.3992542,-0.75718826,1.3030695,-12.023974,0.39173752
1.2778883,0.38681686,-0.73360074,1.262477,-11.649411,0.37953433
1.2380822,0.37476754,-0.71074915,1.223151,-11.286532,0.36771187
1.1995177,0.3630941,-0.6886104,1.1850517,-10.934974,0.3562582
1.1621562,0.35178474,-0.6671621,1.1481407,-10.59438,0.34516177
1.1259598,0.3408281,-0.64638275,1.1123807,-10.264409,0.33441138
1.0908921,0.3302131,-0.62625134,1.077736,-9.944727,0.32399625
1.0569177,0.31992906,-0.6067476,1.0441713,-9.635012,0.31390584
1.0240026,0.30996564,-0.5878519,1.0116532,-9.334952,0.30413
0.9921135,0.30031282,-0.56954527,0.9801487,-9.044247,0.29465887
0.96121836,0.29096085,-0.5518092,0.94962615,-8.762603,0.285483
0.93128616,0.28190038,-0.53462595,0.9200549,-8.489737,0.2765931
0.90228677,0.27312225,-0.5179782,0.8914053,-8.225374,0.26798025
0.8741911,0.2646177,-0.50184923,0.8636485,-7.96925,0.2596358
0.8469709,0.25637814,-0.4862229,0.8367565,-7.721107,0.25155136
0.82059884,0.24839532,-0.4710834,0.8107025,-7.4806957,0.24371883
0.7950484,0.24066122,-0.4564156,0.78546023,-7.2477746,0.23613034
0.7702941,0.23316805,-0.44220477,0.7610044,-7.02211,0.22877826
0.74631083,0.22590834,-0.42843667,0.7373104,-6.8034754,0.2216552
0.72307473,0.21887475,-0.41509745,0.7143545,-6.591652,0.21475405
0.70056236,0.21206027,-0.40217373,0.6921137,-6.386426,0.20806786
0.6787513,0.20545806,-0.38965258,0.6705656,-6.187593,0.20158994
0.65761954,0.19906147,-0.37752143,0.6496887,-5.994953,0.19531378
0.63714594,0.19286412,-0.3657681,0.629462,-5.808313,0.18923311
0.61731,0.18685977,-0.35438082,0.6098653,-5.6274858,0.18334182
0.59809184,0.18104243,-0.34334818,0.5908789,-5.45229,0.17763399
0.5794721,0.17540625,-0.33265913,0.5724838,-5.2825503,0.17210391
0.5614323,0.1699456,-0.32230297,0.5546615,-5.118097,0.16674607
0.54395425,0.16465499,-0.31226927,0.5373942,-4.958764,0.16155507
0.52702045,0.15952912,-0.30254805,0.52066463,-4.8043933,0.1565257
0.5106139,0.15456288,-0.29312953,0.504456,-4.654829,0.15165295
0.4947183,0.14975126,-0.28400427,0.48875204,-4.5099225,0.14693193
0.47931764,0.14508948,-0.27516317,0.4735371,-4.3695273,0.1423579
0.46439648,0.14057285,-0.26659733,0.4587959,-4.2335043,0.13792631
0.4499399,0.13619684,-0.25829822,0.44451368,-4.101716,0.13363269
0.43593344,0.13195708,-0.2502575,0.43067613,-3.9740312,0.12947276
0.4223631,0.12784934,-0.24246712,0.41726944,-3.850322,0.12544234
0.40921524,0.12386948,-0.2349193,0.40428016,-3.7304642,0.12153742
0.39647675,0.120013535,-0.22760648,0.39169526,-3.6143382,0.117754065
0.38413483,0.116277635,-0.22052132,0.3795022,-3.5018277,0.114088506
0.37217715,0.112658046,-0.21365675,0.36768875,-3.39282,0.11053706
0.36059177,0.109151155,-0.20700589,0.35624307,-3.2872057,0.10709619
0.34936705,0.10575343,-0.20056209,0.34515372,-3.1848798,0.10376243
0.3384918,0.10246149,-0.1943189,0.33440962,-3.0857394,0.10053247
0.3279551,0.099272035,-0.18827008,0.324,-2.9896853,0.09740306
0.31774643,0.09618187,-0.18240955,0.31391445,-2.8966217,0.09437107
0.30785558,0.0931879,-0.17673148,0.30414286,-2.8064551,0.09143347
0.2982726,0.09028714,-0.17123017,0.2946755,-2.7190957,0.08858733
0.288988,0.087476686,-0.16590013,0.28550282,-2.6344557,0.08582978
0.2799924,0.084753715,-0.160736,0.2766157,-2.5524504,0.083158076
0.27127683,0.082115516,-0.15573263,0.26800528,-2.4729981,0.08056954
0.2628326,0.079559445,-0.15088502,0.25966287,-2.3960192,0.078061596
0.25465122,0.07708294,-0.14618832,0.25158015,-2.3214366,0.075631715
0.24672453,0.07468353,-0.14163782,0.24374905,-2.2491758,0.07327748
0.23904459,0.07235881,-0.13722897,0.23616174,-2.1791644,0.07099653
0.23160371,0.07010646,-0.13295737,0.2288106,-2.1113324,0.06878658
0.22439447,0.067924224,-0.12881874,0.2216883,-2.0456119,0.06664543
0.21740964,0.06580991,-0.124808945,0.2147877,-1.9819372,0.064570926
