ax,ay,az,gx,gy,gz
-1.6354694,-5.272775,-10.2837305,178.8898,-122.8484,-11.430104
-1.5194643,-5.154242,-11.051924,209.77591,-150.6572,5.5902987
-1.5432285,-4.8804426,-11.470125,226.08871,-192.62378,18.636087
-1.3458576,-4.343961,-11.868396,235.28938,-234.20784,25.265211
-0.37118492,-4.049585,-11.6944895,246.75427,-267.96036,29.492886
1.9147578,-3.9432437,-10.337226,263.16968,-277.51303,39.268227
4.0031776,-3.5955253,-8.57908,274.0347,-264.52628,54.954205
4.7875605,-2.9260383,-7.428223,281.84448,-247.3838,68.281906
4.991774,-1.968733,-6.4741573,283.11572,-234.7913,77.95217
5.3401947,-0.9706324,-5.3905444,276.37845,-223.14665,85.81646
5.7887373,0.035773642,-4.195451,264.6383,-209.64816,91.68026
6.105028,1.044819,-3.0898943,247.9281,-192.3803,94.85584
6.1415014,1.997932,-2.3043523,229.62321,-174.52112,95.29565
5.9365897,2.8570726,-1.8461552,211.88525,-158.84872,92.57698
5.6958313,3.5758944,-1.5384088,195.60721,-145.11198,86.59753
5.4198184,4.2218084,-1.3375515,180.4185,-133.53818,77.7868
5.156157,4.751392,-1.2126422,166.21518,-123.79804,67.233345
4.940609,5.1540546,-1.1428398,152.5848,-114.855034,54.675667
4.7406545,5.386671,-1.178744,139.19527,-107.35801,42.31119
4.5410705,5.5370336,-1.2622145,125.77452,-101.30079,30.529398
4.318927,5.674539,-1.3816019,112.45663,-96.68717,18.357727
4.082863,5.7662086,-1.5465431,100.32715,-93.54791,4.8748913
3.8597162,5.799606,-1.7392758,88.90924,-92.6014,-9.778232
3.7387576,5.784223,-1.8749055,77.85863,-92.21117,-23.744535
3.6511579,5.7740726,-2.004171,65.95896,-92.92034,-36.952347
3.5449128,5.7273192,-2.18641,53.568844,-95.0149,-49.919605
3.4441009,5.571151,-2.4141839,42.02164,-98.29157,-62.44365
3.411535,5.3401346,-2.5928233,31.95179,-101.85702,-74.21469
3.51788,4.9206004,-2.6499336,24.330694,-104.414925,-84.39471
3.7155695,4.454851,-2.5734203,18.700623,-105.24505,-92.246895
3.9309034,3.9707172,-2.4527612,13.856419,-104.49345,-96.520424
4.081335,3.501502,-2.3817685,9.582297,-103.34107,-98.17593
4.2031446,3.0674179,-2.3128622,6.3823934,-101.39883,-98.00612
4.3216667,2.674856,-2.202496,3.8268528,-98.742905,-97.150566
4.432399,2.2827427,-2.0721848,2.1802084,-94.960365,-95.297646
4.5254745,1.8669838,-1.9440337,1.4700642,-90.501816,-92.40678
4.6078715,1.4874371,-1.8098766,1.3221385,-85.35901,-88.16148
4.661878,1.1954372,-1.6784083,1.8270224,-79.51167,-83.45483
4.6956215,1.0145704,-1.5242599,2.4722304,-73.37743,-78.86875
4.744743,0.87300354,-1.3477842,2.6563306,-67.00072,-74.41143
4.8544917,0.71768117,-1.133708,2.462908,-59.770786,-69.173836
5.0003257,0.5801989,-0.92172056,1.3696336,-51.711,-62.7691
5.1296453,0.4464154,-0.76814723,0.34207177,-42.62953,-54.765945
5.172194,0.33632174,-0.7071242,-0.16081658,-33.817444,-46.274944
5.206558,0.3339304,-0.61370236,-0.9520191,-24.994427,-37.949486
5.2532773,0.4029809,-0.492783,-2.7196417,-15.7947235,-30.282701
5.295274,0.44060394,-0.3991487,-5.080063,-6.4204392,-22.552933
5.340812,0.49213287,-0.3324343,-8.073096,3.8542485,-14.069535
5.325783,0.562806,-0.3713553,-11.320924,13.8258915,-5.055849
5.2326546,0.6821226,-0.47688803,-14.082518,23.240437,3.6869016
5.0829506,0.8731161,-0.59153086,-17.05357,31.853865,10.703665
4.9306827,1.0474657,-0.70545524,-20.401943,40.283447,16.727411
4.7840357,1.2022254,-0.83278817,-24.577307,48.61077,22.35293
4.634286,1.3521329,-1.0188335,-28.719566,55.955112,27.330496
4.431303,1.4904364,-1.2606046,-31.759472,61.463375,31.47594
4.191736,1.6496868,-1.5138373,-33.80122,65.68318,34.403233
3.9182544,1.8224989,-1.7833214,-34.710796,68.55294,36.035618
3.6399062,2.0116475,-2.060176,-34.53737,69.76878,35.992798
3.3659098,2.1912107,-2.3638334,-34.03915,69.18237,34.90066
3.0799887,2.3464785,-2.7062767,-33.48707,66.0641,32.74595
2.7864141,2.4833431,-3.0828023,-32.611473,60.522064,29.578796
2.5532033,2.588624,-3.4625728,-30.769917,52.903976,25.470537
2.3763516,2.6398282,-3.8716702,-26.477385,43.394768,20.084887
2.2346284,2.6167471,-4.325288,-19.969557,33.045036,14.462137
2.0250893,2.5881202,-4.876939,-12.253566,19.767223,8.955857
1.8090243,2.581534,-5.5054765,-4.0190105,2.6252644,3.6727934
1.7436776,2.5572245,-6.106073,4.689043,-16.684952,-1.0983796
1.8873585,2.5319126,-6.6331186,15.352336,-36.910835,-4.570039
2.3072567,2.4461641,-7.0000086,26.846249,-56.232685,-6.525421
2.8949876,2.3844895,-7.145604,38.78271,-73.683846,-6.052653
3.5746715,2.565738,-6.9173255,47.684357,-87.85039,-4.136196
4.280481,2.915339,-6.3778706,51.402145,-98.24191,-2.6889172
4.9609904,3.1341147,-5.7301207,53.642273,-102.70036,-3.1132514
5.638051,3.2417214,-4.9644117,55.25112,-102.34102,-3.2603395
6.231777,3.372628,-4.225961,54.483063,-98.344864,-1.0707706
6.636649,3.5586166,-3.6397724,51.020634,-92.70255,3.3378608
6.852829,3.7147648,-3.2162619,46.426662,-86.302734,7.8901525
6.9498253,3.8152058,-2.9097416,42.695377,-78.50149,11.405702
6.8603735,3.8421786,-2.794512,39.48189,-71.40213,14.129231
6.729771,3.7999566,-2.71454,36.87466,-64.87507,16.21041
6.612585,3.7096372,-2.6220915,35.180344,-58.368378,17.568705
6.5068555,3.6012933,-2.5103333,33.911457,-51.04147,18.354874
6.381781,3.5092363,-2.4294114,31.085865,-43.427853,18.687582
6.242391,3.452483,-2.362498,27.491295,-35.89544,18.598972
6.046262,3.3440096,-2.288271,26.627548,-34.76764,18.014612
5.8564034,3.2390044,-2.216417,25.791416,-33.675903,17.448935
5.672605,3.1373513,-2.1468568,24.981977,-32.619015,16.901316
5.4946656,3.0389378,-2.0795135,24.198336,-31.595814,16.371151
5.322389,2.943657,-2.0143137,23.439634,-30.605177,15.85786
5.155588,2.8514042,-1.9511862,22.70505,-29.646027,15.360883
4.994082,2.76208,-1.8900626,21.993782,-28.717323,14.879682
4.837697,2.675588,-1.830877,21.305065,-27.818066,14.413737
4.6862645,2.591835,-1.7735656,20.638163,-26.947289,13.96255
4.539623,2.510732,-1.7180676,19.992357,-26.10406,13.525637
4.397616,2.432192,-1.6643237,19.366962,-25.287481,13.102532
4.2600927,2.3561323,-1.6122767,18.761316,-24.496687,12.692788
4.126909,2.282472,-1.5618718,18.174778,-23.730843,12.295971
3.997923,2.2111337,-1.5130557,17.606728,-22.98914,11.911663
3.873,2.1420424,-1.4657773,17.056572,-22.270798,11.539459
3.7520092,2.075126,-1.4199871,16.523731,-21.575068,11.178971
3.634824,2.0103142,-1.375637,16.00765,-20.90122,10.829823
3.5213223,1.9475398,-1.3326812,15.507793,-20.248556,10.491649
3.4113865,1.8867376,-1.2910749,15.02364,-19.616396,10.164099
3.3049023,1.8278444,-1.2507749,14.5546875,-19.004084,9.846833
3.2017598,1.7707993,-1.2117394,14.1004505,-18.410986,9.539524
3.1018524,1.7155434,-1.1739285,13.660461,-17.83649,9.241854
3.0050774,1.6620198,-1.1373029,13.234266,-17.280006,8.953516
2.9113348,1.6101736,-1.101825,12.821427,-16.740963,8.674213
2.8205285,1.5599514,-1.0674585,12.42152,-16.218801,8.40366
2.7325656,1.5113018,-1.034168,12.034134,-15.712993,8.141578
2.6473563,1.4641749,-1.0019196,11.6588745,-15.223015,7.8876996
2.564813,1.4185226,-0.9706803,11.295357,-14.748368,7.6417646
2.4848516,1.3742985,-0.94041806,10.94321,-14.288569,7.403523
2.4073908,1.331457,-0.9111022,10.602074,-13.843148,7.1727314
2.3323514,1.289955,-0.88270277,10.271604,-13.411653,6.9491544
2.2596574,1.2497501,-0.855191,9.951461,-12.993642,6.7325654
2.1892347,1.2108014,-0.8285388,9.641322,-12.588693,6.5227437
2.121012,1.1730694,-0.8027192,9.340871,-12.196393,6.319476
2.05492,1.1365159,-0.7777059,9.049804,-11.816346,6.1225576
1.9908917,1.1011037,-0.75347376,8.767825,-11.448166,5.9317875
1.9288622,1.066797,-0.72999805,8.494649,-11.09148,5.746973
1.868769,1.0335612,-0.7072551,8.2300005,-10.745928,5.567928
1.8105512,1.0013626,-0.685222,7.973611,-10.4111595,5.3944697
1.7541499,0.9701687,-0.66387635,7.7252216,-10.086837,5.226424
1.6995083,0.9399481,-0.64319664,7.4845815,-9.772633,5.0636215
1.6465712,0.9106701,-0.62316203,7.251448,-9.468229,4.9058976
1.5952852,0.8823053,-0.6037523,7.025586,-9.173322,4.753093
1.5455985,0.8548251,-0.58494794,6.806768,-8.8876095,4.6050534
1.4974613,0.82820183,-0.56672984,6.594773,-8.610807,4.4616303
1.4508249,0.8024086,-0.54907984,6.3893876,-8.342636,4.322679
1.4056425,0.7774195,-0.5319801,6.1904054,-8.082825,4.1880593
1.3618685,0.7532094,-0.51541334,5.9976263,-7.8311124,4.0576363
1.319459,0.7297539,-0.499363,5.810856,-7.587246,3.9312787
1.2783712,0.7070295,-0.48381293,5.6299067,-7.3509803,3.8088593
1.2385639,0.6850133,-0.46874747,5.454597,-7.1220775,3.6902552
1.1999972,0.6636831,-0.45415145,5.28475,-6.900308,3.575347
1.1626321,0.64301765,-0.44001028,5.120196,-6.6854496,3.4640193
1.1264313,0.6229961,-0.4263097,4.9607687,-6.477285,3.3561604
1.0913584,0.6035983,-0.41303602,4.8063087,-6.2756066,3.251662
1.0573783,0.58480483,-0.40017584,4.656661,-6.080211,3.1504192
1.0244566,0.5665968,-0.3877163,4.511675,-5.8909025,3.0523303
0.9925605,0.54895604,-0.3756449,4.371206,-5.7074914,2.957297
0.961658,0.53186476,-0.3639495,4.2351117,-5.5297937,2.8652241
0.931718,0.5153058,-0.35261843,4.103257,-5.3576307,2.776019
0.90271056,0.4992627,-0.34164026,3.9755092,-5.19083,2.6895926
0.8746066,0.4837192,-0.33100402,3.8517404,-5.029225,2.6058578
0.84737796,0.46865982,-0.32069904,3.731826,-4.8726525,2.524731
0.82099724,0.45406944,-0.310715,3.6156461,-4.7209563,2.4461308
0.7954381,0.43993342,-0.30104187,3.5030847,-4.573984,2.3699782
0.77067494,0.42623764,-0.29166996,3.3940284,-4.4315896,2.2961972
0.7466829,0.41296834,-0.28258994,3.2883682,-4.2936287,2.2247138
0.72343796,0.40011227,-0.27379265,3.1859982,-4.159964,2.1554565
0.7009168,0.3876565,-0.2652693,3.0868158,-4.0304613,2.0883555
0.679097,0.3755886,-0.25701135,2.990722,-3.9049914,2.0233443
0.65795654,0.36389643,-0.24901053,2.8976202,-3.7834282,1.9603571
0.63747436,0.35256833,-0.24125884,2.8074174,-3.6656501,1.8993312
0.61762995,0.34159297,-0.23374851,2.720023,-3.5515392,1.8402054
0.59840333,0.33095932,-0.226472,2.6353498,-3.4409814,1.7829206
0.5797754,0.32065675,-0.21942206,2.5533128,-3.3338654,1.7274193
0.5617274,0.31067494,-0.21259162,2.47383,-3.2300847,1.673646
0.54424137,0.3010039,-0.20597383,2.396822,-3.129535,1.6215469
0.5272997,0.29163396,-0.19956207,2.3222113,-3.032116,1.5710698
0.5108855,0.28255573,-0.19334994,2.2499237,-2.9377296,1.5221642
0.49498227,0.27376014,-0.18733121,2.1798866,-2.846282,1.4747813
0.47957417,0.26523837,-0.18149985,2.1120298,-2.7576814,1.4288734
0.46464577,0.2569819,-0.17585005,2.0462854,-2.671839,1.3843948
0.4501821,0.24898249,-0.17037612,1.9825879,-2.5886688,1.3413008
0.43616873,0.2412321,-0.1650726,1.9208734,-2.508088,1.2995485
0.4225916,0.23372298,-0.15993421,1.8610802,-2.430016,1.2590959
0.40943712,0.22644764,-0.15495576,1.8031484,-2.3543742,1.2199026
0.3966922,0.21939878,-0.1501323,1.74702,-2.2810874,1.1819296
0.38434398,0.21256936,-0.145459,1.6926389,-2.2100818,1.1451386
0.37238017,0.20595253,-0.14093117,1.6399506,-2.1412868,1.1094929
0.36078882,0.19954169,-0.13654429,1.5889027,-2.0746334,1.0749568
0.34955826,0.1933304,-0.13229398,1.5394437,-2.0100546,1.0414959
0.33867735,0.18731248,-0.12817599,1.4915245,-1.9474864,1.0090766
0.32813513,0.1814819,-0.12418617,1.445097,-1.8868659,0.97766644
0.3179211,0.17583281,-0.12032056,1.4001147,-1.8281324,0.9472341
0.308025,0.17035958,-0.116575286,1.3565326,-1.7712271,0.91774905
0.29843697,0.16505672,-0.11294659,1.3143072,-1.7160934,0.88918185
