ax,ay,az,gx,gy,gz
-1.4054673,1.6100147,-4.907317,-38.23035,-135.83214,-29.574816
-1.2441988,1.6319251,-5.033906,-39.41182,-146.05515,-31.303526
-0.9025482,1.4309402,-4.91178,-42.750828,-152.7818,-30.359064
-0.4238151,1.064233,-4.557352,-47.794643,-156.3203,-27.902649
-0.007926616,0.60307854,-4.170757,-51.262203,-156.67973,-25.407959
0.3306536,0.08590958,-3.8361764,-51.98056,-156.10355,-24.122274
0.60930663,-0.4515884,-3.5686803,-48.682053,-155.25323,-24.381714
0.8611021,-0.98232627,-3.3222902,-43.30833,-154.48111,-24.661858
1.0854914,-1.474375,-3.0730107,-37.54043,-153.82915,-23.769442
1.3000827,-1.895979,-2.7833917,-31.02393,-152.36586,-21.50349
1.4693695,-2.2471623,-2.4835684,-24.475172,-150.25739,-18.774769
1.595466,-2.541706,-2.2168753,-17.860144,-147.69223,-15.858418
1.6904259,-2.7879207,-1.9755043,-11.099939,-144.99237,-12.850141
1.7762023,-2.9716303,-1.7312539,-4.309891,-142.20848,-9.754795
1.8725452,-3.0819407,-1.4840155,2.7130857,-138.95096,-6.6056995
1.9966729,-3.1123166,-1.2147471,9.105519,-135.37991,-3.1993709
2.1237934,-3.1012332,-0.94886494,14.875454,-131.52611,0.34920567
2.2507145,-3.0776815,-0.6878366,20.226765,-127.34612,3.9677305
2.3779314,-3.025368,-0.4238622,25.330235,-122.79978,7.707721
2.5039563,-2.9235933,-0.15514736,30.05281,-117.49848,11.496462
2.6203485,-2.7520933,0.12831204,33.882236,-111.6406,15.283349
2.7240155,-2.5469499,0.41044593,36.8592,-105.549355,19.006914
2.8311706,-2.3266623,0.68527114,39.149956,-99.182884,22.452084
2.9366841,-2.1120284,0.93851036,41.144783,-92.486465,25.522545
3.0417473,-1.8944913,1.1701893,42.425606,-85.16875,28.506657
3.1325824,-1.6637179,1.3628575,43.1098,-77.6299,31.241623
3.2028887,-1.4444485,1.5081215,43.44972,-69.937874,33.55054
3.2508116,-1.235596,1.6070323,43.490345,-62.222332,35.557575
3.2727823,-1.0301124,1.6614636,43.291763,-54.540924,37.204098
3.267136,-0.8276962,1.6729237,42.902058,-46.948093,38.17382
3.2328804,-0.6281303,1.6371443,42.40433,-39.57408,38.61001
3.1796231,-0.43961245,1.5718732,41.637573,-32.520092,38.732727
3.1102023,-0.2611358,1.4794705,40.625828,-25.8765,38.648212
3.025357,-0.08830328,1.3685683,39.4627,-19.688393,38.24845
2.9338863,0.07939876,1.2474194,38.27622,-13.889238,37.33192
2.8306475,0.24740729,1.1074218,37.055412,-8.538135,36.07481
2.7212408,0.41868934,0.96689576,35.679268,-3.6443703,34.59033
2.5995128,0.60241926,0.82828873,34.218147,0.71390843,32.720547
2.4815383,0.7979989,0.6988298,32.4304,4.578218,30.455864
2.379244,0.9819246,0.5705634,30.135374,8.044167,27.768799
2.2863317,1.1341721,0.42934096,27.789125,11.222329,24.690601
2.1935213,1.2561992,0.28383577,25.526842,14.176119,21.42287
2.0891345,1.3658589,0.12673791,23.41018,16.730135,18.065273
1.9742539,1.4771774,-0.038388994,21.310066,18.66951,14.631687
1.8647971,1.5939692,-0.2008497,18.774002,19.746435,11.096709
1.7709099,1.6887333,-0.350349,16.066393,20.381613,7.5042048
1.682207,1.7602596,-0.4869166,13.525246,20.632454,3.6490755
1.5972785,1.8172194,-0.6051098,11.24642,20.594677,-0.33208317
1.5212725,1.8735359,-0.70732105,9.094164,20.264996,-4.4160757
1.4640325,1.9271547,-0.799327,6.896501,19.592398,-8.667904
1.4264255,1.9657671,-0.87243676,4.578576,18.771023,-12.865268
1.3917083,1.9894024,-0.93034977,1.9913462,17.772326,-16.935966
1.3626539,1.9960036,-0.97423506,-0.7116058,16.766726,-20.831545
1.3388159,1.9989972,-1.0152069,-3.4490056,15.811097,-24.635515
1.3085765,2.0025089,-1.0624069,-6.2625365,14.937517,-28.391014
1.2480329,2.0041752,-1.1377357,-8.879827,13.924886,-32.145252
1.1818049,1.9840447,-1.2317249,-11.096627,12.314956,-36.312546
1.1531023,1.9266907,-1.2976729,-13.079299,10.305128,-40.519283
1.1634225,1.847804,-1.3239172,-15.088661,8.223717,-44.493553
1.1892716,1.7509714,-1.3258417,-17.118088,6.4051538,-47.97075
1.2176198,1.641572,-1.3256844,-19.11162,4.674493,-51.158794
1.2539821,1.5144255,-1.3253707,-21.039318,2.8205276,-54.193707
1.3071784,1.3555355,-1.306808,-23.057806,1.009302,-56.770023
1.3623742,1.1649569,-1.277956,-24.831419,-0.637016,-58.928688
1.4096905,0.9582707,-1.2382221,-25.947145,-1.8497609,-60.583195
1.4424839,0.75603896,-1.1904688,-26.730827,-2.7761478,-61.765736
1.4643571,0.56189084,-1.1446571,-27.440952,-3.5478272,-62.428883
1.470008,0.36479917,-1.1046797,-28.017748,-4.3149395,-62.649845
1.464323,0.15858743,-1.0657265,-28.335403,-5.108899,-62.461838
1.4551612,-0.051693406,-1.0171078,-28.058548,-5.796479,-61.696236
1.456366,-0.23882551,-0.94298136,-27.423645,-6.20465,-60.513065
1.4738101,-0.40254667,-0.8503295,-26.786505,-6.2014494,-58.728756
1.5131596,-0.5692072,-0.73959213,-26.34485,-5.5917225,-55.964592
1.5342135,-0.71718466,-0.64404655,-25.608044,-4.3574634,-52.701057
1.5109228,-0.82498246,-0.5775508,-23.971188,-2.925874,-50.05703
1.464154,-0.89577264,-0.5176297,-22.353115,-1.6010333,-47.569077
1.4142324,-0.95126045,-0.45922074,-21.135162,-0.5027058,-44.98861
1.3712407,-1.0041851,-0.39740607,-20.114904,0.48665014,-42.41885
1.3367438,-1.0555503,-0.33292696,-19.09307,1.559459,-39.903595
1.2945986,-1.0222707,-0.3224303,-18.491096,1.5102918,-38.6455
1.2538141,-0.99006546,-0.3122726,-17.908562,1.4627123,-37.42803
1.2143435,-0.9588978,-0.30244216,-17.344793,1.4166656,-36.249783
1.1761421,-0.9287323,-0.29292777,-16.79915,1.3720993,-35.109417
1.1391664,-0.8995347,-0.28371865,-16.271017,1.328963,-34.005642
1.103375,-0.87127227,-0.2748045,-15.759799,1.2872084,-32.937218
1.0687279,-0.84391344,-0.2661754,-15.264926,1.2467889,-31.902958
1.0351868,-0.817428,-0.2578217,-14.78585,1.2076595,-30.901712
1.0027148,-0.7917867,-0.24973428,-14.322043,1.1697773,-29.93238
0.9712763,-0.76696146,-0.24190427,-13.872998,1.1331007,-28.993898
0.94083697,-0.7429253,-0.23432311,-13.438226,1.09759,-28.085245
0.91136396,-0.7196521,-0.22698262,-13.017255,1.0632064,-27.205435
0.88282543,-0.69711685,-0.21987486,-12.609632,1.0299131,-26.353521
0.8551907,-0.6752953,-0.2129922,-12.214917,0.99767417,-25.528587
0.82843024,-0.6541641,-0.20632729,-11.83269,0.96645516,-24.729752
0.80251557,-0.6337007,-0.19987303,-11.462544,0.9362228,-23.956163
0.77741915,-0.61388355,-0.19362257,-11.104086,0.9069451,-23.207005
0.7531146,-0.59469163,-0.18756932,-10.756936,0.8785911,-22.481478
0.7295761,-0.57610464,-0.18170688,-10.420731,0.8511309,-21.778824
0.70677906,-0.5581031,-0.17602909,-10.095114,0.82453567,-21.0983
0.6846996,-0.5406682,-0.17053,-9.779747,0.7987775,-20.4392
0.6633146,-0.5237817,-0.1652039,-9.474299,0.7738296,-19.800829
0.64260185,-0.507426,-0.16004522,-9.178453,0.74966586,-19.182526
0.62253976,-0.49158415,-0.1550486,-8.891902,0.72626126,-18.583647
0.60310763,-0.47623968,-0.15020886,-8.614347,0.70359147,-18.00357
0.58428526,-0.46137673,-0.145521,-8.345503,0.6816331,-17.441698
0.5660533,-0.44698,-0.14098018,-8.085091,0.6603635,-16.897448
0.5483929,-0.43303457,-0.13658172,-7.8328424,0.63976073,-16.370262
0.53128594,-0.4195262,-0.13232109,-7.5884986,0.61980355,-15.859596
0.51471484,-0.40644094,-0.12819391,-7.3518095,0.60047156,-15.364926
0.4986626,-0.39376542,-0.12419598,-7.122531,0.58174485,-14.885746
0.4831128,-0.38148662,-0.12032318,-6.9004297,0.56360435,-14.421565
0.4680496,-0.36959207,-0.11657157,-6.6852775,0.5460314,-13.971908
0.45345756,-0.35806957,-0.112937294,-6.4768553,0.5290082,-13.536315
0.43932182,-0.34690738,-0.10941668,-6.274951,0.51251733,-13.114345
0.42562798,-0.33609414,-0.106006116,-6.079358,0.49654195,-12.705565
0.41236213,-0.32561886,-0.10270215,-5.8898787,0.48106587,-12.309562
0.3995108,-0.31547087,-0.099501416,-5.7063193,0.46607336,-11.925932
0.3870609,-0.30563992,-0.09640067,-5.5284944,0.4515492,-11.554286
0.37499985,-0.296116,-0.09339677,-5.356223,0.43747863,-11.194247
0.3633154,-0.28688943,-0.09048666,-5.189331,0.42384744,-10.845451
0.35199574,-0.27795094,-0.0876674,-5.027649,0.4106418,-10.507544
0.34102938,-0.26929146,-0.08493614,-4.8710136,0.39784834,-10.180183
0.33040527,-0.2609022,-0.08229013,-4.719267,0.38545415,-9.86304
0.32011268,-0.25277472,-0.07972667,-4.572255,0.3734467,-9.555792
0.3101412,-0.24490081,-0.077243194,-4.4298296,0.36181387,-9.25813
0.30048075,-0.23727252,-0.074837185,-4.291847,0.35054392,-8.969753
0.29112163,-0.22988215,-0.07250622,-4.1581683,0.33962548,-8.690371
0.2820544,-0.22272226,-0.07024794,-4.0286584,0.32904753,-8.419702
0.2732699,-0.21578564,-0.06806009,-3.9031868,0.31879944,-8.157472
0.26475927,-0.20906529,-0.065940455,-3.7816274,0.30887085,-7.903419
0.25651398,-0.20255446,-0.063886896,-3.6638577,0.29925182,-7.6572857
0.24852572,-0.19624658,-0.061897356,-3.5497591,0.28993264,-7.4188256
0.24078645,-0.19013533,-0.059969828,-3.4392173,0.28090394,-7.187798
0.23328839,-0.18421455,-0.058102377,-3.3321204,0.27215663,-6.963971
0.22602402,-0.17847827,-0.056293122,-3.2283614,0.26368192,-6.74712
0.21898602,-0.17292076,-0.05454025,-3.1278358,0.25547132,-6.537026
0.21216732,-0.16753644,-0.052842,-3.0304425,0.24751656,-6.333479
0.20556109,-0.16231987,-0.051196665,-2.936084,0.23980966,-6.136274
0.19916068,-0.15726583,-0.04960259,-2.844665,0.23234287,-5.945213
0.19295967,-0.15236925,-0.04805818,-2.7560945,0.22510871,-5.7601047
0.18695185,-0.14762521,-0.04656188,-2.670283,0.21809992,-5.580763
0.18113115,-0.14302894,-0.045112193,-2.5871449,0.21130946,-5.4070077
0.1754918,-0.13857587,-0.04370766,-2.506596,0.20473051,-5.238665
0.17002809,-0.13426147,-0.04234688,-2.4285567,0.1983565,-5.0755663
0.16473456,-0.13008147,-0.04102848,-2.3529477,0.192181,-4.917547
0.15960589,-0.12603167,-0.03975115,-2.2796936,0.18619786,-4.7644496
0.15463696,-0.12210799,-0.038513597,-2.2087212,0.18040106,-4.6161203
0.14982279,-0.11830651,-0.037314586,-2.1399589,0.1747848,-4.4724107
0.14515853,-0.11462341,-0.036152914,-2.073338,0.16934343,-4.3331766
0.14063953,-0.11105502,-0.035027422,-2.008792,0.1640715,-4.1982784
0.13626125,-0.10759774,-0.033936974,-1.9462558,0.15896377,-4.0675807
0.13201931,-0.10424812,-0.032880485,-1.8856671,0.15401508,-3.9409533
0.12790947,-0.101002805,-0.031856894,-1.826965,0.14922048,-3.8182688
0.123927586,-0.09785854,-0.030865174,-1.7700908,0.14457518,-3.6994045
0.12006969,-0.094812185,-0.029904336,-1.7149875,0.14007452,-3.5842412
0.11633193,-0.09186068,-0.028973414,-1.6616,0.13571401,-3.4726636
0.112710536,-0.08900108,-0.028071476,-1.6098747,0.13148926,-3.3645604
0.1092019,-0.08623051,-0.027197624,-1.55976,0.12739605,-3.259823
0.105802506,-0.08354621,-0.026350977,-1.5112056,0.12343028,-3.1583467
0.102508955,-0.08094548,-0.02553069,-1.4641628,0.11958799,-3.0600295
0.09931794,-0.07842571,-0.024735942,-1.4185847,0.11586532,-2.9647737
0.096226275,-0.0759844,-0.023965938,-1.3744256,0.11225855,-2.8724833
0.093230866,-0.0736191,-0.023219906,-1.3316414,0.10876408,-2.7830663
0.09032871,-0.07132743,-0.0224971,-1.2901891,0.1053784,-2.696433
0.087516904,-0.06910711,-0.021796798,-1.2500274,0.102098115,-2.6124969
0.08479264,-0.06695591,-0.021118298,-1.211116,0.09891996,-2.531174
0.082153186,-0.06487168,-0.02046092,-1.1734159,0.095840745,-2.4523826
0.0795959,-0.06285234,-0.019824008,-1.1368895,0.09285738,-2.3760443
0.077118225,-0.060895864,-0.019206923,-1.1015003,0.08996691,-2.3020823
0.074717686,-0.05900029,-0.018609047,-1.0672126,0.08716641,-2.230423
0.072391875,-0.05716373,-0.018029785,-1.0339924,0.0844531,-2.1609943
0.07013846,-0.055384345,-0.017468555,-1.0018064,0.08182424,-2.093727
0.0679552,-0.053660348,-0.016924797,-0.97062236,0.07927723,-2.028554
0.06583991,-0.05199002,-0.016397966,-0.940409,0.07680951,-1.9654095
0.06379046,-0.05037169,-0.015887534,-0.91113627,0.074418604,-1.9042308
0.061804816,-0.04880374,-0.015392994,-0.8827747,0.07210213,-1.8449565
0.059880983,-0.047284596,-0.014913847,-0.8552961,0.06985776,-1.7875276
0.058017034,-0.04581274,-0.014449615,-0.8286728,0.067683265,-1.7318861
0.05621111,-0.044386707,-0.013999835,-0.8028783,0.06557646,-1.677977
0.0544614,-0.04300506,-0.013564056,-0.77788675,0.06353523,-1.6257458
