ax,ay,az,gx,gy,gz
-0.05636415,-0.026363876,-1.5136501,9.543723,-11.4855585,-6.658242
-0.009020412,0.12770833,-1.5948162,7.904809,-10.433253,-6.2774296
-0.1466825,0.34917125,-1.7102458,1.1688001,-11.775603,-4.0910735
-0.34627846,0.4546414,-1.8316103,-3.1965606,-13.898427,-4.0606995
-0.559316,0.47917834,-1.9261976,-6.5641003,-15.599926,-4.0181403
-0.77721393,0.50678563,-2.0256243,-9.295826,-17.159515,-4.2521195
-0.9271897,0.52594167,-2.0909042,-11.584339,-18.787245,-5.1696963
-1.0084716,0.4820917,-2.137287,-13.020153,-20.851902,-6.4759035
-1.0382112,0.40046066,-2.1826744,-14.081542,-23.352139,-7.3946533
-1.0406346,0.32604823,-2.2137783,-15.121688,-25.866594,-7.903532
-1.0403888,0.2461068,-2.2510157,-15.98274,-28.469479,-8.208119
-1.0459553,0.14615993,-2.282977,-16.908909,-31.175165,-7.995225
-1.0534143,0.035437293,-2.3047843,-17.354,-34.21971,-7.5548525
-1.0328883,-0.0692473,-2.2969928,-17.325022,-37.16755,-7.1526227
-0.98355114,-0.14218707,-2.2651806,-17.096958,-39.903408,-6.888603
-0.9094574,-0.22004467,-2.2224872,-17.370043,-42.305244,-6.22359
-0.84673685,-0.34510684,-2.1925092,-17.790758,-44.56333,-5.1681614
-0.79160935,-0.49979314,-2.1619644,-17.074333,-46.96584,-4.291862
-0.71229166,-0.6219522,-2.0866919,-15.717455,-49.197487,-3.5002089
-0.6138126,-0.6919108,-1.9945501,-14.5239935,-51.182392,-2.4400907
-0.5000659,-0.7452206,-1.892263,-14.038713,-52.76787,-1.0069226
-0.41002566,-0.82772136,-1.7821294,-13.851805,-54.00774,0.78421
-0.34280702,-0.9166551,-1.6531641,-12.953574,-54.983208,2.4067097
-0.2661486,-0.96175635,-1.5019163,-11.786762,-55.697628,3.86312
-0.17871983,-0.97536683,-1.3434713,-10.907249,-56.06041,5.4470825
-0.10069283,-0.9997172,-1.1889387,-10.2208,-56.166077,7.105485
-0.03667808,-1.0523216,-1.0414777,-9.268665,-56.129734,8.76701
0.030410582,-1.0967493,-0.8855141,-7.810723,-55.870224,10.31759
0.11092239,-1.1065787,-0.72331333,-6.296823,-55.380363,11.891894
0.19773974,-1.1111546,-0.56959236,-4.9054,-54.691658,13.497136
0.28227836,-1.1287495,-0.42113674,-3.2184296,-53.768864,15.033666
0.363279,-1.1242839,-0.26907605,-1.0733646,-52.589336,16.274614
0.44795159,-1.0951775,-0.11295239,1.1142597,-50.95368,17.623848
0.5227034,-1.025425,0.03008326,2.9799633,-49.176754,18.915958
0.5902881,-0.94936913,0.16142057,4.5779543,-47.309647,20.004122
0.65107363,-0.88771564,0.28115878,6.1608887,-45.335934,21.033522
0.7035305,-0.82679456,0.38762268,7.957039,-43.367283,21.895473
0.75968003,-0.7580013,0.49152958,9.7558775,-41.135296,22.65107
0.8110203,-0.67093873,0.59413,11.337309,-38.676914,23.277836
0.8412229,-0.5800751,0.69402283,12.676956,-35.98831,23.66756
0.8493973,-0.504656,0.7785622,13.844409,-33.284317,23.915585
0.86028785,-0.44311363,0.84296644,15.011746,-30.752672,24.08674
0.89775777,-0.38379565,0.9055531,16.071014,-28.12029,24.360989
0.94608676,-0.30003557,0.9725121,16.774305,-25.259884,24.627632
0.9885049,-0.21183197,1.0168403,17.037432,-22.301434,24.767544
1.0306389,-0.14160827,1.0320663,17.018026,-19.297323,24.78921
1.0712076,-0.09757942,1.0218819,16.965734,-16.233849,24.797314
1.0950376,-0.06223277,0.98830837,17.049532,-13.135695,24.652292
1.0936043,-0.024039129,0.92556417,17.182005,-10.151152,24.38614
1.0840906,0.021224737,0.84776807,17.313385,-7.323747,23.989758
1.0694836,0.07393291,0.7594441,17.361433,-4.699098,23.489422
1.0517467,0.13216485,0.6666645,17.219185,-2.2573745,22.991955
1.0321118,0.1958334,0.5706969,16.690844,-0.010429282,22.572529
1.0079594,0.2703474,0.46513116,15.818967,1.9429699,22.266329
0.9901049,0.35696468,0.36173543,14.376955,3.668027,22.131224
0.97812194,0.45431995,0.262938,12.512675,5.22886,21.987
0.96262985,0.5485859,0.17497718,10.423346,6.66455,21.649355
0.93812793,0.6212569,0.095536515,8.813564,8.030374,20.595793
0.9020239,0.6586551,0.01440058,7.985243,9.199701,18.955856
0.8720236,0.70654833,-0.055578858,7.486578,10.160479,17.111752
0.8514615,0.784488,-0.11129966,6.7794847,10.922822,15.217685
0.8396863,0.871168,-0.1554478,5.571138,11.618954,13.411695
0.83449316,0.946464,-0.19728538,3.7479675,12.282997,11.613261
0.8296407,0.9890754,-0.24815702,1.7220852,12.890634,9.792312
0.81974256,1.0022001,-0.30436045,-0.2048033,13.428309,7.9317594
0.8032468,0.99737734,-0.36050767,-1.7601739,13.87513,5.846635
0.7842665,0.9847383,-0.4132104,-2.9262993,14.283289,3.574122
0.7582494,0.97099066,-0.4678119,-3.6664283,14.550755,1.1245202
0.7216415,0.9656575,-0.5240912,-4.2569327,14.616265,-1.3499547
0.68855435,0.9621927,-0.57328975,-4.8354583,14.514155,-3.7922363
0.6590212,0.9521252,-0.6196392,-5.2508893,14.287165,-6.302795
0.629387,0.9431549,-0.6612393,-5.5555263,13.993972,-8.850362
0.59282565,0.93689436,-0.70178187,-5.8365026,13.596125,-11.515259
0.5439894,0.9074975,-0.7500913,-5.8043275,13.068123,-14.400179
0.4915927,0.85511637,-0.8051466,-5.156418,12.306111,-17.662191
0.44075227,0.79185456,-0.86036223,-4.1665845,11.271574,-20.902431
0.38793495,0.73960304,-0.90957206,-3.4849603,9.98137,-23.649136
0.33396187,0.6973577,-0.954149,-3.3382592,8.407363,-25.7571
0.28991267,0.6676534,-0.99320906,-3.3060968,6.6321135,-27.783194
0.2697688,0.63588375,-1.0217987,-3.3153946,4.7911706,-29.718681
0.2636959,0.6004774,-1.0408647,-3.3724666,2.990452,-31.518616
0.25404102,0.5648581,-1.0564517,-3.5756576,1.1478298,-33.01656
0.23881377,0.5315794,-1.0742431,-3.9470367,-0.91971624,-34.31081
0.235833,0.49352103,-1.0863391,-4.567467,-3.1300771,-35.350536
0.24856293,0.4461563,-1.0858886,-5.407721,-5.359784,-36.084656
0.27335203,0.38570452,-1.0752157,-6.2038703,-7.4415183,-36.70138
0.2973498,0.30825785,-1.0602387,-6.7964373,-9.384021,-37.206467
0.31217602,0.23117794,-1.0428846,-6.991032,-11.295225,-37.708878
0.31740654,0.16348034,-1.0227907,-6.9727836,-13.319771,-38.18956
0.3262002,0.10946739,-0.99192786,-6.987614,-15.488469,-38.528698
0.3428282,0.069167,-0.9478226,-7.17596,-17.783333,-38.660152
0.36926273,0.028954446,-0.8875798,-7.448175,-20.164072,-38.655544
0.41717878,-0.014648653,-0.8030133,-7.6563635,-22.01471,-38.605225
0.47975677,-0.063318394,-0.7039118,-7.838877,-23.233816,-38.453358
0.5222449,-0.11658109,-0.6166387,-7.9888763,-24.042078,-38.195553
0.5470673,-0.16756777,-0.53631186,-8.063527,-24.607225,-37.724483
0.5588514,-0.19884449,-0.45776895,-8.128194,-25.020987,-37.195778
0.56398183,-0.2217904,-0.38467112,-8.333876,-25.333942,-36.510147
0.5689507,-0.24235745,-0.3137508,-8.554077,-25.49018,-35.76409
0.5736069,-0.2661821,-0.24759315,-8.729204,-25.483269,-35.031986
0.57274467,-0.29509783,-0.19098106,-8.87977,-25.364077,-34.286682
0.56725687,-0.33159816,-0.1442361,-8.977952,-25.250566,-33.469536
0.5667181,-0.37188455,-0.09939674,-8.8862915,-25.051054,-32.607533
0.5721894,-0.40656728,-0.053561732,-8.673682,-24.720617,-31.696402
0.574805,-0.4282398,-0.010070137,-8.376333,-24.286263,-30.760527
0.5746239,-0.43472272,0.029061744,-8.050211,-23.78175,-29.848295
0.5750724,-0.433265,0.06534445,-7.76286,-23.199738,-28.930376
0.57220024,-0.42960697,0.09540542,-7.5321164,-22.514116,-27.993618
0.5627121,-0.42905778,0.11632163,-7.34288,-21.73385,-26.998652
0.549342,-0.42612445,0.12925406,-7.1938114,-20.934229,-25.975834
0.5360786,-0.42103773,0.13835156,-7.070364,-20.104443,-24.945055
0.5235419,-0.415206,0.14507538,-6.9697986,-19.245434,-23.897047
0.5103375,-0.41105312,0.1489077,-6.7905726,-18.363817,-22.925592
0.4978577,-0.40971103,0.15218377,-6.5427275,-17.469807,-22.066317
0.48770058,-0.41021875,0.15819393,-6.279814,-16.540966,-21.279566
0.47817257,-0.40921456,0.16520062,-6.063173,-15.616408,-20.589712
0.4725263,-0.41032982,0.17498024,-5.944584,-14.73978,-19.904274
0.47257224,-0.41231397,0.18965855,-5.9057994,-13.79733,-19.284
0.47557697,-0.42436334,0.20671405,-5.854889,-12.869107,-18.64125
0.4786437,-0.44080374,0.22666442,-5.826507,-11.876673,-17.752321
0.46373078,-0.4270698,0.21960233,-5.644973,-11.506637,-17.199219
0.44928336,-0.41376454,0.21276067,-5.4691052,-11.1481495,-16.663382
0.43528682,-0.40087453,0.20613253,-5.2987256,-10.800851,-16.144266
0.421727,-0.3883867,0.19971122,-5.133663,-10.464389,-15.64135
0.40859026,-0.3762885,0.19349022,-4.9737496,-10.138424,-15.154122
0.3958633,-0.36456767,0.1874633,-4.818825,-9.822628,-14.682095
0.38353327,-0.35321242,0.18162435,-4.668732,-9.516681,-14.224789
0.37158778,-0.3422113,0.17596748,-4.52332,-9.220275,-13.781745
0.36001477,-0.33155322,0.17048703,-4.382443,-8.933112,-13.352516
0.3488026,-0.32122746,0.16517745,-4.2459574,-8.654902,-12.93667
0.33793998,-0.3112236,0.16003339,-4.1137276,-8.385366,-12.533789
0.327416,-0.30153158,0.1550497,-3.9856193,-8.124232,-12.143467
0.31722003,-0.29214168,0.15022133,-3.8615043,-7.871238,-11.76531
0.30734184,-0.28304443,0.14554347,-3.7412577,-7.626129,-11.39894
0.2977715,-0.2742307,0.14101139,-3.6247585,-7.3886585,-11.043988
0.28849941,-0.26569164,0.13662052,-3.5118897,-7.1585884,-10.700097
0.27951625,-0.25741863,0.1323665,-3.4025378,-6.935687,-10.366922
0.27081296,-0.2494034,0.12824501,-3.2965934,-6.7197313,-10.044128
0.26238084,-0.24163792,0.12425194,-3.1939497,-6.510504,-9.731391
0.25421143,-0.23411435,0.12038326,-3.0945039,-6.3077946,-9.428397
0.24629653,-0.22682515,0.116635114,-2.9981558,-6.1114006,-9.134843
0.23862818,-0.21976304,0.11300372,-2.9048095,-5.921124,-8.850432
0.23119868,-0.2129209,0.10948545,-2.8143706,-5.736775,-8.5748825
0.22400062,-0.20629188,0.106076755,-2.726749,-5.558168,-8.307914
0.21702674,-0.19986935,0.10277424,-2.6418562,-5.385124,-8.049262
0.21027008,-0.19364683,0.09957458,-2.5596077,-5.2174697,-7.798665
0.20372385,-0.18761812,0.09647458,-2.4799206,-5.055037,-7.555873
0.19738148,-0.18177718,0.09347112,-2.4027154,-4.8976626,-7.3206425
0.19123664,-0.17611812,0.090561196,-2.3279145,-4.7451897,-7.0927377
0.18528315,-0.1706353,0.08774189,-2.255443,-4.5974646,-6.87193
0.17951508,-0.16532321,0.08501038,-2.1852283,-4.45434,-6.6579986
0.1739266,-0.16017655,0.082363926,-2.1172001,-4.3156724,-6.450729
0.16851215,-0.15519014,0.07979988,-2.0512903,-4.1813226,-6.2499137
0.16326629,-0.150359,0.07731567,-1.9874328,-4.051156,-6.055351
0.15818378,-0.1456783,0.07490882,-1.9255636,-3.9250429,-5.8668466
0.15325952,-0.14114334,0.07257691,-1.8656209,-3.8028562,-5.6842117
0.14848858,-0.13674958,0.0703176,-1.8075445,-3.6844742,-5.5072637
0.1438662,-0.13249262,0.068128645,-1.7512764,-3.569778,-5.3358245
0.13938771,-0.1283682,0.066007845,-1.69676,-3.4586527,-5.1697235
0.13504869,-0.12437219,0.063953064,-1.6439412,-3.3509874,-5.008794
0.13084474,-0.120500594,0.061962266,-1.5927668,-3.2466743,-4.8528743
0.12677167,-0.11674953,0.060033444,-1.5431856,-3.1456087,-4.7018094
0.12282542,-0.11311526,0.058164675,-1.4951481,-3.0476894,-4.5554476
0.11900203,-0.10959413,0.056354083,-1.448606,-2.9528189,-4.4136424
0.11529766,-0.10618262,0.05459986,-1.403513,-2.8609018,-4.2762523
0.111708626,-0.10287732,0.05290025,-1.3598238,-2.7718463,-4.143139
0.10823132,-0.09967492,0.051253553,-1.3174948,-2.6855633,-4.0141697
0.104862265,-0.09657221,0.04965812,-1.2764834,-2.6019664,-3.8892157
0.1015981,-0.0935661,0.04811235,-1.2367488,-2.520972,-3.7681515
0.09843554,-0.09065356,0.046614707,-1.1982512,-2.442499,-3.6508563
0.09537144,-0.0878317,0.045163687,-1.1609521,-2.366469,-3.5372124
0.09240273,-0.08509768,0.043757834,-1.124814,-2.2928057,-3.4271064
0.08952643,-0.08244877,0.04239575,-1.089801,-2.2214355,-3.320428
0.086739674,-0.079882324,0.04107606,-1.0558779,-2.1522872,-3.2170703
0.084039666,-0.077395774,0.03979746,-1.0230108,-2.0852914,-3.1169305
0.08142371,-0.07498662,0.03855866,-0.99116695,-2.0203812,-3.0199077
0.07888918,-0.072652474,0.037358418,-0.9603143,-1.9574916,-2.9259052
0.076433554,-0.07039098,0.036195543,-0.93042207,-1.8965597,-2.834829
0.074054375,-0.06819988,0.035068866,-0.90146035,-1.8375245,-2.7465878
0.07174925,-0.066076994,0.033977263,-0.8734002,-1.7803272,-2.6610937
