ax,ay,az,gx,gy,gz
-2.2536569,1.4009218,-5.729143,-24.470222,-113.24921,-57.928707
-1.9002819,1.3514066,-5.703346,-28.369522,-122.39584,-60.223038
-1.4299843,1.0801389,-5.4915605,-30.24727,-126.09744,-60.722317
-1.0248315,0.761855,-5.3232403,-29.790394,-128.77234,-61.008175
-0.67247295,0.43593106,-5.192575,-27.35672,-132.61623,-60.92922
-0.28001815,0.1190293,-4.9809837,-24.85969,-137.20407,-60.12854
0.19027078,-0.22509031,-4.6081824,-22.252392,-141.16817,-58.524353
0.62340635,-0.60144764,-4.1758695,-18.550985,-143.0711,-56.339485
0.9245479,-1.0217553,-3.79139,-13.720636,-143.82535,-54.239326
1.1198798,-1.448516,-3.4968424,-7.908347,-144.20193,-51.965744
1.2564461,-1.8735234,-3.2581656,-1.101924,-144.68808,-49.35602
1.3984742,-2.251346,-2.9984858,6.354712,-144.80077,-46.060833
1.5706336,-2.524285,-2.6910086,14.35903,-143.78587,-41.742043
1.7660011,-2.6638243,-2.3266037,21.881643,-141.99983,-37.471962
1.9635229,-2.7572956,-1.9574622,28.921337,-139.53378,-33.4292
2.161575,-2.8391597,-1.5918298,35.700027,-136.43419,-29.326822
2.3496764,-2.907182,-1.2365466,42.146248,-132.75781,-24.885403
2.523862,-2.94272,-0.8889703,48.305492,-127.873665,-19.847126
2.6883008,-2.91991,-0.55494094,54.20999,-122.18353,-14.667168
2.8212786,-2.8432646,-0.24287578,59.905827,-115.697624,-9.596186
2.924757,-2.6874192,0.045835048,64.96153,-108.61152,-4.843164
3.0108626,-2.4498765,0.32010573,68.77404,-101.11908,-0.33487764
3.076429,-2.1568494,0.57997733,70.86279,-93.18446,3.566887
3.1044335,-1.8849856,0.80310965,72.34421,-85.25134,6.724847
3.1164956,-1.6351354,0.9915468,73.52043,-77.469604,9.523819
3.1400554,-1.3677813,1.1606619,73.76953,-69.71427,12.0728855
3.1809375,-1.0782216,1.3158857,72.74266,-61.7246,14.412185
3.2247663,-0.80064815,1.4308676,70.18102,-53.494953,16.520086
3.254232,-0.56299365,1.4850477,67.15875,-45.353554,18.266237
3.262705,-0.35404086,1.4977069,63.958588,-37.378242,19.62305
3.2502515,-0.16141841,1.4650012,60.872448,-29.841959,20.627815
3.2178934,0.01921749,1.3968062,57.757355,-22.87603,21.278564
3.1747155,0.18333353,1.3035659,54.459038,-16.567091,21.616556
3.1288207,0.33656362,1.194315,51.31501,-10.702548,21.51034
3.080167,0.4872222,1.0793506,48.13701,-5.0983014,21.113508
3.0259533,0.63792175,0.9500056,44.819862,0.19898033,20.536133
2.963813,0.7909918,0.8016661,41.524895,5.0462184,19.609365
2.897747,0.9409639,0.641878,38.294247,9.364824,18.224176
2.834529,1.1123558,0.48076507,34.982273,13.2906275,16.601171
2.773591,1.3178788,0.32617372,31.529362,16.875437,14.666216
2.7154596,1.5553199,0.17196755,27.716133,20.045443,12.2900305
2.6681652,1.7930617,0.015427472,23.168541,22.86446,9.532802
2.612757,1.9782555,-0.16224506,17.949606,25.27011,6.415698
2.5226142,2.0789435,-0.3712137,12.952929,27.168781,3.076551
2.4083498,2.1394973,-0.5776417,8.679877,28.505825,-0.51540387
2.2860873,2.190041,-0.7647477,5.1098504,29.385942,-4.308863
2.1658998,2.2452652,-0.9344023,1.8029505,29.850563,-8.263948
2.0445232,2.2898777,-1.09209,-1.3214781,29.6641,-12.414263
1.9164127,2.3146002,-1.2351469,-4.189754,28.987768,-16.762651
1.7988857,2.3175633,-1.3610295,-6.8951397,27.866316,-21.173235
1.7044868,2.2991292,-1.4686185,-9.565156,26.428274,-25.486105
1.6345949,2.2552261,-1.5600201,-12.130411,24.53142,-29.848158
1.6119584,2.1816561,-1.6017449,-14.765322,22.606752,-33.926132
1.6218388,2.0734305,-1.5930386,-17.418941,21.168583,-37.52598
1.6075993,1.9484589,-1.5973439,-20.123518,20.093239,-40.765503
1.5515431,1.8012575,-1.6400033,-22.500921,19.027287,-43.662186
1.4586627,1.6402194,-1.7168187,-24.544786,17.671038,-46.186302
1.353604,1.4754304,-1.8111122,-26.116743,15.7376995,-48.37319
1.2737399,1.3046527,-1.885595,-27.20566,13.530655,-50.27236
1.2207199,1.1394874,-1.9346954,-27.744946,11.097869,-52.04838
1.1972443,0.97969115,-1.9545519,-28.021372,8.6656,-53.60518
1.1843421,0.8192685,-1.958681,-27.97568,6.274966,-55.028366
1.1777705,0.6528212,-1.9598547,-27.5509,3.7031496,-56.22849
1.1840655,0.4699074,-1.937998,-27.054186,1.0272892,-56.969955
1.206328,0.28033948,-1.8876454,-26.456703,-1.4702812,-57.179314
1.2362752,0.0917198,-1.8145764,-25.724787,-3.7218902,-56.89941
1.2656544,-0.0874196,-1.7222277,-24.782997,-5.6271157,-56.280838
1.2867154,-0.2569893,-1.6189221,-23.523521,-7.122393,-55.302406
1.3026292,-0.40281466,-1.5037912,-22.158224,-8.384185,-54.019638
1.3247068,-0.5251705,-1.3769518,-20.813292,-9.325448,-52.482
1.3459214,-0.6295677,-1.2427487,-19.456812,-9.9458,-50.74686
1.3670362,-0.71453935,-1.0967195,-18.046396,-10.134131,-48.86358
1.3900251,-0.77101296,-0.94154555,-16.65739,-9.665023,-46.901085
1.4210737,-0.79635316,-0.7799383,-15.536747,-8.692596,-44.87545
1.4569954,-0.80812657,-0.619391,-14.7003975,-7.2048993,-42.738434
1.4978174,-0.8120782,-0.4666921,-14.163751,-5.2347236,-40.36809
1.4504671,-0.78640604,-0.4519386,-13.715994,-5.0692387,-39.09194
1.4046571,-0.761569,-0.43766508,-13.282804,-4.9091377,-37.857304
1.3603336,-0.7375379,-0.42385468,-12.8636675,-4.754231,-36.662727
1.3174444,-0.7142846,-0.41049123,-12.458097,-4.604338,-35.506813
1.2759403,-0.69178206,-0.3975593,-12.065623,-4.459285,-34.38822
1.2357732,-0.67000455,-0.38504398,-11.685793,-4.318905,-33.305668
1.1968976,-0.64892715,-0.37293106,-11.318174,-4.1830387,-32.25792
1.1592693,-0.6285261,-0.3612068,-10.962353,-4.051532,-31.24379
1.1228464,-0.6087785,-0.34985808,-10.617927,-3.9242368,-30.262142
1.0875878,-0.5896622,-0.33887216,-10.284513,-3.8010118,-29.311882
1.0534549,-0.5711562,-0.32823697,-9.961743,-3.6817205,-28.391954
1.0204098,-0.55324,-0.31794074,-9.6492605,-3.5662313,-27.501348
0.9884165,-0.5358941,-0.30797222,-9.346724,-3.454418,-26.639088
0.9574401,-0.5190994,-0.29832053,-9.0538025,-3.3461583,-25.804234
0.9274469,-0.5028379,-0.28897524,-8.770179,-3.2413352,-24.99588
0.8984047,-0.487092,-0.27992624,-8.495549,-3.1398356,-24.213156
0.87028235,-0.47184473,-0.27116382,-8.229616,-3.0415506,-23.455221
0.84304965,-0.4570799,-0.26267862,-7.9720964,-2.946375,-22.721264
0.81667763,-0.44278166,-0.2544616,-7.7227163,-2.8542075,-22.010506
0.7911384,-0.42893493,-0.24650402,-7.48121,-2.7649503,-21.322191
0.76640487,-0.41552505,-0.23879753,-7.2473235,-2.678509,-20.65559
0.742451,-0.40253788,-0.23133394,-7.0208097,-2.5947928,-20.010004
0.7192517,-0.3899598,-0.22410546,-6.8014307,-2.5137134,-19.384752
0.6967825,-0.3777776,-0.21710451,-6.588957,-2.435186,-18.77918
0.67502016,-0.36597863,-0.21032375,-6.3831663,-2.3591287,-18.192656
0.65394187,-0.3545505,-0.20375615,-6.1838446,-2.2854621,-17.624569
0.6335258,-0.34348142,-0.19739488,-5.9907846,-2.21411,-17.07433
0.6137507,-0.3327599,-0.19123332,-5.8037863,-2.144998,-16.541367
0.5945962,-0.32237482,-0.18526514,-5.6226563,-2.078055,-16.025127
0.5760425,-0.31231546,-0.17948414,-5.4472075,-2.0132115,-15.525081
0.5580704,-0.30257148,-0.17388439,-5.2772593,-1.950401,-15.040711
0.5406616,-0.29313284,-0.16846012,-5.1126366,-1.8895587,-14.571521
0.52379805,-0.28398988,-0.16320574,-4.953171,-1.8306223,-14.117027
0.50746256,-0.27513316,-0.15811591,-4.798698,-1.7735314,-13.6767645
0.49163836,-0.2665537,-0.15318538,-4.6490602,-1.7182274,-13.250282
0.47630933,-0.2582427,-0.14840914,-4.5041046,-1.6646539,-12.837145
0.4614598,-0.25019166,-0.1437823,-4.3636837,-1.6127563,-12.436931
0.4470746,-0.24239236,-0.13930014,-4.2276535,-1.5624814,-12.049232
0.4331391,-0.2348369,-0.1349581,-4.0958757,-1.5137782,-11.673652
0.41963914,-0.22751758,-0.13075176,-3.968217,-1.4665972,-11.309811
0.40656102,-0.22042695,-0.12667686,-3.8445466,-1.4208905,-10.957338
0.39389142,-0.21355781,-0.12272925,-3.7247396,-1.3766115,-10.615877
0.38161752,-0.20690322,-0.118904926,-3.6086743,-1.3337154,-10.285079
0.36972687,-0.20045641,-0.11520003,-3.4962335,-1.2921587,-9.964611
0.35820743,-0.19421087,-0.111610785,-3.3873026,-1.2518995,-9.654148
0.34704757,-0.18816029,-0.10813358,-3.2817721,-1.2128968,-9.353375
0.33623597,-0.18229853,-0.104764886,-3.179535,-1.1751114,-9.061989
0.32576174,-0.17661966,-0.10150131,-3.0804877,-1.1385051,-8.7796955
0.31561428,-0.17111798,-0.09833955,-2.984531,-1.1030407,-8.506208
0.3057834,-0.1657879,-0.09527642,-2.8915672,-1.0686827,-8.241253
0.2962591,-0.16062409,-0.092308834,-2.8015032,-1.0353962,-7.9845614
0.28703183,-0.1556213,-0.08943379,-2.7142477,-1.0031478,-7.7358747
0.27809232,-0.15077451,-0.0866484,-2.6297133,-0.9719051,-7.494943
0.2694315,-0.14607885,-0.08394986,-2.5478144,-0.94163644,-7.2615232
0.26104072,-0.14152957,-0.08133544,-2.468469,-0.91231143,-7.035381
0.25291148,-0.13712211,-0.07880252,-2.3915968,-0.8839006,-6.8162875
0.24503563,-0.13285203,-0.07634856,-2.3171208,-0.8563753,-6.6040235
0.23740527,-0.12871504,-0.07397107,-2.244966,-0.8297079,-6.398375
0.2300127,-0.12470698,-0.071667686,-2.1750598,-0.8038716,-6.199136
0.22285049,-0.120823815,-0.06943607,-2.1073322,-0.7788404,-6.0061054
0.21591146,-0.11706166,-0.067274004,-2.041715,-0.7545892,-5.81909
0.20918866,-0.11341672,-0.065179296,-1.9781423,-0.7310936,-5.6379013
0.20267528,-0.10988534,-0.063149855,-1.9165503,-0.7083301,-5.462358
0.19636485,-0.10646398,-0.061183643,-1.8568771,-0.6862757,-5.2922835
0.190251,-0.10314921,-0.05927868,-1.799063,-0.6649084,-5.1275077
0.1843276,-0.0999377,-0.057433058,-1.7430497,-0.6442067,-4.9678645
0.17858872,-0.09682622,-0.05564493,-1.6887814,-0.6241499,-4.8131943
0.17302859,-0.09381166,-0.053912498,-1.6362034,-0.6047178,-4.6633415
0.16764164,-0.090890996,-0.052234024,-1.585263,-0.58589095,-4.5181565
0.16242248,-0.0880613,-0.05060783,-1.5359092,-0.5676505,-4.3774934
0.15736586,-0.085319735,-0.049032282,-1.4880925,-0.54997814,-4.241211
0.15246673,-0.08266354,-0.0475058,-1.4417651,-0.5328561,-4.1091733
0.14772016,-0.08009008,-0.04602686,-1.3968803,-0.51626736,-3.9812472
0.1431214,-0.077596754,-0.044593975,-1.3533933,-0.50019515,-3.8573048
0.13866587,-0.075181074,-0.04320571,-1.3112605,-0.4846235,-3.7372224
0.13434908,-0.072840616,-0.041860677,-1.2704397,-0.4695367,-3.6208792
0.1301667,-0.07057304,-0.040557526,-1.2308902,-0.4549197,-3.5081587
0.12611455,-0.06837607,-0.03929495,-1.192572,-0.44075787,-3.3989482
0.122188576,-0.06624751,-0.038071692,-1.155447,-0.42703697,-3.2931383
0.118384846,-0.064185224,-0.03688652,-1.1194779,-0.41374332,-3.1906228
0.11469955,-0.062187154,-0.035738252,-1.0846288,-0.4008636,-3.0912995
0.111129,-0.06025129,-0.03462573,-1.0508647,-0.38838485,-2.9950686
0.107669614,-0.058375705,-0.033547852,-1.0181519,-0.37629464,-2.9018338
0.10431794,-0.056558512,-0.032503534,-0.9864576,-0.36458087,-2.8115017
0.10107062,-0.054797895,-0.031491727,-0.95575005,-0.3532318,-2.7239823
0.0979244,-0.053092092,-0.030511422,-0.9259985,-0.34223607,-2.6391876
0.094876125,-0.0514394,-0.029561639,-0.8971733,-0.33158267,-2.5570328
0.09192275,-0.04983816,-0.028641423,-0.86924547,-0.32126093,-2.4774356
0.08906133,-0.048286766,-0.027749857,-0.8421871,-0.31126052,-2.4003165
0.08628899,-0.046783675,-0.026886046,-0.8159711,-0.30157146,-2.3255985
0.08360295,-0.045327377,-0.026049128,-0.7905713,-0.29218403,-2.2532063
0.08100054,-0.04391641,-0.025238262,-0.7659621,-0.28308886,-2.183068
0.07847914,-0.042549375,-0.024452643,-0.74211913,-0.27427682,-2.115113
0.07603624,-0.041224897,-0.02369148,-0.7190184,-0.2657391,-2.0492737
0.07366938,-0.039941646,-0.022954011,-0.6966368,-0.25746718,-1.9854839
0.071376204,-0.038698345,-0.0222395,-0.674952,-0.24945277,-1.92368
0.06915442,-0.03749375,-0.021547232,-0.65394217,-0.24168785,-1.8637999
0.0670018,-0.036326654,-0.020876516,-0.6335864,-0.23416464,-1.805784
0.064916186,-0.035195887,-0.020226678,-0.6138643,-0.22687563,-1.7495741
0.06289549,-0.034100324,-0.019597068,-0.5947561,-0.21981353,-1.6951139
0.06093771,-0.033038862,-0.018987058,-0.5762428,-0.21297126,-1.6423491
0.059040867,-0.032010444,-0.018396039,-0.5583058,-0.20634198,-1.5912268
0.057203073,-0.031014038,-0.017823415,-0.5409271,-0.19991907,-1.541696
0.05542249,-0.030048652,-0.017268619,-0.52408946,-0.19369611,-1.4937068
