ax,ay,az,gx,gy,gz
2.5409322,4.92459,2.5318413,16.81288,-81.23256,-11.818289
2.2150612,4.926691,2.7253625,5.6030984,-92.54743,-22.937937
2.362082,4.433963,3.7079928,6.5143948,-86.0523,-33.691303
2.9317293,4.155626,4.6066833,10.268912,-71.70993,-39.638096
3.5475805,4.1787844,5.2320147,8.700333,-56.26034,-41.884823
3.9138792,4.333057,5.6442475,8.533133,-38.30364,-45.993305
3.9644217,4.605943,5.7702403,10.4949,-22.81864,-52.966343
3.9833443,5.0151176,5.778127,8.18656,-9.749957,-58.988827
4.0541334,5.384084,5.732693,3.2244956,2.0438972,-64.52995
4.1588426,5.563368,5.6011076,-2.4635994,13.475211,-69.75745
4.266777,5.616687,5.3594213,-7.442951,25.340834,-74.87607
4.2298365,5.6348925,4.868398,-11.255577,35.388634,-80.48274
4.080259,5.5379796,4.2256722,-14.101278,42.822014,-86.449066
3.896461,5.292117,3.5017676,-17.6935,47.38307,-91.51514
3.7519276,4.896712,2.7968135,-21.814701,50.225147,-95.05171
3.6523204,4.421215,2.144898,-26.288172,52.156975,-96.76534
3.5801349,3.8599029,1.5186892,-30.080805,53.866302,-97.73787
3.4990797,3.2454445,0.91128093,-32.750996,54.76775,-97.99212
3.4045172,2.6211507,0.3619807,-34.40088,54.844604,-97.373474
3.2920232,2.0630562,-0.12726393,-35.10017,54.188915,-96.027275
3.1508605,1.5909386,-0.569864,-34.84739,52.792297,-94.0158
2.9803944,1.2076495,-0.98902243,-34.188778,50.88568,-91.731
2.8131351,0.8512845,-1.388859,-33.207104,48.53168,-89.08199
2.6522381,0.4886459,-1.7710841,-31.856321,45.7468,-86.11749
2.5068557,0.11495256,-2.129059,-30.072145,42.705765,-82.707924
2.3726115,-0.23684798,-2.4689524,-27.90968,39.205376,-78.76135
2.236692,-0.56766915,-2.8029206,-25.331081,35.34316,-74.60209
2.1085722,-0.8717805,-3.1219816,-22.333803,31.110392,-70.301605
1.9757385,-1.1598444,-3.4386313,-19.116852,26.253845,-65.7707
1.8531885,-1.4178452,-3.7282944,-15.96336,20.836266,-60.751236
1.74691,-1.6086502,-3.9835222,-13.072749,14.702953,-54.97948
1.6676513,-1.705952,-4.1834064,-10.529243,8.236279,-49.00728
1.5999503,-1.7725084,-4.3442335,-8.021819,1.4873426,-43.142597
1.5312312,-1.8327769,-4.463619,-5.423351,-5.596417,-37.52238
1.4921929,-1.8047078,-4.4891095,-2.9182744,-12.719936,-31.670645
1.4916875,-1.631983,-4.3919153,-1.7800232,-20.042229,-25.96099
1.5369726,-1.419876,-4.1345754,-0.9024302,-26.9507,-21.193144
1.6442299,-1.2677412,-3.765099,0.22844763,-33.071568,-16.781208
1.8391514,-1.0389345,-3.279378,1.7018427,-38.067776,-12.511735
2.10454,-0.6378838,-2.7213342,2.7421072,-42.047745,-9.226532
2.4049911,-0.1872,-2.0990558,2.6384103,-43.855576,-7.2196336
2.659604,0.22220342,-1.454738,2.1715698,-43.845654,-6.034539
2.8561578,0.5992024,-0.8617146,1.5083572,-42.48184,-5.641974
3.0116243,0.9351814,-0.32818887,1.2140481,-40.10948,-6.220128
3.141701,1.2265228,0.15276556,1.5197796,-36.58641,-7.378199
3.2400537,1.5186471,0.5526756,1.2633677,-32.033916,-9.14095
3.3024566,1.7836728,0.8578079,0.61514527,-27.007706,-11.618922
3.3421578,2.003979,1.0972134,-0.51336145,-21.67694,-14.6158695
3.3707917,2.151813,1.2922941,-2.0087287,-15.893648,-17.840385
3.4056187,2.2532616,1.4467193,-4.0679293,-9.579181,-20.960367
3.435514,2.3452609,1.5228512,-5.981045,-3.52715,-24.29848
3.4703674,2.38217,1.5179898,-7.605467,2.1302302,-27.880983
3.5075707,2.347187,1.4479352,-9.231344,7.125997,-31.63725
3.5465689,2.218188,1.3391352,-10.518001,12.195897,-35.286827
3.554302,2.0197804,1.1578231,-11.299846,17.313824,-38.723858
3.5036347,1.7584167,0.8936198,-11.89579,21.64513,-41.51268
3.376783,1.4140489,0.55772924,-12.0926695,24.62031,-43.515415
3.2361617,1.0609525,0.22548687,-12.294463,26.099764,-44.609653
3.110575,0.71785885,-0.07110289,-12.110159,26.555153,-45.146263
3.0195477,0.40767258,-0.31520015,-11.218669,26.797554,-45.218468
2.9309506,0.16702199,-0.5387367,-9.849096,26.848988,-44.790497
2.8300989,-0.012331512,-0.75227743,-8.545255,26.51105,-43.829796
2.7479105,-0.14957616,-0.94307506,-7.5293884,25.881102,-42.421185
2.6986446,-0.25583342,-1.096876,-6.8772755,25.198141,-40.49051
2.6832447,-0.33997452,-1.2100048,-6.1356173,24.707512,-38.455276
2.6929657,-0.40817505,-1.2903737,-5.7583156,24.690252,-36.734478
2.704953,-0.49046874,-1.351317,-6.5752735,25.023703,-35.14645
2.6184194,-0.47477826,-1.3080873,-6.3649254,24.223175,-34.02209
2.5347946,-0.4596152,-1.2663107,-6.161648,23.449556,-32.93552
2.4539678,-0.4449595,-1.225932,-5.965172,22.701824,-31.88531
2.375834,-0.4307921,-1.1868986,-5.7752423,21.979002,-30.870089
2.300293,-0.4170948,-1.1491605,-5.5916147,21.280167,-29.888556
2.227249,-0.4038503,-1.1126698,-5.4140577,20.604431,-28.939468
2.1566107,-0.391042,-1.077381,-5.2423487,19.950954,-28.02164
2.0882916,-0.37865418,-1.0432507,-5.0762763,19.318928,-27.133944
2.0222077,-0.3666717,-1.0102371,-4.915638,18.707582,-26.275293
1.95828,-0.35508016,-0.9783006,-4.7602406,18.116182,-25.444654
1.8964318,-0.34386572,-0.9474031,-4.6098986,17.54402,-24.641039
1.8365904,-0.3330151,-0.917508,-4.464434,16.990423,-23.863499
1.7786858,-0.3225157,-0.8885805,-4.323678,16.454744,-23.111122
1.7226509,-0.3123553,-0.86058706,-4.1874666,15.93636,-22.38304
1.6684211,-0.30252224,-0.83349544,-4.0556436,15.434678,-21.678413
1.6159351,-0.29300535,-0.8072749,-3.928059,14.949125,-20.99644
1.5651331,-0.2837938,-0.78189564,-3.8045683,14.479153,-20.336351
1.5159582,-0.27487728,-0.75732934,-3.6850326,14.024233,-19.697405
1.4683557,-0.26624587,-0.73354846,-3.569319,13.5838585,-19.078888
1.4222727,-0.25789,-0.7105267,-3.4572992,13.157541,-18.480114
1.3776584,-0.24980043,-0.6882387,-3.3488498,12.744812,-17.900425
1.3344641,-0.24196833,-0.6666601,-3.243852,12.345219,-17.339186
1.2926427,-0.23438518,-0.6457673,-3.1421912,11.958326,-16.795784
1.2521489,-0.22704273,-0.62553775,-3.0437577,11.5837145,-16.269632
1.2129389,-0.2199331,-0.6059496,-2.948445,11.220981,-15.760164
1.1749707,-0.2130486,-0.5869818,-2.856151,10.869735,-15.2668295
1.1382039,-0.20638193,-0.56861407,-2.766777,10.529601,-14.7891035
1.1025989,-0.19992597,-0.55082685,-2.6802278,10.200218,-14.326475
1.0681183,-0.19367385,-0.53360134,-2.5964112,9.881235,-13.878456
1.0347255,-0.18761899,-0.51691926,-2.515239,9.572316,-13.444571
1.0023854,-0.18175499,-0.500763,-2.4366257,9.273135,-13.0243635
0.97106385,-0.1760757,-0.4851157,-2.3604887,8.983378,-12.617392
0.94072825,-0.17057517,-0.4699609,-2.286748,8.702741,-12.223229
0.9113468,-0.16524765,-0.45528278,-2.2153268,8.430931,-11.841466
0.8828889,-0.1600876,-0.44106603,-2.1461506,8.1676655,-11.471703
0.8553251,-0.15508966,-0.42729592,-2.0791476,7.912671,-11.113555
0.8286267,-0.15024865,-0.4139582,-2.0142484,7.6656823,-10.766653
0.80276614,-0.14555953,-0.40103897,-1.9513859,7.4264445,-10.430637
0.7777167,-0.14101751,-0.388525,-1.8904951,7.1947103,-10.105161
0.7534526,-0.13661788,-0.37640333,-1.8315132,6.9702415,-9.789887
0.7299488,-0.13235614,-0.36466154,-1.7743796,6.7528067,-9.484495
0.70718133,-0.12822787,-0.35328755,-1.7190357,6.542183,-9.188668
0.6851267,-0.12422887,-0.3422697,-1.6654248,6.3381543,-8.902104
0.66376245,-0.12035505,-0.3315967,-1.6134919,6.1405115,-8.624511
0.64306664,-0.116602436,-0.32125768,-1.563184,5.949054,-8.355602
0.62301826,-0.11296721,-0.31124207,-1.5144497,5.763584,-8.095106
0.60359675,-0.109445654,-0.30153966,-1.4672395,5.5839148,-7.8427553
0.5847824,-0.10603419,-0.29214054,-1.4215051,5.409862,-7.598294
0.5665561,-0.10272935,-0.2830352,-1.3772,5.241249,-7.361472
0.54889923,-0.09952777,-0.27421436,-1.3342793,5.077904,-7.1320505
0.531794,-0.0964262,-0.26566905,-1.2926993,4.9196625,-6.9097958
0.51522297,-0.0934215,-0.25739065,-1.252418,4.7663627,-6.6944823
0.49916935,-0.09051062,-0.24937072,-1.2133945,4.61785,-6.485892
0.48361695,-0.08769062,-0.24160117,-1.1755893,4.4739733,-6.2838135
0.46854997,-0.084958635,-0.23407415,-1.138964,4.3345876,-6.0880427
0.4539532,-0.08231192,-0.22678202,-1.1034819,4.199552,-5.8983817
0.43981192,-0.07974778,-0.21971744,-1.0691068,4.06873,-5.7146387
0.42611182,-0.077263646,-0.21287327,-1.0358043,3.9419894,-5.5366282
0.41283908,-0.074857004,-0.20624258,-1.0035405,3.8192024,-5.3641706
0.3999803,-0.07252542,-0.19981872,-0.97228307,3.7002451,-5.197092
0.38752255,-0.070266545,-0.19359517,-0.94200045,3.5849977,-5.035224
0.37545326,-0.068078116,-0.1875657,-0.9126621,3.4733438,-4.878403
0.3637603,-0.06595792,-0.18172424,-0.8842385,3.3651712,-4.726472
0.35243186,-0.063903816,-0.17606486,-0.856701,3.2603712,-4.5792775
0.34145656,-0.061913747,-0.17058192,-0.8300219,3.1588378,-4.4366713
0.33082336,-0.05998571,-0.16526988,-0.8041745,3.0604694,-4.29851
0.32052156,-0.058117762,-0.1601234,-0.7791326,2.9651668,-4.164655
0.31054083,-0.05630803,-0.15513732,-0.75487113,2.8728344,-4.0349717
0.30087113,-0.054554697,-0.1503066,-0.73136574,2.7833793,-3.9093297
0.2915027,-0.052855995,-0.14562641,-0.7085928,2.6967115,-3.7876027
0.28242624,-0.05121022,-0.14109206,-0.6865294,2.6127443,-3.6696682
0.27363253,-0.049615726,-0.13669898,-0.6651534,2.531393,-3.5554085
0.2651128,-0.048070904,-0.13244276,-0.6444434,2.4525764,-3.4447083
0.25685844,-0.04657421,-0.12831913,-0.62437856,2.376215,-3.3374567
0.24886125,-0.04512414,-0.12432396,-0.60493875,2.3022325,-3.2335463
0.24111317,-0.043719236,-0.12045324,-0.5861045,2.2305543,-3.1328726
0.23360643,-0.042358093,-0.11670308,-0.5678569,2.161109,-3.0353346
0.2263335,-0.041039348,-0.113069735,-0.55017763,2.0938265,-2.9408348
0.21928708,-0.039761677,-0.109549545,-0.53304905,2.0286398,-2.849278
0.21246013,-0.038523797,-0.106139,-0.51645386,1.9654832,-2.760573
0.20584579,-0.037324466,-0.102834664,-0.50037557,1.9042934,-2.6746304
0.19943744,-0.03616249,-0.09963323,-0.48479798,1.8450093,-2.5913644
0.19322865,-0.035036698,-0.0965315,-0.4697055,1.7875714,-2.5106912
0.18721321,-0.033945963,-0.093526356,-0.45508298,1.7319221,-2.4325304
0.18138508,-0.03288919,-0.090614796,-0.44091582,1.6780058,-2.3568034
0.17573845,-0.03186533,-0.087793894,-0.42718983,1.6257684,-2.2834346
0.17026764,-0.030873349,-0.085060835,-0.41389123,1.5751575,-2.2123504
0.16496716,-0.029912254,-0.082412876,-0.4010067,1.5261226,-2.1434793
0.15983175,-0.028981086,-0.07984736,-0.38852337,1.4786143,-2.076753
0.1548562,-0.028078912,-0.07736173,-0.37642872,1.4325854,-2.012104
0.1500356,-0.027204826,-0.07495349,-0.36471063,1.3879895,-1.949468
0.14536507,-0.026357954,-0.07262023,-0.3533574,1.3447822,-1.8887821
0.14083996,-0.025537452,-0.07035962,-0.34235764,1.3029201,-1.8299857
0.13645574,-0.024742493,-0.068169385,-0.33170035,1.2623614,-1.7730199
0.13220802,-0.023972286,-0.06604734,-0.32137486,1.2230654,-1.7178277
0.12809254,-0.023226056,-0.06399137,-0.31137085,1.1849928,-1.6643537
0.124105185,-0.02250306,-0.0619994,-0.30167827,1.1481055,-1.6125445
0.12024197,-0.02180257,-0.060069446,-0.29228747,1.1123667,-1.5623484
0.11649902,-0.02112389,-0.058199577,-0.283189,1.0777404,-1.5137148
0.1128726,-0.020466339,-0.05638792,-0.2743738,1.0441921,-1.4665954
0.10935907,-0.019829256,-0.05463266,-0.26583302,1.0116882,-1.4209428
0.10595492,-0.01921201,-0.052932046,-0.25755814,0.98019624,-1.3767115
0.10265675,-0.018613975,-0.051284373,-0.24954084,0.9496846,-1.333857
0.09946125,-0.01803456,-0.049687993,-0.24177313,0.9201228,-1.2923368
0.09636523,-0.017473182,-0.04814131,-0.23424724,0.89148134,-1.252109
0.09336559,-0.01692928,-0.046642777,-0.22695562,0.86373144,-1.2131336
0.090459324,-0.016402308,-0.04519089,-0.219891,0.8368454,-1.1753714
0.087643534,-0.015891742,-0.0437842,-0.2130463,0.8107963,-1.1387848
0.0849154,-0.01539707,-0.0424213,-0.20641467,0.7855581,-1.1033372
0.08227219,-0.0149177965,-0.04110083,-0.19998948,0.7611056,-1.0689929
0.07971125,-0.014453442,-0.03982146,-0.1937643,0.73741424,-1.0357177
0.07723004,-0.014003542,-0.03858192,-0.1877329,0.7144604,-1.0034785
0.07482607,-0.013567648,-0.037380964,-0.18188925,0.69222105,-0.9722428
