ax,ay,az,gx,gy,gz
2.4400222,1.0572823,4.1673107,-3.2736661,-42.724934,20.419277
1.886357,1.7365898,4.3863373,-1.7720014,-45.516586,8.829086
2.040715,1.5434691,5.060999,2.232671,-38.933506,-0.6122341
2.4104443,1.4491034,5.74083,6.5421004,-25.741434,-5.9161787
2.7108564,1.5757546,6.243407,15.150425,-14.82174,-10.842526
3.0572505,1.9762808,6.85499,21.03683,-3.6116621,-14.553054
3.4492867,2.5390143,7.4364624,22.180956,10.676573,-20.089722
3.6959324,2.853805,7.7466726,21.794289,24.20705,-26.569708
3.8415306,2.959057,7.8268685,20.311592,36.506256,-32.34525
3.9245012,2.9754524,7.7247057,18.746086,47.492153,-36.977787
3.982938,2.9674819,7.4862285,16.838133,57.659332,-41.10617
3.9852695,2.904376,7.03916,14.114906,66.57391,-44.800232
3.9312158,2.7379205,6.4847965,10.820636,74.26693,-47.872993
3.8264728,2.5021973,5.857126,7.543125,80.78823,-50.341167
3.70548,2.2377133,5.2031884,4.653952,85.92017,-52.21903
3.608378,1.9695355,4.5660324,2.068253,89.82076,-53.380455
3.4902828,1.6723846,3.9060533,0.08563538,92.64736,-54.336693
3.3444297,1.3595785,3.267078,-1.126588,94.43225,-54.846714
3.1843882,1.0980004,2.6670835,-1.5042628,95.16193,-55.028877
3.0102017,0.8931532,2.1002345,-1.2875742,94.73583,-55.135826
2.8409798,0.73688394,1.5643777,-1.0511099,93.220085,-55.03304
2.716642,0.5948549,1.0791969,-1.126403,90.704185,-54.54315
2.6239219,0.46399432,0.65523547,-1.741336,88.128265,-53.415874
2.5333672,0.3594963,0.27207983,-2.2781894,85.53154,-52.213566
2.4337504,0.27513093,-0.088840686,-2.5606782,82.73971,-51.24337
2.3355544,0.19043934,-0.4298978,-2.8509314,79.48743,-50.334747
2.2344885,0.07843708,-0.76089686,-3.1430256,75.83962,-49.16761
2.135331,-0.036822993,-1.0672423,-3.3350484,71.812325,-47.672886
2.04049,-0.13682498,-1.3437881,-3.4989476,67.50286,-46.0536
1.951967,-0.2271916,-1.5984995,-3.4620633,63.0234,-44.506622
1.8697598,-0.31369942,-1.8386854,-3.2150621,58.348095,-43.029907
1.7868859,-0.3971243,-2.080066,-2.8830774,53.5327,-41.442955
1.7056085,-0.46587482,-2.3250697,-2.5209672,48.48106,-39.7795
1.6352085,-0.529163,-2.5551093,-2.2364302,43.210854,-37.81998
1.5711612,-0.55878794,-2.7606595,-2.1566849,37.74027,-35.62828
1.5045738,-0.54745656,-2.951337,-2.2424328,32.081043,-33.60168
1.4491045,-0.5173327,-3.135973,-2.425401,25.904385,-31.915268
1.4117664,-0.51141554,-3.3077707,-2.9848375,19.443697,-30.252676
1.3990262,-0.54063046,-3.4346778,-3.930078,12.881276,-28.180664
1.4399056,-0.54974884,-3.4630647,-5.0004644,7.111996,-25.469692
1.4941452,-0.48723078,-3.405604,-6.123221,2.4746315,-22.936575
1.4460368,-0.3878597,-3.3260202,-7.414248,-2.7263699,-21.553331
1.384588,-0.36386174,-3.169449,-9.11699,-9.055986,-20.598074
1.3794531,-0.37398922,-2.8836722,-11.309824,-15.838455,-19.428116
1.4676746,-0.39656523,-2.4812782,-13.966716,-22.667122,-18.096537
1.672745,-0.4431452,-1.966379,-16.541937,-27.943298,-16.646856
1.9164366,-0.5373688,-1.3851863,-17.727942,-31.310148,-15.648832
2.088185,-0.59507936,-0.8205345,-17.03619,-32.940903,-15.149804
2.2142258,-0.57267666,-0.26037973,-15.242171,-33.415977,-14.964167
2.32217,-0.4346623,0.31207716,-12.954018,-32.769318,-15.079708
2.4194338,-0.20455241,0.8791652,-11.142018,-31.174173,-15.413045
2.527891,0.045132205,1.3942323,-10.788545,-28.32937,-16.096159
2.6432495,0.24072675,1.8316914,-10.9072895,-24.593601,-17.201864
2.7507796,0.36450633,2.1718793,-10.918023,-20.02984,-18.728893
2.8399003,0.42488125,2.4103029,-10.578564,-14.928122,-20.585337
2.9198987,0.44056085,2.5635183,-9.965577,-9.303163,-22.601051
2.993199,0.41929978,2.6257164,-9.336829,-3.516023,-24.49309
3.0605407,0.38704145,2.63015,-8.814796,2.332065,-26.154736
3.11531,0.34875143,2.5740843,-8.369288,8.00055,-27.742907
3.1549084,0.2940698,2.4578292,-7.915768,13.322505,-29.350183
3.1781685,0.21815643,2.289544,-7.4524484,18.268436,-30.902765
3.1632602,0.11234098,2.0564585,-6.9836087,22.792091,-32.246784
3.1148393,0.0019956527,1.7860051,-6.74214,26.637726,-33.277775
3.0458748,-0.11640375,1.4985185,-6.5739512,30.05333,-33.979923
2.971138,-0.23105992,1.2058123,-6.482224,32.980537,-34.361416
2.8926268,-0.34286186,0.9120523,-6.462213,35.21008,-34.396725
2.790117,-0.45317551,0.6149015,-6.133842,36.839718,-34.309563
2.6723874,-0.54799056,0.32810727,-5.5256386,37.773857,-34.121853
2.548842,-0.6231071,0.06577212,-4.8248215,38.035267,-33.88198
2.429877,-0.68684554,-0.16198862,-4.312883,37.764412,-33.47303
2.3203523,-0.7425382,-0.35945925,-4.1716776,37.057556,-32.638508
2.2254312,-0.78465027,-0.52573574,-4.219508,36.114098,-31.532833
2.1435232,-0.8220361,-0.66508156,-4.174687,35.083607,-30.285404
2.0681193,-0.84937364,-0.7834726,-4.1080947,33.930256,-29.001616
2.0029202,-0.87068176,-0.8790015,-4.014702,32.7529,-27.729052
1.945139,-0.88629276,-0.95232266,-3.8722143,31.554193,-26.422781
1.8913611,-0.8858093,-0.9966337,-3.670707,30.467905,-25.064571
1.8289104,-0.8646232,-1.0301547,-3.6280162,29.255032,-23.904766
1.7684859,-0.84775335,-1.0494298,-3.677241,28.05841,-22.720966
1.7143995,-0.8332581,-1.0566362,-3.8230205,26.913982,-21.602436
1.65872,-0.8323363,-1.050473,-3.7679517,25.987274,-20.371956
1.6022846,-0.82602966,-1.0309718,-3.3611326,25.213385,-19.150362
1.5521936,-0.8080344,-1.0035093,-2.7139313,24.593008,-18.05638
1.5401152,-0.7788588,-0.9646043,-2.8205087,24.650698,-17.573164
1.4917264,-0.75438786,-0.9342975,-2.7318912,23.876198,-17.021032
1.4448848,-0.7306993,-0.9049596,-2.6461072,23.126463,-16.486555
1.3995384,-0.707767,-0.8765583,-2.5630615,22.40066,-15.96914
1.3556373,-0.6855656,-0.84906214,-2.4826627,21.69799,-15.468216
1.3131335,-0.6640707,-0.82244116,-2.4048228,21.017683,-14.983234
1.2719805,-0.6432591,-0.7966663,-2.3294568,20.359001,-14.513668
1.232134,-0.62310815,-0.7717096,-2.2564836,19.721226,-14.059008
1.1935508,-0.60359603,-0.7475442,-2.1858237,19.103674,-13.618762
1.1561896,-0.58470196,-0.72414416,-2.1174016,18.505678,-13.192459
1.1200103,-0.56640553,-0.7014844,-2.0511444,17.926603,-12.779643
1.0849745,-0.54868746,-0.67954075,-1.9869812,17.36583,-12.379875
1.0510451,-0.53152883,-0.6582901,-1.924844,16.822763,-11.99273
1.018186,-0.51491153,-0.6377098,-1.8646672,16.29683,-11.617799
0.98636276,-0.49881804,-0.6177783,-1.8063874,15.787475,-11.254686
0.9555419,-0.4832315,-0.5984746,-1.7499433,15.294164,-10.903011
0.9256912,-0.46813557,-0.5797785,-1.6952758,14.8163805,-10.562406
0.8967794,-0.45351443,-0.5616705,-1.6423278,14.353625,-10.232514
0.86877644,-0.43935293,-0.5441317,-1.5910442,13.905417,-9.9129925
0.84165317,-0.42563632,-0.5271439,-1.5413717,13.47129,-9.603508
0.8153816,-0.41235036,-0.51068944,-1.4932588,13.050793,-9.3037405
0.78993434,-0.39948133,-0.49475136,-1.4466559,12.643491,-9.013381
0.7652853,-0.38701597,-0.4793132,-1.4015145,12.248964,-8.732128
0.74140906,-0.37494138,-0.46435902,-1.3577884,11.866807,-8.459693
0.71828103,-0.3632452,-0.44987345,-1.3154327,11.496625,-8.195795
0.69587743,-0.3519154,-0.43584165,-1.2744036,11.13804,-7.940164
0.6741754,-0.34094033,-0.42224923,-1.2346592,10.790681,-7.692537
0.6531526,-0.3303088,-0.40908223,-1.1961589,10.454196,-7.452661
0.6327876,-0.32000992,-0.39632726,-1.1588632,10.128239,-7.2202907
0.61305964,-0.3100332,-0.38397124,-1.1227342,9.812478,-6.9951887
0.5939486,-0.30036846,-0.37200162,-1.0877349,9.506592,-6.7771263
0.575435,-0.29100588,-0.3604062,-1.0538298,9.210267,-6.5658803
0.5575,-0.28193587,-0.34917316,-1.0209843,8.923204,-6.361237
0.54012537,-0.27314928,-0.3382911,-0.9891651,8.645111,-6.1629877
0.52329355,-0.2646372,-0.32774898,-0.95834,8.375705,-5.9709315
0.5069874,-0.25639093,-0.31753615,-0.92847747,8.114713,-5.784874
0.4911904,-0.24840216,-0.30764216,-0.89954746,7.8618703,-5.6046257
0.47588658,-0.2406628,-0.29805708,-0.87152064,7.616921,-5.4300046
0.46106046,-0.233165,-0.28877118,-0.84436864,7.3796177,-5.2608337
0.44669703,-0.2259012,-0.27977508,-0.818064,7.14972,-5.096943
0.43278176,-0.21886405,-0.2710597,-0.7925801,6.926996,-4.938166
0.41930065,-0.21204646,-0.26261622,-0.7678913,6.7112207,-4.7843423
0.40624008,-0.20544153,-0.2544361,-0.74397266,6.5021763,-4.6353173
0.39358684,-0.19904262,-0.24651115,-0.72080004,6.299652,-4.4909406
0.38132823,-0.19284324,-0.23883332,-0.6983501,6.1034436,-4.351066
0.36945185,-0.1868372,-0.23139493,-0.6766001,5.9133534,-4.2155533
0.35794577,-0.18101841,-0.22418845,-0.65552837,5.7291903,-4.0842657
0.34679842,-0.17538103,-0.21720664,-0.6351135,5.5507684,-3.957071
0.33599856,-0.16991937,-0.21044248,-0.61533505,5.377908,-3.8338413
0.32553533,-0.16462797,-0.20388915,-0.59617305,5.210437,-3.7144527
0.31539822,-0.15950148,-0.19754007,-0.57760835,5.0481844,-3.5987854
0.305577,-0.15453476,-0.19138886,-0.55962217,4.890989,-3.4867227
0.29606187,-0.1497228,-0.18542933,-0.54219645,4.738692,-3.3781521
0.2868432,-0.1450608,-0.17965552,-0.5253138,4.5911403,-3.2729645
0.27791178,-0.14054406,-0.1740616,-0.50895715,4.4481864,-3.1710546
0.26925865,-0.13616803,-0.16864197,-0.4931101,4.309686,-3.0723195
0.2608751,-0.13192834,-0.16339117,-0.47775677,4.1755013,-2.9766607
0.25275272,-0.12782073,-0.15830398,-0.4628817,4.0454965,-2.883982
0.24488334,-0.123841085,-0.15337524,-0.4484701,3.9195411,-2.7941902
0.2372591,-0.119985394,-0.14860003,-0.43450734,3.7975097,-2.7071955
0.22987236,-0.11624981,-0.14397356,-0.42097953,3.679279,-2.6229105
0.22271568,-0.11263057,-0.13949119,-0.40787303,3.5647311,-2.5412507
0.2157819,-0.10912406,-0.13514842,-0.39517477,3.4537508,-2.4621344
0.20906407,-0.10572675,-0.13094091,-0.38287202,3.346227,-2.3854818
0.20255546,-0.10243525,-0.12686445,-0.3709524,3.2420516,-2.3112168
0.19624954,-0.099246256,-0.122914925,-0.35940397,3.1411207,-2.2392642
0.19014,-0.096156575,-0.119088404,-0.3482152,3.043333,-2.1695528
0.1842207,-0.0931631,-0.11538104,-0.33737484,2.9485903,-2.102012
0.17848575,-0.090262845,-0.111789115,-0.32687202,2.856798,-2.0365744
0.17292936,-0.0874529,-0.108309045,-0.3166963,2.767864,-1.9731743
0.167546,-0.08473046,-0.10493734,-0.30683738,2.681699,-1.9117486
0.16233025,-0.082092784,-0.101670615,-0.29728547,2.5982172,-1.8522354
0.15727691,-0.079537235,-0.09850561,-0.28803098,2.5173347,-1.7945755
0.15238091,-0.07706126,-0.09543915,-0.27906463,2.4389706,-1.7387106
0.14763737,-0.07466237,-0.09246817,-0.27037746,2.3630464,-1.6845853
0.14304149,-0.07233817,-0.089589685,-0.26196077,2.2894862,-1.632145
0.13858871,-0.07008634,-0.08680083,-0.2538061,2.2182162,-1.5813376
0.13427457,-0.067904614,-0.08409879,-0.24590537,2.1491652,-1.532112
0.13009475,-0.06579081,-0.08148089,-0.23825058,2.0822637,-1.484419
0.12604505,-0.063742824,-0.07894448,-0.23083413,2.0174453,-1.4382107
0.12212143,-0.061758593,-0.07648704,-0.22364856,1.9546449,-1.3934411
0.118319966,-0.059836134,-0.07410611,-0.2166867,1.8937997,-1.3500652
0.114636846,-0.057973526,-0.0717993,-0.20994158,1.8348485,-1.3080398
0.11106839,-0.056168906,-0.069564305,-0.20340644,1.7777327,-1.2673227
0.10761102,-0.054420467,-0.06739889,-0.19707476,1.7223951,-1.2278731
0.104261294,-0.05272646,-0.06530089,-0.19094017,1.66878,-1.1896517
0.101015836,-0.051085185,-0.0632682,-0.18499658,1.6168342,-1.1526201
0.097871415,-0.049495004,-0.061298784,-0.179238,1.5665053,-1.1167414
0.09482489,-0.04795433,-0.059390683,-0.1736587,1.5177432,-1.0819795
0.09187319,-0.046461616,-0.057541978,-0.16825308,1.4704992,-1.0482999
0.08901338,-0.04501537,-0.055750825,-0.16301574,1.4247258,-1.0156686
0.0862426,-0.04361414,-0.054015428,-0.15794143,1.3803774,-0.9840532
0.08355807,-0.042256538,-0.052334055,-0.15302508,1.3374095,-0.9534219
0.08095711,-0.040941194,-0.050705023,-0.14826179,1.2957791,-0.9237442
0.07843711,-0.039666794,-0.0491267,-0.14364676,1.2554448,-0.89499027
0.075995564,-0.038432065,-0.04759751,-0.13917539,1.2163658,-0.8671315
0.07363001,-0.037235774,-0.04611592,-0.13484322,1.1785035,-0.8401399
