ax,ay,az,gx,gy,gz
0.50909555,1.2572842,-1.9100174,63.14421,65.474236,-16.646515
1.208027,2.8880951,-0.94992816,51.52451,60.33495,-17.206594
1.694383,4.592765,-0.63841945,10.908207,61.94207,-31.804453
2.20863,5.328714,-0.66598004,-2.0571008,64.91769,-57.36862
2.6291661,5.680373,-1.1209759,-19.81163,67.45138,-80.44326
2.9432385,5.506878,-1.7970061,-38.714115,66.66226,-99.93776
3.1924062,4.9285645,-2.6175442,-52.153297,62.24396,-117.453
3.1459846,4.0110083,-3.5009055,-58.393063,54.199604,-130.313
2.9456446,2.5815203,-4.4038033,-57.708836,40.468925,-136.74911
2.9366143,0.891231,-5.0261507,-50.188564,27.367971,-137.19989
2.924711,-0.97541547,-5.5062246,-39.085396,11.72114,-121.55026
3.200426,-2.2675047,-5.534377,-29.760315,-5.1741967,-95.85006
3.586393,-3.155628,-5.4006295,-19.863827,-19.394258,-71.14838
4.005421,-3.6759868,-5.127016,-9.607065,-30.67651,-47.9827
4.310511,-3.8576033,-4.777428,1.9153796,-39.99839,-25.523125
4.468425,-3.4013805,-4.182536,12.852625,-47.74283,-5.874228
4.5268927,-2.4457884,-3.3756514,22.090357,-52.639446,9.486594
4.4519796,-1.1104082,-2.411785,27.777874,-55.103767,19.371002
4.252294,0.33040407,-1.4289874,28.699183,-54.569077,24.343367
3.9395397,1.6283052,-0.60156596,26.423985,-51.289955,23.12832
3.5781972,2.6588163,-0.028506786,23.24288,-47.03507,18.13354
3.2735667,3.4254625,0.35610923,19.673845,-42.158493,10.512501
3.0461144,3.912991,0.55027044,15.686729,-37.023373,1.4173363
2.881563,4.1474304,0.5715078,12.039537,-32.122025,-8.659115
2.750475,4.194177,0.4575749,9.881356,-28.572653,-19.75044
2.7087793,4.052534,0.2827777,8.264837,-26.020288,-29.925793
2.738057,3.8319218,0.10371481,6.172299,-23.914267,-38.52693
2.7948608,3.5523376,-0.097317114,4.1442847,-22.499418,-46.06498
2.8527446,3.2003188,-0.3175322,2.2994149,-21.719772,-52.642
2.8793862,2.7074022,-0.57816297,2.3620708,-21.897882,-57.656113
2.8740692,2.058621,-0.8820175,3.7884803,-23.346872,-59.94718
2.8833027,1.4119647,-1.140718,5.486986,-25.650246,-59.35568
2.9103847,0.8422318,-1.3363503,6.7549615,-28.888588,-56.425735
2.9529655,0.34596524,-1.4652673,7.5373745,-32.418438,-51.823723
3.002365,-0.10230775,-1.5423447,9.046106,-35.55638,-45.75791
3.0582058,-0.46355096,-1.5807939,11.241177,-38.19491,-39.0316
3.1108468,-0.75207686,-1.6087902,13.800874,-40.603172,-31.814127
3.1553621,-0.97181845,-1.6241204,16.569733,-42.892735,-24.167725
3.184468,-1.100017,-1.6072651,19.214323,-45.198387,-16.246595
3.19926,-1.10477,-1.5280174,21.026985,-47.48256,-8.323325
3.2047176,-0.97400343,-1.3594071,22.188246,-49.204117,-1.0942034
3.1973743,-0.8124043,-1.1685227,23.52698,-49.952526,5.0074687
3.168415,-0.642129,-0.97857857,25.390356,-49.75629,10.116523
3.1086524,-0.43247703,-0.7916602,27.306303,-48.860306,14.583999
3.0052018,-0.16393319,-0.61488235,28.232628,-47.752583,18.117552
2.894968,0.11031073,-0.4514924,28.292933,-46.629795,20.900618
2.7912488,0.33641407,-0.31482673,27.929413,-45.344738,23.054842
2.693217,0.51474863,-0.20933251,27.729303,-43.992554,24.598215
2.6040187,0.66313595,-0.124357976,27.826464,-42.57588,25.640747
2.5180023,0.7907141,-0.06077486,28.24466,-41.082695,26.13098
2.431964,0.91089404,-0.017881343,28.597155,-39.60855,26.258335
2.34843,1.0264508,0.016616184,28.764019,-38.178837,26.018223
2.268205,1.1257887,0.042920448,28.781824,-36.821842,25.42838
2.1897314,1.2026325,0.060585584,28.543137,-35.59705,24.623177
2.1132154,1.255682,0.072989054,28.04645,-34.268166,23.56484
2.0426843,1.288628,0.086849995,27.410927,-32.7465,22.30779
1.9741001,1.3039967,0.09925194,26.465403,-31.123756,20.940016
1.9012427,1.3031447,0.10838731,25.668058,-29.54965,19.421616
1.8255396,1.2971615,0.1179795,25.012936,-28.211388,17.816053
1.746761,1.2864071,0.13641638,24.265781,-27.533014,16.424606
1.6900221,1.2446218,0.13198526,23.477573,-26.63868,15.891097
1.6352696,1.204299,0.12770925,22.716959,-25.775652,15.376265
1.5824206,1.1653782,0.12358192,21.982788,-24.942629,14.879332
1.5313972,1.1278019,0.11959717,21.273977,-24.138382,14.399564
1.4821256,1.0915157,0.11574921,20.589502,-23.361746,13.936268
1.434536,1.0564681,0.11203261,19.928392,-22.611622,13.488788
1.388562,1.0226104,0.10844219,19.289726,-21.886965,13.056499
1.3441408,0.98989636,0.10497304,18.672632,-21.186783,12.638811
1.3012127,0.9582819,0.101620495,18.076283,-20.510138,12.235164
1.259721,0.92772526,0.09838013,17.499886,-19.856134,11.845022
1.2196119,0.8981867,0.09524774,16.942694,-19.223919,11.467879
1.1808336,0.8696283,0.09221928,16.40399,-18.612682,11.103251
1.1433371,0.84201396,0.089290924,15.883095,-18.021652,10.750676
1.1070757,0.8153091,0.086459026,15.379355,-17.450089,10.409715
1.0720047,0.7894809,0.08372009,14.892153,-16.897285,10.079945
1.0380812,0.7644979,0.08107078,14.420893,-16.362574,9.760966
1.0052644,0.7403299,0.0785079,13.965007,-15.845305,9.452394
0.97351533,0.71694815,0.07602839,13.523952,-15.344865,9.15386
0.9427963,0.6943251,0.073629335,13.097207,-14.8606615,8.865012
0.9130715,0.67243415,0.07130793,12.684274,-14.39213,8.585513
0.8843065,0.65125006,0.06906147,12.284674,-13.938726,8.315039
0.8564682,0.6307485,0.06688739,11.897947,-13.49993,8.053279
0.82952493,0.61090606,0.06478321,11.523655,-13.075242,7.799934
0.80344623,0.5917003,0.06274655,11.161373,-12.664181,7.5547185
0.7782028,0.5731097,0.060775116,10.810695,-12.266285,7.317357
0.7537665,0.5551135,0.058866717,10.471228,-11.881112,7.087585
0.73011017,0.5376918,0.057019237,10.142598,-11.508234,6.8651476
0.70720786,0.52082527,0.055230644,9.824442,-11.147241,6.6498
0.6850345,0.5044956,0.053498976,9.516413,-10.797737,6.441306
0.6635659,0.488685,0.051822346,9.218173,-10.459341,6.239439
0.64277875,0.47337627,0.05019894,8.929401,-10.131688,6.0439796
0.6226507,0.45855293,0.048627004,8.649785,-9.814424,5.8547177
0.60316014,0.44419903,0.04710485,8.3790245,-9.507206,5.67145
0.58428615,0.43029922,0.045630857,8.116829,-9.209708,5.49398
0.56600875,0.41683877,0.04420345,7.8629217,-8.921614,5.322119
0.54830843,0.40380332,0.042821113,7.617031,-8.642615,5.1556854
0.53116655,0.39117914,0.041482385,7.378898,-8.372419,4.994502
0.514565,0.3789529,0.04018586,7.148272,-8.110742,4.8384
0.49848643,0.36711177,0.038930174,6.9249105,-7.857305,4.6872144
0.4829139,0.35564336,0.037714012,6.708579,-7.6118464,4.5407877
0.46783122,0.34453568,0.036536105,6.4990525,-7.3741083,4.398967
0.45322266,0.33377716,0.035395224,6.296112,-7.143843,4.2616043
0.43907303,0.3233566,0.034290183,6.099547,-6.920812,4.1285567
0.42536765,0.31326324,0.033219837,5.909154,-6.7047834,3.9996865
0.4120924,0.30348665,0.03218308,5.7247353,-6.4955344,3.8748605
0.3992335,0.29401666,0.031178843,5.546101,-6.292848,3.7539496
0.38677776,0.2848436,0.03020609,5.3730674,-6.0965166,3.6368296
0.37471232,0.27595797,0.029263819,5.2054563,-5.9063377,3.5233798
0.36302483,0.2673507,0.028351063,5.043095,-5.7221155,3.4134836
0.35170332,0.25901294,0.02746689,4.885818,-5.543662,3.3070285
0.34073615,0.25093612,0.026610391,4.733464,-5.3707943,3.2039056
0.33011216,0.24311207,0.02578069,4.5858765,-5.2033353,3.1040094
0.3198205,0.23553273,0.024976945,4.442906,-5.041115,3.007238
0.30985066,0.22819042,0.024198333,4.304406,-4.883967,2.9134924
0.3001925,0.22107764,0.023444062,4.170236,-4.731732,2.8226779
0.2908362,0.21418716,0.022713365,4.0402594,-4.5842547,2.7347014
0.28177223,0.20751196,0.022005498,3.914344,-4.4413853,2.649474
0.2729914,0.2010453,0.021319743,3.792362,-4.3029795,2.5669088
0.26448482,0.1947806,0.020655407,3.6741896,-4.1688957,2.4869223
0.25624385,0.18871152,0.020011814,3.5597072,-4.038999,2.4094336
0.24826017,0.18283193,0.019388314,3.448799,-3.9131577,2.3343637
0.24052568,0.17713584,0.018784277,3.3413525,-3.791244,2.2616372
0.23303258,0.17161752,0.01819909,3.2372591,-3.6731353,2.1911802
0.22577327,0.16627139,0.017632162,3.1364138,-3.558712,2.122922
0.21874046,0.16109204,0.017082922,3.038715,-3.4478583,2.056793
0.21192703,0.15607427,0.016550815,2.9440634,-3.3404627,1.992727
0.2053261,0.151213,0.016035303,2.8523643,-3.2364168,1.9306593
0.19893104,0.14650333,0.015535869,2.7635248,-3.1356156,1.8705271
0.19273537,0.14194053,0.015052008,2.6774554,-3.0379577,1.81227
0.1867329,0.13751999,0.014583235,2.5940697,-2.9433448,1.7558295
0.18091755,0.13323726,0.014129075,2.5132837,-2.8516812,1.7011484
0.17528349,0.12908803,0.013689073,2.435016,-2.7628753,1.6481718
0.16982503,0.12506814,0.013262785,2.3591878,-2.6768374,1.5968466
0.16453671,0.12117354,0.0128497835,2.2857232,-2.593481,1.547121
0.15941319,0.11740031,0.012449654,2.2145479,-2.5127227,1.4989451
0.15444934,0.11374466,0.012061993,2.1455905,-2.4344807,1.4522705
0.14964016,0.11020293,0.011686412,2.078782,-2.358677,1.4070504
0.14498083,0.10677155,0.011322533,2.0140553,-2.285235,1.3632392
0.14046666,0.10344708,0.010969991,1.9513451,-2.2140813,1.3207929
0.13609312,0.10022618,0.010628433,1.8905885,-2.1451442,1.2796692
0.13185585,0.09710562,0.0102975145,1.8317248,-2.0783548,1.2398264
0.12775056,0.09408227,0.009976906,1.7746947,-2.013646,1.2012249
0.12377316,0.0911531,0.009666283,1.719441,-1.9509529,1.1638258
0.11991964,0.08831517,0.009365336,1.6659086,-1.8902124,1.1275915
0.11618615,0.08556563,0.009073762,1.6140434,-1.8313639,1.0924859
0.112568945,0.08290172,0.00879127,1.5637935,-1.7743484,1.0584737
0.10906439,0.08032079,0.008517575,1.5151087,-1.7191085,1.0255208
0.105668984,0.07782023,0.008252406,1.4679402,-1.6655889,0.9935941
0.102379315,0.07539754,0.007995493,1.4222405,-1.6137362,0.96266174
0.0991921,0.073050305,0.0077465815,1.377964,-1.5634981,0.93269265
0.09610412,0.070776165,0.007505421,1.3350663,-1.5148245,0.9036568
0.09311231,0.068572834,0.0072717704,1.2935045,-1.4676666,0.8755251
0.090213664,0.066438116,0.007045395,1.2532369,-1.4219772,0.8482694
0.08740528,0.064369865,0.0068260687,1.214223,-1.3777103,0.8218624
0.084684335,0.06236602,0.006613572,1.176424,-1.3348219,0.7962777
0.08204811,0.060424566,0.0064076916,1.139802,-1.293269,0.77148956
0.07949397,0.058543563,0.0062082214,1.1043202,-1.2530098,0.74747324
0.07701935,0.056721125,0.0060149617,1.0699431,-1.214004,0.7242047
0.07462178,0.05495543,0.00582772,1.0366364,-1.1762128,0.70166063
0.07229886,0.053244706,0.005646307,1.0043666,-1.1395983,0.67981845
0.070048265,0.051587246,0.0054705427,0.9731016,-1.1041235,0.6586563
0.06786773,0.04998139,0.0053002504,0.94281,-1.0697533,0.638153
0.06575509,0.04842553,0.0051352596,0.9134614,-1.0364531,0.61828804
0.06370822,0.046918105,0.0049754055,0.8850265,-1.0041897,0.5990416
0.061725076,0.04545761,0.0048205284,0.85747695,-0.9729307,0.58039427
0.05980367,0.044042584,0.004670473,0.830785,-0.9426449,0.56232744
0.057942078,0.04267161,0.0045250887,0.804924,-0.9133019,0.54482317
0.05613844,0.04134332,0.0043842304,0.7798681,-0.8848724,0.52786374
0.054390956,0.040056378,0.0042477576,0.7555923,-0.85732794,0.5114323
0.05269787,0.0388095,0.004115533,0.7320721,-0.830641,0.49551243
0.05105749,0.037601437,0.0039874245,0.7092842,-0.8047848,0.4800881
0.04946818,0.03643098,0.0038633044,0.6872057,-0.77973354,0.46514398
0.04792834,0.035296965,0.003743048,0.66581446,-0.7554621,0.45066503
0.046436436,0.03419825,0.0036265354,0.6450891,-0.73194623,0.43663684
0.04499098,0.033133734,0.0035136496,0.62500894,-0.7091624,0.42304534
0.043590516,0.03210236,0.0034042778,0.6055539,-0.6870879,0.4098769
0.042233646,0.031103091,0.003298311,0.5867045,-0.6657005,0.39711845
0.040919017,0.030134927,0.0031956427,0.5684418,-0.6449789,0.38475713
0.03964531,0.029196903,0.0030961703,0.55074763,-0.6249023,0.3727806
0.038411252,0.02828808,0.0029997944,0.53360426,-0.6054507,0.36117688
