ax,ay,az,gx,gy,gz
-3.5236683,7.660979,-5.733689,5.7155066,-111.41828,-6.380967
-3.1054883,7.1573634,-5.8629594,-0.3230008,-125.01461,-15.990845
-2.7808719,6.732606,-5.9521666,-6.33324,-130.90767,-19.54152
-2.6646197,6.432813,-5.9780755,-11.94001,-136.17038,-20.495407
-2.5571618,6.4486346,-5.987334,-17.436018,-142.01082,-24.122635
-2.3904867,6.85911,-6.033119,-27.307653,-148.9227,-34.584637
-2.1456401,7.09645,-6.13501,-34.49973,-157.05962,-49.64113
-1.7287266,6.83903,-6.107865,-36.43074,-165.21085,-68.49159
-1.0377917,6.094884,-5.7982607,-32.50657,-171.10645,-86.9078
-0.14430627,5.2293015,-5.2509856,-26.378487,-172.64586,-100.33863
0.69706535,4.399683,-4.698704,-21.851418,-171.60614,-105.91243
1.5242163,3.4925175,-4.0580945,-21.073074,-170.45142,-104.45968
2.3967302,2.6581843,-3.298911,-24.34033,-167.04262,-97.71979
3.1321657,1.8734323,-2.5203357,-28.900465,-160.46356,-88.472916
3.5910351,1.1922551,-1.8506179,-32.091324,-151.83363,-79.00806
3.7820287,0.6742413,-1.3378648,-31.961517,-142.52953,-71.468636
3.7593918,0.39192364,-0.98416895,-29.96038,-133.97566,-66.1678
3.6692216,0.25695124,-0.734345,-26.906176,-126.45543,-62.75735
3.5580974,0.2050866,-0.54910064,-23.418442,-119.61401,-60.069397
3.4375377,0.22862358,-0.4186109,-20.31419,-113.203384,-57.099705
3.3052673,0.334609,-0.3362025,-18.484669,-107.120415,-53.483738
3.1610389,0.52954483,-0.30085188,-17.462053,-101.485435,-50.125454
3.023387,0.7938152,-0.29533324,-17.158216,-96.114204,-47.877117
2.8900158,1.069497,-0.31101122,-17.175703,-91.04583,-46.825745
2.7596643,1.3534875,-0.34252042,-17.735596,-86.3298,-46.55046
2.6451352,1.6425958,-0.3837085,-19.221235,-82.044266,-46.6612
2.5768678,1.9538865,-0.42095906,-21.727839,-77.92958,-46.75602
2.536128,2.2663047,-0.4620146,-25.589846,-73.73512,-46.906284
2.5031786,2.5165358,-0.5132169,-30.27559,-69.40332,-47.37541
2.4607558,2.670221,-0.58406866,-35.1028,-65.315025,-48.284218
2.4228714,2.724134,-0.6664815,-39.71817,-61.973007,-49.84108
2.4541664,2.644622,-0.71549225,-44.13439,-58.84292,-51.42901
2.5327203,2.485355,-0.7322412,-48.677525,-55.23978,-52.48031
2.5926259,2.2623916,-0.7467719,-53.440655,-50.86489,-52.740444
2.585223,1.9730932,-0.78114986,-57.907333,-46.29644,-52.32303
2.5237665,1.6309509,-0.82749814,-61.31936,-42.266495,-51.22114
2.427404,1.2436897,-0.86462086,-63.383957,-38.878803,-49.879425
2.3259625,0.8592232,-0.88668424,-63.98276,-35.934086,-48.47155
2.229737,0.5024654,-0.89671034,-63.181396,-33.311565,-47.185585
2.1397948,0.19240747,-0.8969769,-61.39112,-30.9419,-46.062775
2.0572896,-0.0685414,-0.889809,-59.03583,-28.824997,-44.85909
1.9843533,-0.30692095,-0.875575,-56.31606,-26.987503,-43.488598
1.93285,-0.5430772,-0.8527607,-53.236958,-25.411434,-41.933468
1.9183592,-0.800866,-0.8191564,-49.423946,-24.149195,-40.280083
1.9687829,-1.0923935,-0.76367444,-44.523815,-23.154427,-38.639515
1.900368,-1.0544329,-0.73713684,-42.97662,-22.349813,-37.296795
1.8347749,-1.0180382,-0.7116938,-41.49324,-21.578388,-36.00946
1.771846,-0.98312163,-0.6872843,-40.07011,-20.838295,-34.774414
1.711436,-0.9496027,-0.66385174,-38.703945,-20.127827,-33.588802
1.6534107,-0.91740686,-0.6413442,-37.391705,-19.445402,-32.44999
1.5976456,-0.88646525,-0.61971337,-36.130585,-18.789562,-31.35554
1.5440258,-0.8567139,-0.5989147,-34.91798,-18.15895,-30.303192
1.4924443,-0.82809347,-0.57890666,-33.75147,-17.55231,-29.290848
1.4428016,-0.80054885,-0.55965066,-32.628803,-16.968473,-28.316555
1.3950049,-0.7740286,-0.54111075,-31.547888,-16.40635,-27.378494
1.3489678,-0.74848455,-0.5232533,-30.506763,-15.864917,-26.474966
1.3046093,-0.7238719,-0.506047,-29.5036,-15.3432255,-25.604382
1.2618535,-0.7001486,-0.48946244,-28.536682,-14.840384,-24.765253
1.2206293,-0.67727506,-0.47347194,-27.604403,-14.355556,-23.956184
1.18087,-0.6552143,-0.45804963,-26.70525,-13.887955,-23.175863
1.1425127,-0.63393146,-0.4431711,-25.837803,-13.436843,-22.42306
1.1054981,-0.6133936,-0.42881346,-25.000721,-13.001522,-21.696608
1.0697703,-0.5935698,-0.414955,-24.192743,-12.581336,-20.99541
1.0352768,-0.5744308,-0.40157524,-23.412676,-12.175665,-20.318438
1.0019675,-0.5559489,-0.38865483,-22.65939,-11.783922,-19.664707
0.9697953,-0.5380979,-0.3761755,-21.931816,-11.405551,-19.03329
0.9387153,-0.520853,-0.3641198,-21.228945,-11.040026,-18.423311
0.908685,-0.50419044,-0.35247132,-20.549814,-10.686847,-17.833937
0.87966424,-0.48808807,-0.3412144,-19.893513,-10.345539,-17.26437
0.8516145,-0.47252446,-0.33033413,-19.25917,-10.015652,-16.713863
0.82449925,-0.4574794,-0.31981638,-18.645964,-9.696756,-16.181698
0.7982838,-0.44293356,-0.30964762,-18.053102,-9.388442,-15.6671915
0.7729349,-0.42886853,-0.299815,-17.479841,-9.09032,-15.169692
0.748421,-0.4152668,-0.29030624,-16.92546,-8.802016,-14.688579
0.7247118,-0.40211156,-0.28110963,-16.389278,-8.523177,-14.223259
0.70177835,-0.3893868,-0.27221394,-15.870643,-8.253462,-13.773166
0.6795931,-0.37707716,-0.2636085,-15.368925,-7.992546,-13.337756
0.6581296,-0.36516798,-0.25528297,-14.883531,-7.7401185,-12.916512
0.6373625,-0.35364518,-0.24722758,-14.413885,-7.495881,-12.508935
0.6172675,-0.34249535,-0.2394329,-13.959439,-7.2595487,-12.114549
0.59782135,-0.3317055,-0.23188992,-13.519667,-7.0308466,-11.732897
0.5790017,-0.3212633,-0.22458994,-13.094063,-6.809513,-11.363542
0.5607872,-0.31115684,-0.21752466,-12.682142,-6.595296,-11.006061
0.5431571,-0.30137464,-0.21068609,-12.28344,-6.387952,-10.66005
0.52609164,-0.29190576,-0.20406656,-11.897507,-6.187249,-10.325123
0.50957185,-0.28273964,-0.19765866,-11.523913,-5.9929633,-10.000904
0.49357942,-0.27386612,-0.19145532,-11.162246,-5.8048797,-9.687035
0.47809666,-0.2652754,-0.1854497,-10.812105,-5.622791,-9.383169
0.46310672,-0.25695813,-0.17963523,-10.473109,-5.446497,-9.088975
0.4485932,-0.24890518,-0.17400555,-10.144887,-5.275807,-8.8041315
0.4345404,-0.24110788,-0.16855459,-9.827085,-5.1105347,-8.52833
0.42093313,-0.2335578,-0.16327645,-9.519358,-4.950503,-8.261272
0.40775684,-0.22624683,-0.15816547,-9.221377,-4.7955394,-8.002673
0.3949974,-0.21916716,-0.15321618,-8.932824,-4.6454782,-7.752255
0.38264123,-0.21231125,-0.14842333,-8.653391,-4.50016,-7.509752
0.3706752,-0.20567183,-0.14378181,-8.38278,-4.3594303,-7.2749057
0.35908672,-0.19924186,-0.13928674,-8.1207075,-4.2231407,-7.0474687
0.34786353,-0.19301459,-0.13493335,-7.8668966,-4.091147,-6.8272014
0.33699384,-0.18698348,-0.1307171,-7.62108,-3.9633112,-6.613872
0.3264663,-0.1811422,-0.12663355,-7.3830004,-3.839499,-6.4072576
0.31626987,-0.17548464,-0.122678444,-7.15241,-3.7195811,-6.207142
0.306394,-0.17000493,-0.11884767,-6.9290676,-3.603433,-6.0133166
0.29682836,-0.16469736,-0.11513724,-6.712742,-3.4909337,-5.8255806
0.28756306,-0.15955645,-0.11154331,-6.503208,-3.3819666,-5.643739
0.27858853,-0.15457685,-0.10806216,-6.3002496,-3.276419,-5.467604
0.26989546,-0.14975347,-0.1046902,-6.1036572,-3.174182,-5.2969933
0.26147497,-0.14508128,-0.10142395,-5.9132285,-3.07515,-5.1317315
0.2533183,-0.1405555,-0.09826006,-5.728767,-2.9792216,-4.9716487
0.24541718,-0.1361715,-0.09519527,-5.5500836,-2.886298,-4.8165803
0.23776345,-0.13192476,-0.09222645,-5.376995,-2.796284,-4.666367
0.23034927,-0.12781097,-0.08935056,-5.2093244,-2.7090876,-4.520856
0.2231671,-0.123825885,-0.08656465,-5.0469003,-2.6246197,-4.379898
0.21620958,-0.11996545,-0.08386589,-4.889557,-2.5427938,-4.243349
0.20946963,-0.11622574,-0.08125152,-4.7371335,-2.4635267,-4.11107
0.20294037,-0.11260294,-0.07871888,-4.589475,-2.3867376,-3.9829266
0.19661519,-0.10909336,-0.07626539,-4.4464316,-2.3123484,-3.8587878
0.19048764,-0.105693445,-0.07388856,-4.3078575,-2.2402837,-3.738528
0.1845515,-0.10239974,-0.07158599,-4.1736126,-2.17047,-3.6220248
0.17880076,-0.0992089,-0.069355324,-4.0435605,-2.1028368,-3.5091603
0.17322959,-0.0961177,-0.06719431,-3.917569,-2.0373156,-3.3998199
0.16783234,-0.093123,-0.06510077,-3.7955108,-1.9738398,-3.293893
0.16260357,-0.09022177,-0.06307257,-3.6772625,-1.9123452,-3.1912727
0.15753798,-0.08741109,-0.061107665,-3.5627046,-1.8527699,-3.0918548
0.15263045,-0.084688105,-0.059204075,-3.4517212,-1.7950534,-2.9955392
0.14787602,-0.08205008,-0.05735987,-3.3442004,-1.7391376,-2.9022284
0.14326991,-0.07949434,-0.0555732,-3.2400336,-1.6849661,-2.8118284
0.13880746,-0.07701832,-0.05384225,-3.1391158,-1.6324842,-2.724248
0.13448417,-0.07461952,-0.052165285,-3.0413451,-1.581639,-2.6393986
0.1302957,-0.07229551,-0.05054061,-2.9466233,-1.5323793,-2.5571952
0.12623781,-0.070043966,-0.048966594,-2.8548548,-1.4846554,-2.477555
0.122306444,-0.067862615,-0.047441646,-2.765947,-1.4384195,-2.4003975
0.118497625,-0.065749265,-0.045964237,-2.679811,-1.3936247,-2.3256452
0.114807524,-0.063701786,-0.04453288,-2.59636,-1.3502263,-2.253223
0.11123243,-0.06171812,-0.04314613,-2.5155096,-1.3081805,-2.183058
0.10776876,-0.059796277,-0.0418026,-2.437179,-1.2674448,-2.1150796
0.104413025,-0.057934325,-0.04050094,-2.3612895,-1.2279788,-2.0492196
0.10116186,-0.05613039,-0.03923984,-2.2877645,-1.1897426,-1.9854119
0.098011985,-0.054382663,-0.038018033,-2.2165306,-1.1526977,-1.9235923
0.09496026,-0.05268939,-0.036834292,-2.147516,-1.1168069,-1.8636987
0.092003606,-0.051048867,-0.035687428,-2.0806518,-1.0820343,-1.8056712
0.08913906,-0.04945945,-0.034576297,-2.0158703,-1.048345,-1.7494513
0.08636375,-0.04791955,-0.033499774,-1.9531069,-1.0157052,-1.6949828
0.083674885,-0.046427615,-0.03245679,-1.8922986,-0.98408204,-1.642211
0.081069775,-0.04498215,-0.03144629,-1.8333843,-0.95344394,-1.5910828
0.07854581,-0.04358171,-0.030467262,-1.7763051,-0.9237601,-1.5415472
0.076100454,-0.042224884,-0.02951873,-1.7210035,-0.8950008,-1.4935544
0.07373125,-0.04091032,-0.028599737,-1.6674244,-0.8671372,-1.4470563
0.07143584,-0.039636694,-0.027709365,-1.6155139,-0.84014136,-1.4020064
0.069211915,-0.038402732,-0.026846724,-1.5652201,-0.81398624,-1.3583593
0.067057244,-0.037207197,-0.026010944,-1.5164924,-0.7886456,-1.3160716
0.064969674,-0.036048893,-0.025201192,-1.4692822,-0.7640941,-1.2751007
0.0629471,-0.034926657,-0.024416655,-1.423542,-0.74030715,-1.2354057
0.060987517,-0.033839367,-0.023656549,-1.3792262,-0.7172609,-1.1969466
0.05908895,-0.032785933,-0.02292011,-1.3362904,-0.6949323,-1.1596851
0.0572495,-0.0317653,-0.022206603,-1.2946913,-0.6732989,-1.1235839
0.055467322,-0.030776447,-0.021515312,-1.2543876,-0.6523391,-1.0886067
0.053740636,-0.029818382,-0.020845544,-1.2153388,-0.6320319,-1.0547186
0.052067712,-0.028890148,-0.02019663,-1.1775057,-0.612357,-1.0218856
0.050446875,-0.027990812,-0.01956792,-1.1408507,-0.5932947,-0.990075
0.0488765,-0.02711948,-0.018958787,-1.1053368,-0.5748259,-0.9592547
0.04735502,-0.026275275,-0.018368615,-1.0709287,-0.55693203,-0.92939395
0.045880906,-0.025457352,-0.01779682,-1.0375918,-0.5395953,-0.90046287
0.044452686,-0.024664896,-0.017242827,-1.0052928,-0.52279836,-0.87243253
0.043068934,-0.02389711,-0.01670608,-0.9739993,-0.5065243,-0.8452748
0.041728258,-0.023153227,-0.016186042,-0.9436801,-0.49075696,-0.81896263
0.04042932,-0.022432502,-0.015682196,-0.9143048,-0.47548044,-0.79346955
0.039170824,-0.021734215,-0.015194035,-0.885844,-0.4606795,-0.76877016
0.037951503,-0.021057667,-0.014721071,-0.8582692,-0.44633937,-0.74483967
0.036770143,-0.02040218,-0.014262831,-0.83155286,-0.43244565,-0.7216542
0.03562556,-0.0197671,-0.013818856,-0.80566823,-0.41898444,-0.6991905
0.034516606,-0.01915179,-0.013388704,-0.7805894,-0.4059423,-0.6774261
0.033442177,-0.018555634,-0.012971941,-0.7562913,-0.39330617,-0.6563392
0.032401193,-0.017978037,-0.0125681525,-0.7327496,-0.38106337,-0.6359088
0.03139262,-0.017418422,-0.012176934,-0.7099407,-0.36920172,-0.6161144
0.030415436,-0.016876226,-0.011797894,-0.6878419,-0.35770932,-0.59693617
0.029468676,-0.016350908,-0.011430653,-0.66643095,-0.34657466,-0.57835495
0.028551387,-0.015841944,-0.011074845,-0.64568657,-0.33578664,-0.56035215
0.027662652,-0.015348823,-0.010730112,-0.62558794,-0.32533443,-0.54290974
0.026801584,-0.0148710525,-0.01039611,-0.6061149,-0.31520757,-0.52601033
0.025967319,-0.014408154,-0.010072506,-0.58724815,-0.30539596,-0.509637
