ax,ay,az,gx,gy,gz
-1.9227448,6.8691535,-4.6327696,-32.515747,-160.02417,-29.85209
-1.5993453,7.720527,-4.7758193,-44.126892,-178.5539,-42.761444
-1.2156358,7.9889073,-4.939723,-50.813877,-189.07848,-54.17003
-0.9297896,7.936786,-5.027187,-55.273567,-197.59741,-63.201954
-0.5026596,7.8020673,-4.9888725,-61.203346,-201.13269,-70.73458
-0.028256372,7.618693,-4.9354405,-67.41776,-199.91705,-78.25038
0.31118563,7.283899,-5.06426,-70.16558,-198.17963,-85.61105
0.45969912,6.788286,-5.3640656,-68.40456,-200.3351,-94.46495
0.69526386,6.019715,-5.6427608,-63.740307,-208.21744,-103.6619
1.5048023,4.8922405,-5.582681,-58.484367,-218.70395,-108.61496
2.9783835,3.6066048,-4.9986215,-58.608387,-220.68942,-103.95493
4.4936986,2.2817755,-4.0580335,-60.778812,-214.67503,-95.724556
5.548953,1.1233088,-3.2002504,-62.232967,-203.9632,-87.7033
6.1213884,0.23104298,-2.5012267,-60.57596,-191.0796,-82.058464
6.2904634,-0.3982871,-1.9766537,-56.750935,-178.44283,-78.13429
6.230424,-0.8102302,-1.572341,-52.32151,-166.48482,-73.9321
6.0070987,-1.0127866,-1.2983462,-48.207047,-155.91496,-69.37882
5.7474513,-1.0761932,-1.0961933,-44.47543,-146.7898,-64.87751
5.521195,-0.990046,-0.9096799,-40.874767,-138.427,-61.102196
5.33787,-0.74687105,-0.74496084,-37.937355,-130.47316,-58.068077
5.194244,-0.3446724,-0.5918186,-36.597347,-122.70459,-56.02357
5.0940228,0.09983838,-0.43816853,-36.278698,-115.02875,-54.820316
5.0224843,0.549419,-0.30462965,-37.068592,-107.407234,-54.42423
4.971722,0.95086896,-0.20463346,-38.804924,-100.000565,-54.35379
4.937051,1.2812772,-0.13893053,-41.32163,-92.682556,-54.546032
4.9077435,1.5306599,-0.118396915,-44.20317,-85.320885,-55.29339
4.8808737,1.67958,-0.159804,-47.423504,-78.16477,-56.634727
4.849902,1.740013,-0.23320772,-50.587257,-71.31994,-58.455845
4.8149815,1.7130975,-0.334442,-53.789135,-64.83168,-60.13345
4.7723136,1.6119299,-0.4540301,-57.106213,-58.548454,-61.18385
4.691583,1.4474741,-0.5997265,-60.340168,-52.819885,-61.30156
4.5561867,1.1894046,-0.7665222,-62.884205,-47.87181,-60.87845
4.4094634,0.89283526,-0.9252633,-64.488304,-43.515728,-60.010265
4.2624674,0.5899017,-1.0711275,-64.9968,-39.773556,-59.045322
4.1203513,0.28862226,-1.1969485,-64.508736,-36.5247,-58.082043
3.981927,-0.018487489,-1.2975502,-62.73189,-33.71554,-56.745472
3.831321,-0.017788248,-1.2484739,-60.359222,-32.440342,-54.599224
3.6881387,-0.017123476,-1.2018166,-58.103508,-31.227997,-52.55877
3.551849,-0.016490702,-1.1574051,-55.95638,-30.07401,-50.61654
3.421973,-0.015887707,-1.1150837,-53.91029,-28.974333,-48.765705
3.2980783,-0.015312483,-1.0747114,-51.958435,-27.925299,-47.00011
3.1797726,-0.014763207,-1.0361603,-50.09463,-26.923588,-45.314167
3.0667002,-0.014238229,-0.9993146,-48.31327,-25.966188,-43.7028
2.9585364,-0.01373604,-0.96406835,-46.609238,-25.050348,-42.161385
2.854985,-0.0132552665,-0.9303251,-44.97787,-24.173563,-40.685696
2.7557745,-0.012794647,-0.89799637,-43.414898,-23.333534,-39.271873
2.6606562,-0.012353028,-0.8670012,-41.91639,-22.528154,-37.916367
2.5694015,-0.011929345,-0.8372649,-40.47875,-21.755487,-36.615917
2.4817994,-0.011522622,-0.80871886,-39.098648,-21.013748,-35.36752
2.397655,-0.0111319525,-0.78129965,-37.77303,-20.301287,-34.1684
2.3167887,-0.010756502,-0.7549485,-36.499046,-19.61658,-33.015995
2.2390332,-0.010395495,-0.7296111,-35.274075,-18.958212,-31.907917
2.1642334,-0.010048211,-0.70523685,-34.09567,-18.324873,-30.841965
2.092245,-0.00971398,-0.6817788,-32.96155,-17.715338,-29.816078
2.022934,-0.009392179,-0.65919304,-31.869614,-17.12847,-28.82834
1.9561744,-0.009082224,-0.6374388,-30.817873,-16.563208,-27.876966
1.8918489,-0.0087835705,-0.61647767,-29.80448,-16.018553,-26.96028
1.8298476,-0.008495708,-0.59627396,-28.827702,-15.49358,-26.076714
1.7700673,-0.008218157,-0.57679397,-27.885914,-14.987412,-25.2248
1.7124113,-0.007950469,-0.55800617,-26.977592,-14.49923,-24.403158
1.6567882,-0.007692219,-0.5398808,-26.101297,-14.028262,-23.610487
1.6031123,-0.0074430103,-0.52239,-25.25568,-13.573781,-22.845566
1.5513027,-0.0072024656,-0.50550735,-24.439463,-13.1351,-22.107239
1.5012827,-0.00697023,-0.4892078,-23.65144,-12.711574,-21.394415
1.4529799,-0.006745968,-0.4734679,-22.89047,-12.302588,-20.706064
1.406326,-0.006529361,-0.45826527,-22.15548,-11.907563,-20.041212
1.3612561,-0.006320108,-0.44357878,-21.44544,-11.5259495,-19.398932
1.3177085,-0.0061179227,-0.42938834,-20.759384,-11.157226,-18.778343
1.2756246,-0.005922534,-0.41567492,-20.096388,-10.800896,-18.178617
1.234949,-0.005733683,-0.40242034,-19.455576,-10.456489,-17.598957
1.1956285,-0.0055511235,-0.38960737,-18.836115,-10.123556,-17.03861
1.1576127,-0.005374622,-0.37721956,-18.23721,-9.801672,-16.496859
1.1208537,-0.0052039553,-0.36524126,-17.658102,-9.490427,-15.973013
1.0853053,-0.0050389096,-0.35365748,-17.098068,-9.189435,-15.466423
1.050924,-0.0048792823,-0.34245396,-16.556417,-8.898322,-14.976461
1.0176675,-0.004724878,-0.33161703,-16.032492,-8.616736,-14.502533
0.98549616,-0.004575511,-0.32113367,-15.525659,-8.3443365,-14.044066
0.95437133,-0.004431003,-0.31099135,-15.035314,-8.080798,-13.600514
0.92425644,-0.004291184,-0.3011781,-14.560878,-7.8258104,-13.171353
0.89511615,-0.00415589,-0.29168245,-14.101798,-7.579076,-12.756083
0.8669168,-0.0040249648,-0.2824934,-13.657541,-7.3403077,-12.35422
0.83962595,-0.0038982572,-0.27360043,-13.227596,-7.1092324,-11.965305
0.8132125,-0.0037756236,-0.26499334,-12.811476,-6.8855863,-11.588894
0.78764665,-0.0036569252,-0.25666246,-12.408707,-6.669116,-11.224561
0.7628996,-0.0035420284,-0.24859838,-12.018838,-6.4595795,-10.871897
0.7389438,-0.0034308052,-0.24079214,-11.641435,-6.2567425,-10.530509
0.7157527,-0.0033231324,-0.2332351,-11.276079,-6.06038,-10.200018
0.6933008,-0.0032188916,-0.22591892,-10.922368,-5.8702765,-9.880061
0.67156345,-0.0031179683,-0.21883559,-10.579914,-5.6862235,-9.570288
0.650517,-0.0030202528,-0.2119774,-10.248345,-5.50802,-9.27036
0.63013864,-0.0029256393,-0.20533691,-9.927301,-5.3354735,-8.979953
0.6104064,-0.0028340255,-0.19890697,-9.616437,-5.168398,-8.698753
0.5912991,-0.002745313,-0.19268067,-9.315417,-5.0066137,-8.42646
0.5727963,-0.0026594072,-0.18665133,-9.023921,-4.849948,-8.162781
0.5548783,-0.0025762166,-0.18081258,-8.741638,-4.6982336,-7.907436
0.5375261,-0.0024956528,-0.17515819,-8.468268,-4.5513096,-7.6601534
0.52072126,-0.0024176307,-0.16968217,-8.203524,-4.409021,-7.4206724
0.5044462,-0.0023420681,-0.16437879,-7.9471235,-4.271218,-7.1887407
0.4886838,-0.0022688855,-0.15924245,-7.6988,-4.1377554,-6.964114
0.47341752,-0.0021980065,-0.15426779,-7.458293,-4.0084934,-6.746558
0.45863143,-0.002129357,-0.14944959,-7.2253504,-3.8832977,-6.5358453
0.44431016,-0.0020628653,-0.14478286,-6.9997306,-3.7620373,-6.331756
0.43043876,-0.0019984625,-0.14026272,-6.7811985,-3.6445863,-6.134078
0.41700292,-0.0019360819,-0.13588452,-6.569528,-3.530823,-5.942607
0.4039887,-0.0018756589,-0.13164371,-6.3645,-3.4206297,-5.7571445
0.39138266,-0.001817131,-0.12753591,-6.1659026,-3.3138926,-5.5774994
0.37917185,-0.001760438,-0.1235569,-5.9735317,-3.210502,-5.403486
0.3673437,-0.0017055216,-0.11970258,-5.787189,-3.1103513,-5.2349257
0.35588604,-0.0016523255,-0.11596899,-5.6066837,-3.0133376,-5.0716453
0.34478715,-0.001600795,-0.112352304,-5.43183,-2.9193618,-4.913478
0.33403566,-0.0015508775,-0.108848825,-5.2624493,-2.8283274,-4.760261
0.3236206,-0.0015025218,-0.105454974,-5.0983686,-2.7401416,-4.6118383
0.3135313,-0.0014556788,-0.10216728,-4.9394207,-2.654714,-4.4680586
0.30375752,-0.0014103006,-0.098982394,-4.785443,-2.571958,-4.3287745
0.2942893,-0.001366341,-0.09589707,-4.6362786,-2.4917893,-4.1938453
0.28511697,-0.0013237552,-0.09290818,-4.4917765,-2.414126,-4.063133
0.27623123,-0.0012825002,-0.09001268,-4.3517895,-2.3388891,-3.9365044
0.2676231,-0.0012425338,-0.08720763,-4.2161756,-2.2660027,-3.8138316
0.25928378,-0.0012038157,-0.08449019,-4.084797,-2.1953926,-3.6949902
0.25120488,-0.0011663066,-0.08185759,-3.9575205,-2.1269875,-3.5798597
0.24337819,-0.0011299684,-0.07930719,-3.8342175,-2.0607178,-3.4683235
0.2357958,-0.0010947646,-0.07683639,-3.7147634,-1.9965166,-3.3602686
0.22845004,-0.0010606593,-0.07444271,-3.5990372,-1.934319,-3.2555861
0.2213335,-0.0010276182,-0.07212371,-3.486922,-1.8740622,-3.15417
0.21443897,-0.000995608,-0.069877066,-3.3783047,-1.8156854,-3.0559177
0.20775953,-0.0009645963,-0.0677005,-3.2730756,-1.7591295,-2.9607306
0.2012884,-0.0009345519,-0.06559182,-3.1711287,-1.7043376,-2.8685122
0.1950191,-0.00090544444,-0.0635489,-3.072361,-1.6512544,-2.7791698
0.18894528,-0.0008772446,-0.061569687,-2.9766731,-1.5998266,-2.6926134
0.18306084,-0.000849924,-0.059652183,-2.8839686,-1.5500022,-2.6087556
0.17735985,-0.00082345516,-0.057794463,-2.7941544,-1.501731,-2.527512
0.17183657,-0.00079781143,-0.05599465,-2.70714,-1.4549648,-2.4488013
0.16648546,-0.000772967,-0.054250937,-2.6228378,-1.4096562,-2.3725438
0.16130114,-0.000748897,-0.05256157,-2.541163,-1.3657596,-2.2986634
0.15627837,-0.000725577,-0.050924852,-2.4620335,-1.3232312,-2.227085
0.15141213,-0.0007029838,-0.049339138,-2.38537,-1.2820281,-2.1577375
0.14669752,-0.0006810946,-0.04780284,-2.3110955,-1.2421088,-2.0905507
0.14212981,-0.0006598874,-0.046314403,-2.239135,-1.2034334,-2.0254574
0.13770442,-0.00063934096,-0.044872347,-2.1694167,-1.1659629,-1.9623922
0.13341689,-0.00061943464,-0.043475214,-2.1018703,-1.1296598,-1.9012917
0.12926294,-0.0006001484,-0.042121608,-2.0364282,-1.0944877,-1.8420947
0.12523837,-0.000581463,-0.040810164,-1.9730247,-1.0604112,-1.7847418
0.12133919,-0.00056335964,-0.039539576,-1.9115963,-1.0273962,-1.7291753
0.11756145,-0.00054582016,-0.03830856,-1.8520813,-0.99540955,-1.6753397
0.11390138,-0.000528827,-0.03711589,-1.7944199,-0.9644192,-1.6231809
0.1103553,-0.0005123631,-0.035960365,-1.7385545,-0.93439406,-1.5726466
0.10691967,-0.000496412,-0.03484083,-1.6844289,-0.905304,-1.5236862
0.103591025,-0.0004809576,-0.03375616,-1.631989,-0.87711996,-1.4762505
0.10036605,-0.0004659845,-0.03270527,-1.5811822,-0.84981364,-1.4302922
0.097241506,-0.0004514777,-0.031687107,-1.5319577,-0.82335764,-1.3857651
0.09421426,-0.00043742268,-0.030700648,-1.484266,-0.79772556,-1.3426245
0.09128128,-0.0004238053,-0.029744908,-1.4380594,-0.77289164,-1.3008274
0.088439636,-0.00041061194,-0.02881893,-1.3932917,-0.748831,-1.2603317
0.08568647,-0.00039782943,-0.027921785,-1.3499179,-0.72551954,-1.2210971
0.08301903,-0.0003854449,-0.027052574,-1.3078947,-0.70293397,-1.1830841
0.08043465,-0.000373446,-0.026210427,-1.26718,-0.6810516,-1.1462547
0.07793074,-0.0003618207,-0.025394501,-1.2277329,-0.65985066,-1.110572
0.07550479,-0.00035055738,-0.024603982,-1.189514,-0.63930976,-1.0760003
0.07315436,-0.00033964473,-0.023838073,-1.1524851,-0.6194084,-1.042505
0.07087712,-0.00032907183,-0.023096012,-1.1166091,-0.6001267,-1.0100527
0.06867078,-0.00031882813,-0.022377053,-1.08185,-0.5814453,-0.97861063
0.06653313,-0.00030890334,-0.021680478,-1.0481732,-0.5633455,-0.9481475
0.064462036,-0.00029928755,-0.021005591,-1.0155448,-0.5458092,-0.91863275
0.062455412,-0.00028997113,-0.020351714,-0.9839322,-0.52881885,-0.89003694
0.060511265,-0.00028094472,-0.019718194,-0.9533038,-0.5123575,-0.86233133
0.058627643,-0.00027219934,-0.019104397,-0.9236289,-0.49640858,-0.8354883
0.05680266,-0.00026372622,-0.018509708,-0.89487785,-0.4809562,-0.8094809
0.055034492,-0.0002555169,-0.017933534,-0.86702186,-0.46598488,-0.78428316
0.05332137,-0.00024756312,-0.017375296,-0.8400331,-0.4514796,-0.7598699
0.051661577,-0.00023985696,-0.016834436,-0.8138845,-0.43742594,-0.7362166
0.05005346,-0.0002323907,-0.016310414,-0.7885499,-0.42380974,-0.71329963
0.048495397,-0.00022515685,-0.015802706,-0.764004,-0.41061744,-0.6910961
0.04698584,-0.00021814821,-0.015310801,-0.74022216,-0.3978358,-0.6695838
0.045523275,-0.00021135774,-0.014834209,-0.7171807,-0.38545206,-0.6487411
0.04410624,-0.00020477865,-0.014372455,-0.6948565,-0.37345383,-0.6285473
0.042733315,-0.00019840438,-0.013925074,-0.67322725,-0.36182907,-0.60898215
0.04140313,-0.00019222853,-0.013491619,-0.65227133,-0.3505662,-0.59002596
0.040114354,-0.00018624493,-0.013071659,-0.6319677,-0.33965394,-0.5716599
0.038865693,-0.00018044759,-0.012664771,-0.61229616,-0.32908136,-0.55386555
0.037655905,-0.00017483071,-0.012270549,-0.5932369,-0.3188379,-0.53662515
