ax,ay,az,gx,gy,gz
5.720052,0.90909916,-7.2818847,-215.40015,146.87405,-74.4634
4.772811,-1.044939,-9.12682,-195.01062,149.94534,-74.78292
3.5874994,-1.6660837,-10.480944,-169.72269,146.85448,-75.78411
2.2911208,-1.7174728,-11.748081,-149.56996,136.84245,-76.14812
1.1356621,-1.5532194,-12.847859,-134.66652,122.11393,-76.02024
0.13135979,-1.5495423,-13.915458,-121.390335,100.612495,-75.84329
-0.7568833,-2.0127575,-15.00069,-106.61701,75.41536,-74.19147
-1.3377247,-2.468829,-15.834773,-88.24871,47.131363,-71.518
-1.5972332,-2.7243907,-16.414576,-68.26088,18.721796,-69.220924
-1.6065814,-2.8719614,-16.810284,-46.552586,-10.673747,-68.07611
-1.4812585,-3.067843,-17.153511,-26.503195,-43.46656,-66.75896
-1.1141376,-3.3914478,-17.438892,-10.08006,-77.89228,-64.67259
-0.4175607,-3.7663503,-17.57342,3.009356,-112.90053,-61.61644
0.62862366,-4.1359835,-17.453272,13.872092,-145.57196,-58.49825
2.0624866,-4.3828516,-16.79282,26.271852,-172.32832,-55.916096
3.8205523,-4.367542,-15.441812,37.93572,-186.27469,-53.58407
5.2848015,-4.833115,-13.818331,53.045143,-191.74292,-50.227528
6.364569,-5.3358903,-12.442759,72.18737,-190.95975,-44.281345
7.124136,-5.4678593,-11.305638,90.686485,-187.46187,-35.63671
7.7037477,-5.219395,-10.204827,106.48598,-182.6256,-24.581335
8.253792,-4.660692,-9.031374,117.82833,-175.31139,-11.971676
8.866675,-3.8397384,-7.6692295,126.16646,-165.178,1.3349762
9.498425,-3.027366,-6.3509946,133.78877,-151.17061,15.090468
10.044436,-2.0432413,-5.233097,140.22635,-134.34256,27.506735
10.465225,-0.8768959,-4.3421016,143.32234,-115.99818,35.622753
10.78522,0.14472555,-3.6744423,143.21193,-95.54123,40.03486
10.999179,0.9358646,-3.3465347,141.58942,-74.20845,43.36593
11.133817,1.6162713,-3.271928,138.68947,-52.64035,45.17203
11.217756,2.191464,-3.4036636,135.50832,-31.19391,44.80379
11.269593,2.699372,-3.7032857,132.23384,-10.233275,42.080868
11.277893,3.2106652,-4.14484,127.11381,9.313085,36.528748
11.212307,3.7367482,-4.7176266,118.69825,26.527008,30.058094
11.062897,4.1653395,-5.3769817,108.434784,39.81363,23.388447
10.828367,4.4562087,-6.051308,97.17293,49.8347,16.949652
10.50672,4.6089,-6.726873,86.326195,57.020306,10.391686
10.0969,4.6128883,-7.4280877,77.893776,60.431225,3.046806
9.582179,4.38993,-8.155408,72.41987,60.14702,-4.4002194
9.044546,4.0779924,-8.829537,69.07931,56.840874,-11.081004
8.548683,3.7863553,-9.425763,67.40172,50.696354,-16.78833
8.1349535,3.5752847,-9.94091,66.68687,42.18738,-21.809746
7.798134,3.4238262,-10.398734,67.27116,30.649496,-26.18003
7.562169,3.2953424,-10.777362,68.803345,17.447104,-30.392582
7.4358544,3.1738932,-11.025913,71.7393,3.7434824,-34.848537
7.420517,3.1449752,-11.111624,74.54135,-9.614964,-39.00341
7.4805255,3.2059126,-11.03908,76.38648,-22.064096,-42.342346
7.56627,3.3532553,-10.840724,74.697105,-34.72098,-44.680202
7.7910285,3.5453968,-10.408732,70.02481,-46.124744,-47.06701
8.1144905,3.5885642,-9.821974,63.756645,-55.235733,-49.695972
8.422073,3.391343,-9.181852,57.331505,-61.541058,-51.886776
8.600544,3.0117364,-8.592462,52.060146,-65.92545,-53.65172
8.681201,2.583982,-8.049774,47.47175,-69.33004,-54.384487
8.711367,2.206245,-7.4889307,43.20733,-71.81297,-54.187763
8.699294,1.9111512,-6.9227147,39.249805,-73.25947,-53.594795
8.658405,1.6890512,-6.3647094,35.412594,-73.55123,-52.782528
8.578918,1.5148312,-5.840308,31.317732,-72.70392,-51.672897
8.441404,1.3629973,-5.383856,26.849913,-70.88066,-50.394627
8.257935,1.1891433,-5.0138903,22.336254,-68.6181,-49.066647
8.089845,0.9924032,-4.6850514,17.60365,-65.98723,-47.820633
8.0800495,0.7161039,-4.251231,14.928876,-61.574253,-47.125732
7.9079003,0.54222685,-3.963899,10.142371,-56.80516,-44.64239
7.5921106,0.38036028,-3.806558,7.049234,-52.975464,-42.514267
7.244287,0.31004596,-3.7250924,5.0490994,-49.922466,-41.15272
7.0101647,0.30002582,-3.6047041,4.8859215,-48.309063,-39.82274
6.78413,0.29035184,-3.4884746,4.7283807,-46.75139,-38.5387
6.5658555,0.28100997,-3.3762352,4.576248,-45.247196,-37.298744
6.355032,0.271987,-3.2678275,4.429309,-43.79435,-36.101116
6.1513658,0.26327035,-3.1631,4.2873583,-42.39083,-34.944145
5.954579,0.25484812,-3.0619102,4.1502028,-41.034714,-33.826256
5.7644067,0.246709,-2.9641213,4.017657,-39.724182,-32.74594
5.5805974,0.23884222,-2.8696048,3.8895464,-38.4575,-31.701777
5.4029126,0.23123755,-2.7782373,3.7657042,-37.233025,-30.692398
5.2311234,0.22388521,-2.6899016,3.6459713,-36.049175,-29.716515
5.0650134,0.21677591,-2.6044858,3.5301962,-34.904465,-28.77289
4.9043746,0.20990077,-2.5218835,3.4182346,-33.797455,-27.860346
4.7490087,0.20325132,-2.4419928,3.3099484,-32.726784,-26.977758
4.5987267,0.19681945,-2.364716,3.2052054,-31.691149,-26.12405
4.4533477,0.19059743,-2.2899606,3.1038797,-30.6893,-25.298193
4.3126984,0.18457781,-2.217637,3.0058503,-29.720045,-24.499205
4.1766124,0.17875351,-2.1476603,2.9110014,-28.782236,-23.726137
4.0449305,0.17311771,-2.079948,2.8192225,-27.87478,-22.978092
3.917501,0.16766389,-2.0144222,2.7304068,-26.996624,-22.2542
3.7941766,0.16238576,-1.9510075,2.6444526,-26.14676,-21.55363
3.674817,0.15727735,-1.8896315,2.561262,-25.324223,-20.875584
3.5592878,0.15233283,-1.8302251,2.4807405,-24.528076,-20.219294
3.4474587,0.1475467,-1.7727213,2.4027984,-23.75743,-19.584024
3.339205,0.14291358,-1.7170562,2.3273482,-23.011423,-18.969069
3.2344072,0.13842838,-1.6631678,2.2543063,-22.28923,-18.373741
3.1329494,0.13408612,-1.6109972,2.1835928,-21.590055,-17.797388
3.034721,0.12988205,-1.5604869,2.1151297,-20.913134,-17.23938
2.9396143,0.12581162,-1.5115821,2.0488427,-20.257727,-16.699106
2.8475268,0.1218704,-1.4642297,1.9846598,-19.623125,-16.175983
2.758359,0.11805414,-1.4183786,1.9225119,-19.008644,-15.669447
2.6720152,0.11435873,-1.3739797,1.8623322,-18.413624,-15.178953
2.588403,0.11078024,-1.3309854,1.8040565,-17.83743,-14.703976
2.5074334,0.107314855,-1.2893499,1.7476227,-17.279446,-14.244011
2.4290206,0.10395889,-1.2490293,1.6929708,-16.73908,-13.798571
2.3530817,0.1007088,-1.2099806,1.6400431,-16.215763,-13.367183
2.2795365,0.097561166,-1.1721629,1.5887839,-15.708941,-12.949394
2.208308,0.09451267,-1.1355363,1.5391392,-15.218085,-12.5447645
2.1393213,0.09156013,-1.1000626,1.491057,-14.742679,-12.152872
2.0725045,0.08870047,-1.0657047,1.4444875,-14.282226,-11.773305
2.0077882,0.0859307,-1.032427,1.3993816,-13.8362465,-11.40567
1.9451051,0.08324794,-1.0001944,1.3556929,-13.404278,-11.049584
1.8843899,0.080649406,-0.9689741,1.3133758,-12.985872,-10.7046795
1.8255801,0.07813243,-0.9387334,1.2723868,-12.580597,-10.370598
1.7686149,0.07569439,-0.9094413,1.2326833,-12.188033,-10.046994
1.7134355,0.07333279,-0.88106745,1.1942246,-11.807777,-9.733537
1.6599854,0.07104519,-0.8535828,1.1569711,-11.439437,-9.429901
1.6082095,0.06882925,-0.8269591,1.1208845,-11.082634,-9.135777
1.5580549,0.0666827,-0.80116904,1.085928,-10.737004,-8.850863
1.5094701,0.064603336,-0.7761862,1.0520655,-10.402193,-8.574867
1.4624056,0.062589034,-0.7519851,1.0192626,-10.077857,-8.3075075
1.4168133,0.060637742,-0.728541,0.98748577,-9.763667,-8.048511
1.3726466,0.058747467,-0.70583004,0.95670265,-9.459302,-7.797612
1.3298607,0.056916285,-0.683829,0.92688185,-9.164452,-7.5545573
1.288412,0.055142336,-0.66251564,0.8979931,-8.878818,-7.319099
1.2482584,0.053423814,-0.64186823,0.870007,-8.602107,-7.090998
1.209359,0.051758975,-0.62186575,0.8428951,-8.334041,-6.8700223
1.1716747,0.050146133,-0.60248804,0.81662995,-8.0743475,-6.655948
1.135167,0.048583653,-0.5837154,0.79118496,-7.822762,-6.448559
1.099799,0.047069952,-0.5655288,0.7665343,-7.5790315,-6.2476435
1.0655351,0.0456035,-0.5479099,0.74265313,-7.342909,-6.0529995
1.0323404,0.04418281,-0.5308408,0.71951723,-7.114155,-5.8644304
1.0001816,0.042806454,-0.5143044,0.6971032,-6.8925385,-5.681745
0.96902597,0.041473035,-0.49828386,0.6753885,-6.6778364,-5.504759
0.9388423,0.040181212,-0.48276305,0.6543512,-6.469832,-5.333294
0.9096,0.038929682,-0.46772635,0.63397,-6.2683153,-5.167177
0.8812697,0.037717182,-0.4531586,0.61422443,-6.073083,-5.006241
0.85382277,0.03654249,-0.4390451,0.59509456,-5.8839383,-4.8503227
0.82723165,0.035404425,-0.42537165,0.57656115,-5.700691,-4.699266
0.8014695,0.03430184,-0.41212445,0.55860555,-5.5231566,-4.5529184
0.7765104,0.033233624,-0.39929023,0.5412097,-5.3511567,-4.4111333
0.75232935,0.032198705,-0.38685605,0.524356,-5.184518,-4.2737675
0.7289019,0.031196043,-0.3748094,0.5080277,-5.0230727,-4.140683
0.70620465,0.030224629,-0.3631382,0.49220815,-4.866659,-4.0117464
0.6842146,0.029283484,-0.35183072,0.47688165,-4.71512,-3.8868272
0.6629098,0.028371667,-0.34087554,0.4620327,-4.568302,-3.765801
0.64226884,0.027488261,-0.33026174,0.44764644,-4.4260592,-3.6485455
0.622271,0.02663238,-0.31997862,0.43370837,-4.288248,-3.5349433
0.60289615,0.025803162,-0.31001586,0.42020455,-4.154731,-3.4248803
0.58412486,0.024999775,-0.30036345,0.40712142,-4.0253725,-3.3182461
0.56593835,0.024221417,-0.29101175,0.39444584,-3.900044,-3.2149336
0.5483183,0.023467304,-0.28195134,0.3821651,-3.7786193,-3.1148396
0.53124714,0.02273668,-0.27317315,0.37026688,-3.660977,-3.017863
0.5147077,0.022028813,-0.26466838,0.3587393,-3.5469987,-2.923907
0.49868336,0.021342993,-0.2564285,0.3475707,-3.4365704,-2.8328774
0.4831581,0.020678531,-0.24844524,0.33674994,-3.3295815,-2.7446828
0.46811637,0.020034764,-0.2407106,0.3262662,-3.2259245,-2.659235
0.45354307,0.019411046,-0.23321685,0.31610894,-3.1254957,-2.5764482
0.4394236,0.018806752,-0.22595645,0.306268,-3.0281942,-2.4962394
0.4257438,0.018221274,-0.21892215,0.2967335,-2.933923,-2.4185286
0.41249,0.01765403,-0.21210691,0.2874959,-2.8425872,-2.3432376
0.3996489,0.017104447,-0.20550388,0.27854598,-2.7540956,-2.2702909
0.38720766,0.016571978,-0.19910645,0.26987472,-2.6683593,-2.1996157
0.3751538,0.016056089,-0.19290823,0.26147345,-2.5852928,-2.1311414
0.36347526,0.015556263,-0.186903,0.2533338,-2.5048127,-2.0647988
0.35216036,0.015072,-0.18108475,0.24544756,-2.4268384,-2.0005221
0.34119776,0.014602815,-0.17544764,0.23780689,-2.351292,-1.9382467
0.33057645,0.014148237,-0.16998607,0.2304041,-2.2780974,-1.8779101
0.32028586,0.013707813,-0.16469452,0.22323178,-2.207182,-1.8194522
0.31031564,0.013281101,-0.15956773,0.21628277,-2.1384742,-1.7628143
0.30065584,0.012867674,-0.15460055,0.20955011,-2.0719059,-1.7079397
0.29129678,0.012467119,-0.14978802,0.20302707,-2.0074098,-1.6547736
0.2822291,0.012079033,-0.14512531,0.1967071,-1.9449219,-1.6032627
0.2734437,0.01170303,-0.14060777,0.19058388,-1.8843791,-1.5533553
0.26493183,0.011338733,-0.13623087,0.1846513,-1.8257213,-1.5050018
0.25668493,0.010985777,-0.13199022,0.17890342,-1.7688897,-1.4581535
0.24869478,0.010643809,-0.1278816,0.17333446,-1.7138271,-1.4127637
0.24095336,0.010312486,-0.123900875,0.16793887,-1.6604788,-1.368787
0.23345295,0.009991479,-0.12004408,0.16271126,-1.6087914,-1.3261793
0.22618602,0.009680464,-0.11630735,0.15764639,-1.558713,-1.284898
0.21914533,0.009379132,-0.11268695,0.15273918,-1.5101935,-1.2449018
0.2123238,0.009087179,-0.10917924,0.14798474,-1.4631844,-1.2061507
0.20571463,0.008804316,-0.105780736,0.1433783,-1.4176387,-1.1686059
0.19931121,0.008530257,-0.102488026,0.13891527,-1.3735108,-1.1322299
0.19310711,0.008264731,-0.099297814,0.13459116,-1.3307567,-1.0969863
0.18709616,0.00800747,-0.09620691,0.13040166,-1.2893335,-1.0628397
0.18127231,0.0077582165,-0.093212225,0.12634258,-1.2491996,-1.0297561
0.17562976,0.0075167227,-0.09031076,0.12240985,-1.2103152,-0.99770236
0.17016286,0.0072827465,-0.08749962,0.11859955,-1.1726412,-0.96664643
