ax,ay,az,gx,gy,gz
-3.5800326,-0.81364375,-11.701924,5.270957,5.604596,-13.483759
-3.399436,-1.123517,-12.5967655,7.4126964,-13.35145,-10.985281
-3.2163832,-1.7021401,-13.2098875,12.709807,-34.14606,-10.452936
-3.192788,-2.5973673,-13.853514,14.588998,-64.54601,-8.700863
-3.1113415,-3.678542,-14.385946,16.2746,-92.52702,-5.033135
-2.9424853,-4.6401143,-14.824338,20.207369,-120.01142,0.20365016
-2.7014925,-5.4366584,-15.259465,24.928305,-149.924,6.60359
-2.2188745,-6.076968,-15.534363,33.055317,-180.76248,12.132177
-1.1521977,-6.6311154,-15.408855,48.524883,-207.9726,15.482318
0.79956055,-7.29367,-14.458724,67.12799,-226.25616,20.90628
3.0454838,-7.662698,-12.895363,86.78146,-233.22455,31.190693
5.1511116,-7.5207434,-11.044416,102.97288,-230.89432,46.502895
6.780084,-7.152239,-9.294351,116.51123,-222.2877,64.142555
7.817962,-6.7672467,-7.87597,129.97375,-208.9357,80.62472
8.287592,-6.492155,-6.93693,145.06943,-196.19733,96.154175
8.786349,-6.1308246,-6.216101,159.42252,-184.1908,112.591446
9.564248,-5.6220555,-5.4968596,172.29877,-170.38794,130.37405
10.4636345,-4.7114882,-4.7534933,182.89961,-151.39111,148.50562
10.981518,-3.387823,-4.196398,184.53877,-132.01244,158.18324
11.068292,-2.2986617,-3.847767,186.29744,-113.16312,159.2535
11.054896,-1.4536451,-3.6412766,188.51355,-94.37014,155.20235
11.071456,-0.7298398,-3.492273,190.32024,-75.04542,149.38756
11.098209,-0.08354659,-3.4067557,190.56488,-54.82192,143.54463
11.117013,0.4800593,-3.400919,187.46445,-32.390953,137.38423
11.000213,1.0094199,-3.6420078,181.7833,-11.398557,131.12036
10.728609,1.4939312,-3.9924717,173.63902,6.6985655,124.54238
10.366609,1.8974675,-4.4090867,166.0212,21.732107,116.007744
10.014875,2.211708,-4.8246365,159.51357,34.02151,104.44147
9.757316,2.4311314,-5.211581,153.6168,44.1766,90.82323
9.571519,2.5767303,-5.6027474,146.53592,52.682922,77.88931
9.378629,2.6999094,-6.0201373,138.16435,59.532787,65.52061
9.155911,2.8184404,-6.4837027,129.17497,64.04676,52.881046
8.934641,2.9073086,-6.9682045,120.26314,66.03672,39.445385
8.713439,2.9432333,-7.45878,112.41215,64.38699,25.58204
8.491945,2.954564,-7.9260144,104.15454,60.421646,12.682472
8.281401,2.9478767,-8.376529,95.329056,54.27228,0.67863643
8.088907,2.8825243,-8.812261,86.169235,46.20132,-10.3308325
7.8699512,2.7749867,-9.259065,78.099594,35.78191,-21.283493
7.6636415,2.6703348,-9.673016,71.80328,22.000458,-33.08699
7.5652194,2.597374,-9.965322,66.18045,6.5040984,-44.94208
7.6289697,2.4610462,-10.091885,60.887276,-10.026573,-56.361702
7.909913,2.1669736,-9.956296,56.329884,-25.419607,-65.621895
8.327816,1.7858435,-9.547631,52.68379,-38.462715,-72.11976
8.766904,1.4656287,-8.906921,51.12054,-47.314404,-76.94917
9.1407175,1.3148577,-8.090387,49.305653,-52.319313,-80.28234
9.351868,1.1998405,-7.317884,46.26668,-54.889507,-82.11838
9.402852,1.0337207,-6.661636,42.744236,-56.20134,-83.358315
9.353297,0.78359616,-6.0929217,39.837963,-56.582752,-83.98057
9.233923,0.5126619,-5.593953,39.63882,-56.004147,-84.89008
9.2923765,0.17176333,-4.950176,42.93855,-51.667652,-86.10722
8.96784,-0.017843494,-4.6366744,43.658,-49.379536,-85.27395
8.665421,-0.18330832,-4.3172445,42.459076,-47.59118,-83.04702
8.34413,-0.34903097,-4.056794,41.5667,-45.587376,-80.98019
8.066581,-0.33742127,-3.921854,40.18408,-44.07102,-78.28657
7.799354,-0.32624328,-3.7919323,38.852875,-42.61105,-75.693115
7.5419645,-0.3154768,-3.6667933,37.57068,-41.204826,-73.19514
7.29396,-0.30510288,-3.546217,36.335228,-39.849873,-70.78824
7.054916,-0.2951038,-3.4299972,35.14442,-38.54388,-68.46831
6.824435,-0.2854629,-3.317941,33.99627,-37.284668,-66.23148
6.6021442,-0.27616456,-3.2098663,32.888916,-36.0702,-64.074135
6.3876915,-0.26719412,-3.1056025,31.820606,-34.89856,-61.992863
6.180746,-0.25853768,-3.0049887,30.789698,-33.767933,-59.984447
5.9809957,-0.2501822,-2.9078727,29.79463,-32.676613,-58.045856
5.788145,-0.24211536,-2.8141117,28.833937,-31.622993,-56.174232
5.6019154,-0.23432547,-2.7235696,27.906225,-30.605547,-54.366867
5.4220433,-0.2268015,-2.6361184,27.010181,-29.62283,-52.621197
5.2482777,-0.21953297,-2.551636,26.144558,-28.673477,-50.93479
5.080381,-0.21250993,-2.4700072,25.308174,-27.756191,-49.305347
4.918128,-0.20572297,-2.391122,24.499903,-26.869738,-47.73068
4.7613044,-0.19916311,-2.3148768,23.718678,-26.012945,-46.208694
4.6097054,-0.1928218,-2.2411716,22.96348,-25.184698,-44.73742
4.463137,-0.18669091,-2.169912,22.233341,-24.383936,-43.31497
4.3214135,-0.1807627,-2.1010084,21.52734,-23.609642,-41.939533
4.184358,-0.17502972,-2.034374,20.844591,-22.860853,-40.609406
4.051802,-0.16948496,-1.9699271,20.184256,-22.136644,-39.322937
3.9235833,-0.16412163,-1.907589,19.545527,-21.436132,-38.078568
3.7995474,-0.15893327,-1.8472846,18.927637,-20.758474,-36.874794
3.6795468,-0.15391369,-1.788942,18.329847,-20.102863,-35.710182
3.5634396,-0.14905699,-1.7324923,17.751453,-19.468521,-34.58336
3.4510903,-0.14435747,-1.6778698,17.19178,-18.854712,-33.493004
3.3423686,-0.1398097,-1.6250108,16.650177,-18.260721,-32.437855
3.2371497,-0.13540843,-1.5738549,16.126024,-17.685867,-31.416698
3.1353135,-0.13114868,-1.5243437,15.618722,-17.129496,-30.428373
3.036745,-0.12702562,-1.4764212,15.127699,-16.590975,-29.471762
2.9413338,-0.1230346,-1.4300336,14.652403,-16.069704,-28.54579
2.848973,-0.119171195,-1.3851291,14.192303,-15.5651,-27.649426
2.7595606,-0.115431115,-1.3416581,13.74689,-15.076604,-26.781672
2.672998,-0.11181024,-1.2995726,13.315674,-14.603677,-25.941578
2.5891905,-0.108304605,-1.2588266,12.898182,-14.145802,-25.128222
2.5080466,-0.104910396,-1.2193756,12.49396,-13.702479,-24.340715
2.4294784,-0.10162394,-1.181177,12.10257,-13.273231,-23.578209
2.3534014,-0.09844167,-1.1441895,11.723588,-12.857591,-22.839878
2.279734,-0.09536019,-1.1083734,11.356609,-12.455115,-22.124931
2.208397,-0.092376195,-1.0736904,11.001241,-12.0653715,-21.432602
2.1393147,-0.08948652,-1.0401036,10.657104,-11.687947,-20.762154
2.0724137,-0.08668809,-1.0075773,10.323833,-11.32244,-20.112877
2.0076234,-0.08397794,-0.9760772,10.001077,-10.968464,-19.484085
1.9448755,-0.08135322,-0.9455701,9.688495,-10.625647,-18.875113
1.884104,-0.078811176,-0.9160239,9.385759,-10.293628,-18.285322
1.8252454,-0.076349154,-0.88740766,9.092552,-9.972059,-17.714096
1.7682382,-0.073964566,-0.8596916,8.808567,-9.660605,-17.16084
1.7130228,-0.07165494,-0.83284676,8.533509,-9.358942,-16.624971
1.6595422,-0.069417864,-0.80684525,8.267093,-9.066755,-16.10594
1.6077408,-0.067251034,-0.7816601,8.009042,-8.783742,-15.603204
1.5575649,-0.0651522,-0.7572653,7.7590876,-8.509611,-15.116243
1.5089628,-0.063119195,-0.73363566,7.516974,-8.244078,-14.644558
1.4618844,-0.06114993,-0.7107468,7.2824507,-7.98687,-14.18766
1.4162812,-0.059242375,-0.68857527,7.0552764,-7.7377214,-13.74508
1.3721067,-0.05739457,-0.6670982,6.8352184,-7.4963775,-13.316363
1.3293153,-0.05560463,-0.6462937,6.6220512,-7.262591,-12.901071
1.2878633,-0.05387071,-0.62614036,6.415556,-7.036122,-12.498777
1.2477083,-0.05219105,-0.60661757,6.215522,-6.816739,-12.109072
1.2088095,-0.050563928,-0.5877055,6.021745,-6.6042185,-11.731556
1.171127,-0.048987687,-0.5693848,5.834028,-6.3983436,-11.365845
1.1346225,-0.04746072,-0.5516369,5.652179,-6.1989045,-11.011567
1.0992589,-0.045981478,-0.5344436,5.4760137,-6.005699,-10.668362
1.0650003,-0.044548456,-0.5177876,5.305352,-5.81853,-10.33588
1.0318118,-0.0431602,-0.5016519,5.1400228,-5.6372085,-10.013785
0.99965996,-0.041815303,-0.4860201,4.9798565,-5.4615493,-9.701749
0.968512,-0.040512398,-0.4708764,4.8246913,-5.2913756,-9.399457
0.93833643,-0.03925017,-0.4562055,4.6743703,-5.1265144,-9.106602
0.9091028,-0.03802734,-0.44199252,4.5287414,-4.966799,-8.822887
0.8807815,-0.036842674,-0.4282231,4.387657,-4.812068,-8.548028
0.8533439,-0.03569497,-0.41488335,4.2509756,-4.662165,-8.281745
0.8267623,-0.034583077,-0.40195978,4.118558,-4.516939,-8.023769
0.8010099,-0.033505864,-0.3894393,3.990271,-4.376243,-7.773841
0.7760607,-0.03246225,-0.3773094,3.8659854,-4.239936,-7.531708
0.7518896,-0.031451184,-0.36555776,3.745576,-4.107879,-7.297126
0.7284722,-0.030471647,-0.35417256,3.628921,-3.9799402,-7.0698586
0.7057849,-0.02952265,-0.34314233,3.5159032,-3.8559904,-6.8496776
0.6838049,-0.028603237,-0.332456,3.4064088,-3.735905,-6.636361
0.66251016,-0.027712487,-0.3221028,3.3003278,-3.6195629,-6.4296937
0.64187914,-0.026849499,-0.31207228,3.1975532,-3.5068471,-6.229469
0.6218911,-0.02601341,-0.3023544,3.097982,-3.3976443,-6.035484
0.602526,-0.025203377,-0.29293936,3.0015137,-3.291845,-5.8475447
0.5837644,-0.024418587,-0.28381774,2.9080517,-3.1893425,-5.665462
0.56558734,-0.023658251,-0.27498034,2.817502,-3.0900342,-5.4890532
0.54797673,-0.022921607,-0.26641828,2.7297735,-2.99382,-5.318141
0.5309148,-0.022207912,-0.258123,2.6447785,-2.9006035,-5.152554
0.5143843,-0.021516453,-0.25008616,2.5624316,-2.8102913,-4.9921255
0.49836892,-0.020846536,-0.24229969,2.4826498,-2.7227924,-4.836695
0.48285237,-0.020197487,-0.23475578,2.4053535,-2.638019,-4.686106
0.46781918,-0.019568654,-0.22744685,2.3304648,-2.5558867,-4.5402083
0.45325422,-0.01895941,-0.2203656,2.2579088,-2.4763124,-4.3988547
0.43914294,-0.018369142,-0.2135049,2.1876128,-2.3992167,-4.2619042
0.42547116,-0.017797258,-0.20685787,2.1195061,-2.3245223,-4.1292186
0.4122252,-0.017243184,-0.20041788,2.0535204,-2.252154,-4.0006657
0.39939174,-0.016706368,-0.19417843,1.98959,-2.1820397,-3.8761165
0.38695794,-0.016186267,-0.18813331,1.9276505,-2.1141088,-3.755446
0.37491137,-0.015682366,-0.18227644,1.8676399,-2.0482936,-3.6385334
0.3632399,-0.015194154,-0.17660195,1.809498,-1.9845276,-3.5252614
0.35193193,-0.014721146,-0.17110416,1.7531666,-1.9227475,-3.4155169
0.34097606,-0.014262866,-0.16577758,1.6985893,-1.862891,-3.3091893
0.3303613,-0.013818857,-0.16061686,1.6457115,-1.8048984,-3.206173
0.3200771,-0.013388674,-0.15561682,1.5944802,-1.7487116,-3.106364
0.3101131,-0.012971885,-0.15077247,1.544844,-1.6942742,-3.009663
0.30045936,-0.012568072,-0.14607894,1.4967533,-1.6415318,-2.9159727
0.29110616,-0.012176833,-0.14153157,1.45016,-1.5904316,-2.8251998
0.2820442,-0.0117977755,-0.13712578,1.4050174,-1.5409223,-2.737253
0.27326438,-0.011430519,-0.13285714,1.3612802,-1.4929545,-2.6520443
0.2647579,-0.011074698,-0.12872143,1.3189048,-1.4464802,-2.5694885
0.25651625,-0.010729954,-0.124714464,1.2778486,-1.4014528,-2.489503
0.2485312,-0.010395942,-0.12083225,1.2380707,-1.3578272,-2.4120076
0.24079475,-0.01007233,-0.1170709,1.1995312,-1.3155597,-2.336925
0.23329915,-0.009758793,-0.11342665,1.1621915,-1.2746083,-2.26418
0.2260369,-0.009455017,-0.10989585,1.1260142,-1.2349317,-2.1936994
0.21900076,-0.009160697,-0.10647497,1.0909632,-1.1964903,-2.1254132
0.21218364,-0.008875541,-0.10316059,1.0570035,-1.1592456,-2.0592527
0.20557876,-0.008599262,-0.09994939,1.0241009,-1.1231605,-1.995152
0.19917949,-0.008331584,-0.09683816,0.9922226,-1.0881987,-1.9330467
0.19297943,-0.008072238,-0.09382378,0.96133673,-1.0543252,-1.8728749
0.18697238,-0.007820966,-0.090903245,0.93141234,-1.0215062,-1.8145761
0.18115233,-0.007577516,-0.08807362,0.90241945,-0.98970896,-1.7580923
0.17551346,-0.007341645,-0.08533209,0.87432915,-0.9589015,-1.7033669
0.17005013,-0.0071131163,-0.0826759,0.8471133,-0.9290531,-1.650345
0.16475686,-0.006891702,-0.080102384,0.82074463,-0.90013385,-1.5989735
0.15962839,-0.0066771796,-0.077608995,0.79519683,-0.8721149,-1.5492014
0.15465954,-0.0064693354,-0.07519321,0.77044433,-0.8449681,-1.5009786
0.14984538,-0.006267961,-0.07285264,0.7464623,-0.81866634,-1.4542569
0.14518107,-0.0060728556,-0.07058492,0.72322685,-0.7931833,-1.4089895
