ax,ay,az,gx,gy,gz
-6.790971,0.2172747,-12.671933,-8.933718,86.83715,-36.95397
-7.383233,-0.11209487,-13.81358,-2.9613385,63.725098,-40.31403
-7.675623,-0.40226722,-14.515955,5.8460116,23.110865,-39.850277
-7.553801,-0.62595594,-14.938259,12.662678,-14.074156,-38.880527
-7.2342014,-0.8952899,-15.264161,19.37693,-48.16004,-38.80801
-6.793303,-1.213479,-15.50575,24.37209,-77.46168,-37.7593
-6.3366756,-1.6515833,-15.782819,29.20425,-105.215034,-35.601933
-5.8441067,-2.2486732,-16.04297,32.345234,-136.24152,-31.565184
-4.9799943,-3.1040413,-16.152925,35.172703,-166.34343,-26.637228
-3.7283113,-4.161963,-15.99269,39.796944,-194.12175,-21.679062
-2.1263726,-5.403367,-15.470378,47.92645,-216.0259,-15.774264
-0.3823419,-6.69279,-14.675151,61.660088,-229.76405,-7.311244
1.2502744,-7.751324,-13.820165,84.38677,-234.7282,7.855939
2.7047184,-8.054219,-12.923105,108.861565,-236.85065,26.011524
4.2265897,-7.5951104,-11.816649,127.85742,-237.31422,44.92721
5.937886,-6.7432146,-10.355472,142.4882,-231.81761,62.21095
7.60157,-5.624101,-8.729215,153.74023,-218.66158,76.0835
8.957312,-4.504059,-7.232443,162.62698,-195.66995,84.716
9.803378,-3.4570062,-6.168408,167.7621,-171.35846,90.90571
10.402724,-2.5151103,-5.3416324,170.28307,-146.19084,94.82003
10.782269,-1.6792583,-4.758629,170.59161,-120.44115,96.97963
10.903117,-0.94525,-4.45107,169.27092,-94.98074,97.591225
10.781588,-0.30014184,-4.3603883,165.00478,-70.352234,94.77663
10.500281,0.19959508,-4.4944525,159.88676,-47.38745,89.785385
10.169392,0.5721872,-4.727935,154.26009,-26.18484,83.41699
9.809172,0.88941485,-5.026714,148.15501,-7.101105,76.32237
9.431477,1.1885114,-5.376723,141.49776,9.257346,68.903595
9.066592,1.4661406,-5.7623234,134.9359,22.444818,61.72238
8.676968,1.7759793,-6.2051353,128.71236,32.783047,54.264904
8.278266,2.1041179,-6.640382,122.59496,40.66768,45.66107
7.8874636,2.4430528,-7.0772104,116.43582,46.136986,35.944054
7.502648,2.7354016,-7.5120053,109.52511,48.946,25.769539
7.117343,2.9750292,-7.9406266,101.526695,47.97886,15.292428
6.7478747,3.190806,-8.353283,93.14652,44.29894,4.2591734
6.441587,3.3634746,-8.743605,84.79803,38.28594,-7.219733
6.203435,3.4896085,-9.109088,76.826324,30.475706,-18.807178
6.010978,3.5764256,-9.457202,69.359,21.137112,-30.196959
5.8380237,3.6258895,-9.799218,62.608738,9.444125,-41.74382
5.672693,3.6123316,-10.153077,56.483402,-4.507579,-53.524284
5.592113,3.494578,-10.48224,50.565952,-21.045511,-65.290436
5.779799,3.1889088,-10.629407,45.00502,-38.253784,-75.1557
6.1833553,2.725207,-10.53272,40.29264,-54.1187,-82.23106
6.7194796,2.1644554,-10.217207,37.386127,-67.54119,-85.783424
7.3535194,1.5778922,-9.649416,35.066494,-78.04739,-87.213974
7.918486,1.0399666,-8.962123,34.151028,-84.538025,-86.80398
8.312428,0.61820817,-8.2750435,33.804188,-88.52318,-85.263725
8.550402,0.29281902,-7.618963,33.69708,-90.445816,-83.085495
8.664496,0.06350988,-7.002152,33.02072,-89.81388,-80.40541
8.653774,-0.08710239,-6.443817,31.551535,-87.063866,-77.805534
8.548407,-0.24183917,-5.9813313,29.59404,-82.680016,-75.461426
8.363062,-0.4053882,-5.623204,27.585173,-77.417076,-73.503
8.082382,-0.39178267,-5.434479,26.659367,-74.818825,-71.03611
7.8123727,-0.37869433,-5.2529287,25.768751,-72.319336,-68.662994
7.552512,-0.36609793,-5.0782022,24.911613,-69.9138,-66.379074
7.302315,-0.35396996,-4.909973,24.086351,-67.59772,-64.18009
7.061329,-0.34228846,-4.747937,23.291468,-65.366905,-62.06206
6.8291287,-0.33103287,-4.5918093,22.525566,-63.217422,-60.021255
6.6053185,-0.320184,-4.441323,21.78734,-61.145607,-58.054188
6.3895264,-0.30972373,-4.296227,21.075558,-59.148006,-56.157585
6.1814013,-0.29963517,-4.1562867,20.389069,-57.221394,-54.328377
5.980615,-0.28990233,-4.0212812,19.726784,-55.36271,-52.563667
5.786858,-0.28051022,-3.8910015,19.087685,-53.569096,-50.860733
5.5998373,-0.27144462,-3.7652512,18.470806,-51.837837,-49.217007
5.4192767,-0.26269218,-3.6438448,17.875235,-50.166386,-47.63006
5.2449155,-0.25424024,-3.5266068,17.300112,-48.55232,-46.097595
5.076506,-0.24607684,-3.4133706,16.744621,-46.993347,-44.617443
4.913814,-0.23819056,-3.303979,16.207989,-45.487305,-43.187542
4.7566175,-0.23057066,-3.198282,15.689484,-44.032127,-41.80594
4.6047044,-0.2232069,-3.096138,15.188406,-42.62587,-40.470776
4.457875,-0.21608952,-2.997412,14.704095,-41.266663,-39.18029
4.315937,-0.20920928,-2.901975,14.23592,-39.95274,-37.9328
4.1787095,-0.20255734,-2.809705,13.78328,-38.68242,-36.726704
4.0460176,-0.1961253,-2.720485,13.345603,-37.45409,-35.560474
3.9176965,-0.1899051,-2.6342037,12.922342,-36.26622,-34.43266
3.793588,-0.18388909,-2.5507548,12.512975,-35.11734,-33.34187
3.67354,-0.17806995,-2.4700363,12.117003,-34.006058,-32.286766
3.557409,-0.17244063,-2.3919513,11.73395,-32.931026,-31.26609
3.4450557,-0.16699447,-2.3164067,11.363358,-31.89097,-30.278618
3.336348,-0.161725,-2.243313,11.00479,-30.884659,-29.323183
3.2311585,-0.15662608,-2.1725852,10.657827,-29.910917,-28.398672
3.1293654,-0.1516918,-2.104141,10.322067,-28.968616,-27.504013
3.0308518,-0.1469165,-2.0379019,9.997126,-28.056673,-26.638176
2.9355056,-0.1422947,-1.9737924,9.682631,-27.174051,-25.800177
2.8432188,-0.13782123,-1.9117401,9.378226,-26.31975,-24.989067
2.753888,-0.13349102,-1.8516752,9.083572,-25.492811,-24.203938
2.667413,-0.12929928,-1.7935307,8.798339,-24.692312,-23.44391
2.5836987,-0.12524134,-1.7372425,8.522211,-23.917366,-22.708145
2.5026526,-0.12131274,-1.6827481,8.254885,-23.16712,-21.995829
2.424186,-0.117509164,-1.6299882,7.9960656,-22.440752,-21.306185
2.3482132,-0.11382649,-1.5789052,7.745473,-21.73747,-20.63846
2.2746522,-0.11026072,-1.5294439,7.5028353,-21.056513,-19.991932
2.2034235,-0.106808,-1.4815507,7.2678905,-20.397148,-19.365902
2.1344504,-0.10346463,-1.4351743,7.0403867,-19.758663,-18.759699
2.0676596,-0.100227036,-1.3902651,6.8200803,-19.140379,-18.172674
2.00298,-0.09709177,-1.3467753,6.606737,-18.541637,-17.604202
1.9403424,-0.0940555,-1.3046588,6.4001303,-17.9618,-17.053682
1.8796811,-0.09111503,-1.263871,6.200042,-17.400257,-16.520529
1.820932,-0.088267244,-1.2243689,6.0062604,-16.856415,-16.004183
1.7640334,-0.08550916,-1.1861111,5.818583,-16.329702,-15.504101
1.7089257,-0.08283789,-1.1490575,5.6368127,-15.81957,-15.019759
1.6555514,-0.08025064,-1.1131693,5.46076,-15.325482,-14.5506525
1.603855,-0.07774472,-1.0784093,5.2902417,-14.846927,-14.096292
1.5537826,-0.07531753,-1.0447414,5.12508,-14.383405,-13.656204
1.5052823,-0.072966546,-1.0121305,4.965104,-13.934437,-13.229936
1.458304,-0.070689335,-0.98054296,4.8101487,-13.4995575,-12.817043
1.4127992,-0.068483554,-0.94994617,4.6600533,-13.078319,-12.417101
1.368721,-0.06634692,-0.92030865,4.514663,-12.670286,-12.029698
1.3260242,-0.06427725,-0.8915999,4.37383,-12.27504,-11.654435
1.2846648,-0.062272403,-0.8637904,4.2374077,-11.892175,-11.290927
1.2446004,-0.06033034,-0.83685166,4.105257,-11.521297,-10.938801
1.20579,-0.05844906,-0.81075615,3.977243,-11.162029,-10.597696
1.168194,-0.056626648,-0.78547716,3.8532345,-10.814003,-10.267265
1.1317742,-0.05486124,-0.7609889,3.733105,-10.476863,-9.94717
1.0964931,-0.053151038,-0.7372664,3.6167321,-10.150265,-9.637085
1.062315,-0.051494297,-0.71428555,3.503997,-9.833878,-9.336693
1.0292051,-0.049889337,-0.6920229,3.3947856,-9.527378,-9.04569
0.9971297,-0.048334528,-0.6704559,3.2889864,-9.230455,-8.763779
0.9660563,-0.046828285,-0.6495626,3.1864922,-8.942808,-8.490675
0.9359534,-0.04536909,-0.6293218,3.0871992,-8.6641445,-8.2261
0.90679044,-0.043955453,-0.609713,2.9910066,-8.394182,-7.969787
0.87853795,-0.04258595,-0.5907165,2.897817,-8.132648,-7.7214756
0.8511673,-0.041259196,-0.57231283,2.8075361,-7.8792777,-7.4809146
0.8246508,-0.039973848,-0.55448353,2.7200727,-7.6338143,-7.2478614
0.7989618,-0.038728602,-0.5372106,2.6353388,-7.39601,-7.0220804
0.7740742,-0.03752221,-0.5204765,2.5532482,-7.1656246,-6.803343
0.7499629,-0.03635345,-0.5042645,2.4737184,-6.942426,-6.591429
0.72660375,-0.035221145,-0.48855805,2.396669,-6.7261896,-6.386125
0.703973,-0.03412415,-0.47334146,2.3220224,-6.5166965,-6.1872234
0.68204796,-0.033061363,-0.4585994,2.249704,-6.3137355,-5.994524
0.6608065,-0.03203171,-0.44431692,2.1796398,-6.117103,-5.8078327
0.64022726,-0.03103416,-0.43047976,2.1117601,-5.9266005,-5.6269617
0.62028956,-0.030067706,-0.4170739,2.0459967,-5.7420363,-5.451729
0.6009733,-0.029131377,-0.40408593,1.9822828,-5.5632253,-5.281958
0.5822591,-0.02822423,-0.39150277,1.9205548,-5.3899875,-5.117479
0.5641281,-0.027345356,-0.37931174,1.8607506,-5.2221484,-4.9581256
0.54656214,-0.026493868,-0.36750063,1.80281,-5.05954,-4.8037376
0.52954346,-0.025668912,-0.35605752,1.7466748,-4.9019976,-4.654161
0.51305515,-0.024869662,-0.344971,1.6922888,-4.749365,-4.509245
0.4970805,-0.024095312,-0.3342299,1.6395972,-4.601487,-4.3688436
0.48160356,-0.023345089,-0.3238234,1.5885471,-4.4582167,-4.2328167
0.46660873,-0.022618234,-0.31374112,1.5390875,-4.3194094,-4.101027
0.45208105,-0.021914024,-0.3039729,1.4911685,-4.184926,-3.9733431
0.4380059,-0.02123175,-0.29450896,1.4447423,-4.0546317,-3.8496366
0.42436916,-0.020570727,-0.2853398,1.3997622,-3.9283962,-3.729783
0.41115716,-0.019930292,-0.27645624,1.3561829,-3.8060923,-3.6136627
0.39835665,-0.019309806,-0.26784936,1.313961,-3.6875978,-3.501159
0.3859548,-0.018708643,-0.25951055,1.2730541,-3.5727937,-3.3921592
0.37393922,-0.018126203,-0.25143144,1.2334212,-3.4615648,-3.286554
0.3622978,-0.017561901,-0.24360391,1.1950226,-3.3538,-3.1842377
0.35101894,-0.017015172,-0.23602015,1.1578197,-3.2493913,-3.0851076
0.3400913,-0.01648547,-0.22867256,1.1217755,-3.148234,-2.9890645
0.32950392,-0.015972262,-0.22155377,1.0868535,-3.0502264,-2.896012
0.31924626,-0.015475035,-0.21465665,1.053019,-2.9552708,-2.8058574
0.30930796,-0.01499329,-0.2079743,1.0202382,-2.863272,-2.7185097
0.29967916,-0.014526546,-0.20150001,0.9884779,-2.7741377,-2.633882
0.29035014,-0.014074335,-0.19522732,0.9577066,-2.6877787,-2.5518892
0.2813116,-0.0136362035,-0.18914993,0.9278934,-2.6041088,-2.4724495
0.2725545,-0.013211714,-0.18326178,0.89900845,-2.5230439,-2.395483
0.26407003,-0.012800441,-0.17755695,0.8710228,-2.444503,-2.320913
0.25584972,-0.012401973,-0.17202972,0.8439085,-2.3684075,-2.2486649
0.24788535,-0.01201591,-0.1666746,0.8176384,-2.294681,-2.1786659
0.24016893,-0.011641867,-0.16148618,0.79218614,-2.22325,-2.1108463
0.23269275,-0.011279469,-0.15645932,0.7675263,-2.1540427,-2.0451381
0.22544932,-0.010928354,-0.15158893,0.7436342,-2.0869904,-1.9814756
0.21843141,-0.010588171,-0.14687018,0.720486,-2.022025,-1.919795
0.21163198,-0.010258577,-0.14229834,0.69805837,-1.9590827,-1.8600348
0.20504422,-0.009939244,-0.13786884,0.67632896,-1.8980997,-1.802135
0.19866155,-0.009629853,-0.13357721,0.655276,-1.8390151,-1.7460376
0.19247758,-0.009330093,-0.12941921,0.63487846,-1.78177,-1.6916867
0.18648612,-0.009039666,-0.12539063,0.6151159,-1.7263069,-1.6390277
0.18068118,-0.008758279,-0.12148747,0.5959686,-1.6725705,-1.5880082
0.17505696,-0.008485652,-0.11770582,0.5774173,-1.6205068,-1.5385767
0.16960782,-0.008221512,-0.114041895,0.5594436,-1.570064,-1.4906842
0.1643283,-0.0079655945,-0.11049202,0.5420293,-1.5211914,-1.4442825
0.15921314,-0.007717644,-0.107052654,0.5251572,-1.4738401,-1.3993253
0.15425721,-0.0074774115,-0.10372036,0.5088103,-1.4279629,-1.3557676
0.14945555,-0.0072446577,-0.10049179,0.49297225,-1.3835139,-1.3135657
0.14480336,-0.0070191496,-0.09736373,0.47762725,-1.3404485,-1.2726777
0.140296,-0.006800661,-0.094333045,0.4627599,-1.2987237,-1.2330624
0.13592894,-0.0065889736,-0.0913967,0.44835538,-1.2582978,-1.1946803
