ax,ay,az,gx,gy,gz
-3.8327622,3.3845763,-11.562832,15.92469,-9.820999,-63.421486
-4.0082154,3.0941334,-12.877484,22.092703,-41.609447,-74.96367
-4.243734,2.8843555,-14.013902,33.55323,-81.28083,-87.879105
-4.467553,2.704335,-15.057052,35.903084,-127.75442,-102.68921
-4.460341,2.3293839,-16.195112,30.709925,-188.27951,-112.67906
-3.7903814,1.3966193,-17.344587,25.203592,-247.5326,-118.19268
-2.3901725,0.51775914,-17.843336,20.64808,-294.7955,-117.56144
-0.9094323,-0.19800228,-17.653412,20.078176,-324.1415,-116.96988
0.1681,-0.7853115,-17.168026,25.567995,-339.99432,-118.346085
0.7169684,-1.3677757,-16.724072,41.61638,-350.74805,-119.83227
0.97543716,-2.182836,-16.390232,64.691246,-363.70743,-118.43554
1.6087115,-3.0113852,-15.84762,85.95659,-376.05417,-112.612144
2.9278727,-3.708241,-14.85487,102.49326,-382.37454,-100.16421
4.6339164,-4.1325355,-13.551763,115.17991,-379.69028,-84.24564
6.358386,-4.4482923,-12.272695,133.07756,-364.69244,-68.32684
7.810865,-4.485201,-11.371655,154.93748,-345.62762,-54.303345
9.207889,-4.303154,-10.584156,177.4398,-323.60165,-39.43362
10.698406,-3.6818862,-9.677343,193.70113,-298.6945,-21.19791
12.124012,-2.80154,-8.625802,201.10817,-270.52966,-2.7873485
13.184675,-1.9960116,-7.780205,205.76286,-237.2181,9.227475
13.777281,-1.2654853,-7.2518187,208.95332,-202.43152,13.867671
14.181732,-0.60608935,-6.866045,209.55673,-165.7005,13.543919
14.386361,-0.07849403,-6.7552695,206.15207,-128.22856,11.026839
14.354516,0.30174989,-6.9729285,202.50018,-92.866875,8.805624
14.143258,0.6239191,-7.329063,196.99446,-62.157738,8.744092
13.668315,0.9449434,-7.8565106,192.7818,-37.57457,7.6335297
13.095736,1.2102908,-8.316575,188.48207,-18.104362,4.3436885
12.570233,1.5006462,-8.671161,183.12929,-1.7201688,0.030068606
12.13235,1.8279471,-8.955289,175.73982,12.857484,-4.946829
11.742495,2.1451983,-9.242772,165.1699,25.83336,-10.059961
11.353878,2.4156296,-9.603339,154.22432,37.16724,-14.5345545
10.880221,2.6658418,-10.043175,144.60138,45.501865,-18.999508
10.273779,2.9092138,-10.513731,136.90419,49.680027,-24.52166
9.5838585,3.1686826,-10.97284,130.47061,48.956207,-32.126976
8.927355,3.4542887,-11.392073,124.22573,41.890064,-42.045864
8.434303,3.7507138,-11.757654,116.86901,31.248133,-52.736412
8.075661,3.9961538,-12.101699,108.22191,17.884315,-63.927917
7.8294697,4.149222,-12.438615,99.01563,1.9653507,-75.596504
7.7021103,4.219758,-12.742165,89.71573,-15.598423,-87.35296
7.6764736,4.204738,-13.013404,81.1414,-35.17446,-99.67649
7.8535023,4.0228868,-13.156944,72.83599,-54.885384,-111.668945
8.332362,3.6912987,-13.036886,64.38416,-72.7503,-121.88118
9.150939,3.165784,-12.523938,55.68329,-85.935616,-128.30795
10.016689,2.544926,-11.703303,47.472076,-92.09251,-129.71112
10.715214,2.0074892,-10.798099,40.268986,-89.70235,-127.07453
10.988375,1.6528842,-10.143512,35.058273,-84.790855,-124.7118
11.026157,1.3145628,-9.647879,31.50136,-80.47381,-123.06588
10.996073,0.9611043,-9.161231,28.256395,-77.159,-120.28313
10.94486,0.6363177,-8.6635475,24.75632,-73.9602,-115.37264
10.837421,0.35079688,-8.203852,21.66137,-69.78057,-109.15986
10.642497,0.08493152,-7.8346777,19.660654,-64.600685,-103.44639
10.39164,-0.15352263,-7.541224,19.000807,-58.72077,-98.35831
10.044485,-0.14839387,-7.2892933,18.366045,-56.759075,-95.07244
9.710378,-0.14345789,-7.0468316,17.75514,-54.871117,-91.91007
9.388696,-0.13870546,-6.813387,17.166954,-53.053368,-88.86531
9.078856,-0.13412799,-6.588536,16.60042,-51.302532,-85.93263
8.7803135,-0.12971742,-6.371883,16.054544,-49.615532,-83.10688
8.492558,-0.12546621,-6.163058,15.528391,-47.98949,-80.38323
8.21511,-0.12136728,-5.961714,15.021086,-46.421696,-77.75715
7.9475203,-0.11741401,-5.7675242,14.531807,-44.90961,-75.22438
7.689367,-0.113600135,-5.5801816,14.05978,-43.450848,-72.78092
7.44025,-0.10991977,-5.3993974,13.604279,-42.043144,-70.423
7.199795,-0.106367365,-5.224899,13.164613,-40.684387,-68.14706
6.967645,-0.10293767,-5.0564275,12.740134,-39.372562,-65.94973
6.7434664,-0.09962572,-4.8937407,12.33023,-38.10578,-63.827843
6.52694,-0.09642683,-4.736607,11.934317,-36.882236,-61.77839
6.3177643,-0.093336545,-4.5848083,11.551846,-35.700237,-59.798515
6.115654,-0.090350635,-4.4381366,11.182294,-34.55816,-57.885513
5.9203377,-0.08746509,-4.2963953,10.825163,-33.454468,-56.036816
5.7315564,-0.0846761,-4.1593966,10.479982,-32.38771,-54.249977
5.549065,-0.081980035,-4.0269623,10.146302,-31.356493,-52.522667
5.372629,-0.07937343,-3.8989227,9.823694,-30.359493,-50.852676
5.2020254,-0.07685299,-3.7751155,9.51175,-29.395452,-49.237892
5.037041,-0.074415565,-3.6553862,9.210081,-28.463163,-47.676292
4.877473,-0.072058156,-3.5395873,8.918315,-27.561478,-46.165955
4.7231255,-0.06977788,-3.4275773,8.636096,-26.689299,-44.705036
4.573814,-0.067572005,-3.3192217,8.363084,-25.845573,-43.291782
4.42936,-0.06543788,-3.2143912,8.098954,-25.029295,-41.924503
4.2895927,-0.06337301,-3.112962,7.843394,-24.239502,-40.601585
4.154349,-0.061374962,-3.0148153,7.5961046,-23.475271,-39.321487
4.023472,-0.059441432,-2.919838,7.3568,-22.735716,-38.082718
3.8968117,-0.057570197,-2.8279204,7.1252055,-22.019987,-36.88386
3.7742236,-0.05575912,-2.7389581,6.901057,-21.32727,-35.72355
3.655569,-0.054006156,-2.6528504,6.6841,-20.65678,-34.600468
3.5407147,-0.052309338,-2.5695004,6.474093,-20.007767,-33.513355
3.429533,-0.050666776,-2.4888158,6.2708,-19.379503,-32.461002
3.3219001,-0.049076643,-2.4107065,6.0739965,-18.771296,-31.442245
3.2176979,-0.047537196,-2.3350868,5.883466,-18.182472,-30.455956
3.116812,-0.04604674,-2.261874,5.698999,-17.612389,-29.501059
3.0191329,-0.04460366,-2.190988,5.5203953,-17.060427,-28.57651
2.9245543,-0.04320639,-2.1223521,5.347461,-16.525986,-27.68131
2.8329744,-0.04185342,-2.0558927,5.1800103,-16.008488,-26.814495
2.744295,-0.0405433,-1.9915378,5.017863,-15.507381,-25.975132
2.658421,-0.039274625,-1.929219,4.8608446,-15.022127,-25.162323
2.5752614,-0.03804605,-1.8688699,4.7087893,-14.55221,-24.375204
2.4947274,-0.036856268,-1.8104264,4.5615354,-14.097132,-23.61294
2.4167342,-0.035704024,-1.7538266,4.418927,-13.65641,-22.874723
2.3411996,-0.034588102,-1.699011,4.2808146,-13.229581,-22.159779
2.2680442,-0.03350733,-1.6459221,4.147052,-12.816196,-21.467352
2.1971915,-0.032460574,-1.5945041,4.0175,-12.415824,-20.79672
2.1285672,-0.031446744,-1.5447036,3.8920226,-12.028045,-20.147184
2.0621004,-0.030464783,-1.4964684,3.7704897,-11.652455,-19.518064
1.9977214,-0.02951367,-1.4497486,3.6527748,-11.288666,-18.90871
1.9353639,-0.02859242,-1.4044957,3.538756,-10.936297,-18.318487
1.8749633,-0.027700081,-1.3606628,3.4283152,-10.594987,-17.746786
1.8164572,-0.026835732,-1.3182049,3.3213384,-10.264382,-17.193018
1.7597852,-0.025998479,-1.277078,3.2177153,-9.944142,-16.65661
1.7048892,-0.025187464,-1.2372398,3.1173396,-9.633937,-16.137012
1.6517127,-0.024401853,-1.1986496,3.020108,-9.333449,-15.63369
1.6002014,-0.023640841,-1.1612679,2.925921,-9.042371,-15.146128
1.5503023,-0.02290365,-1.125056,2.8346822,-8.760403,-14.673826
1.5019647,-0.022189524,-1.0899774,2.746298,-8.487257,-14.216304
1.455139,-0.021497738,-1.055996,2.6606789,-8.222656,-13.773092
1.4097776,-0.020827584,-1.0230771,2.5777369,-7.9663296,-13.34374
1.3658342,-0.02017838,-0.9911874,2.497388,-7.718016,-12.927811
1.3232644,-0.019549467,-0.96029437,2.41955,-7.4774632,-12.52488
1.2820246,-0.018940203,-0.93036664,2.344144,-7.2444267,-12.13454
1.242073,-0.018349973,-0.90137374,2.271094,-7.0186696,-11.756393
1.2033693,-0.017778177,-0.87328637,2.2003253,-6.7999635,-11.390057
1.165874,-0.017224234,-0.8460761,2.1317663,-6.5880866,-11.035159
1.1295494,-0.016687585,-0.8197152,2.0653477,-6.3828244,-10.691341
1.0943586,-0.016167687,-0.7941772,2.0010023,-6.183969,-10.358255
1.0602659,-0.015664015,-0.7694361,1.938665,-5.9913197,-10.035563
1.0272372,-0.015176059,-0.7454671,1.8782729,-5.8046813,-9.722941
0.9952388,-0.014703326,-0.7222459,1.8197649,-5.623866,-9.420073
0.9642386,-0.01424534,-0.699749,1.7630819,-5.448691,-9.126652
0.9342053,-0.013801638,-0.6779538,1.7081668,-5.27898,-8.842382
0.90510863,-0.013371773,-0.6568383,1.6549644,-5.114561,-8.566978
0.87691927,-0.012955313,-0.63638127,1.6034211,-4.9552693,-8.300162
0.84960884,-0.012551838,-0.616562,1.5534847,-4.8009443,-8.041665
0.8231498,-0.01216094,-0.5973607,1.5051051,-4.6514306,-7.791227
0.7975156,-0.011782229,-0.57875794,1.4582337,-4.5065775,-7.5485954
0.7726804,-0.011415322,-0.560735,1.4128233,-4.3662395,-7.3135266
0.74861926,-0.01105985,-0.5432738,1.3688282,-4.2302756,-7.0857844
0.72530794,-0.010715458,-0.52635676,1.3262042,-4.098549,-6.86514
0.7027231,-0.010381796,-0.5099669,1.2849085,-3.9709268,-6.6513715
0.680842,-0.0100585325,-0.49408776,1.2448995,-3.8472817,-6.444264
0.6596427,-0.009745341,-0.4787034,1.2061372,-3.7274892,-6.2436094
0.63910383,-0.009441907,-0.46379834,1.1685826,-3.6114292,-6.0492063
0.6192049,-0.009147926,-0.44935766,1.1321979,-3.4989848,-5.86086
0.5999259,-0.0088631045,-0.43536684,1.0969467,-3.3900433,-5.6783814
0.5812474,-0.008587155,-0.42181185,1.0627937,-3.2844956,-5.501587
0.5631507,-0.008319801,-0.4086791,1.0297046,-3.1822355,-5.3303
0.54561776,-0.008060775,-0.3959554,0.99764603,-3.0831606,-5.1643476
0.5286309,-0.0078098164,-0.383628,0.96658605,-2.987172,-5.003565
0.5121731,-0.0075666746,-0.37168458,0.93649346,-2.8941727,-4.8477893
0.49622786,-0.007331105,-0.3601131,0.9073381,-2.8040698,-4.6968656
0.48077923,-0.0071028722,-0.34890202,0.87909067,-2.716773,-4.550642
0.4658117,-0.006881747,-0.33804005,0.851723,-2.632195,-4.4089723
0.4513103,-0.006667508,-0.32751638,0.8252076,-2.5502508,-4.271714
0.43726045,-0.00645994,-0.31732038,0.79951787,-2.4708586,-4.138731
0.42364815,-0.006258836,-0.30744192,0.77462816,-2.3939383,-4.009888
0.41045967,-0.0060639945,-0.29787102,0.75051343,-2.3194134,-3.8850577
0.3976819,-0.0058752196,-0.28859818,0.7271496,-2.247209,-3.7641141
0.38530198,-0.0056923227,-0.27961406,0.7045133,-2.177253,-3.6469367
0.37330753,-0.005515121,-0.27090967,0.68258184,-2.1094751,-3.5334074
0.36168653,-0.0053434363,-0.26247633,0.6613332,-2.0438075,-3.4234133
0.3504274,-0.0051770974,-0.25430554,0.6407462,-1.9801847,-3.3168437
0.3395188,-0.005015937,-0.24638914,0.6208001,-1.9185426,-3.2135923
0.3289498,-0.004859795,-0.23871922,0.60147506,-1.8588198,-3.1135554
0.3187099,-0.0047085136,-0.23128812,0.58275163,-1.8009565,-3.0166333
0.30878878,-0.0045619425,-0.22408836,0.5646112,-1.7448945,-2.9227285
0.29917654,-0.0044199345,-0.21711275,0.5470355,-1.690578,-2.8317475
0.2898636,-0.004282348,-0.21035431,0.530007,-1.6379526,-2.743599
0.28084055,-0.0041490444,-0.20380628,0.5135087,-1.5869654,-2.6581945
0.2720984,-0.004019891,-0.1974621,0.49752393,-1.5375656,-2.575449
0.26362842,-0.0038947584,-0.19131543,0.48203683,-1.4897038,-2.4952796
0.25542215,-0.0037735214,-0.18536012,0.46703184,-1.4433318,-2.4176059
0.24747132,-0.0036560586,-0.1795902,0.452494,-1.3984035,-2.3423502
0.23976801,-0.0035422526,-0.1739999,0.43840873,-1.354874,-2.2694373
0.23230451,-0.0034319893,-0.16858363,0.42476195,-1.3126994,-2.1987944
0.22507335,-0.0033251587,-0.16333598,0.41154,-1.2718378,-2.1303504
0.2180673,-0.0032216536,-0.15825167,0.39872965,-1.2322483,-2.0640373
0.21127936,-0.0031213707,-0.15332566,0.3863181,-1.1938912,-1.9997884
0.20470272,-0.0030242095,-0.14855298,0.37429288,-1.156728,-1.9375396
0.1983308,-0.002930073,-0.14392887,0.36264202,-1.1207218,-1.8772285
0.19215724,-0.002838867,-0.13944872,0.35135385,-1.0858364,-1.8187948
0.18617585,-0.0027505,-0.13510802,0.34041706,-1.052037,-1.7621802
0.18038067,-0.0026648839,-0.13090244,0.32982075,-1.0192897,-1.707328
0.17476588,-0.0025819328,-0.12682779,0.31955427,-0.9875619,-1.6541833
