ax,ay,az,gx,gy,gz
-3.6145785,4.5809507,-7.308248,-55.930508,-167.73698,-109.97555
-3.1711886,4.418499,-7.5425515,-70.57686,-192.94447,-124.491806
-2.1896727,3.6989703,-7.3009686,-71.379005,-207.14197,-130.57353
-1.2085638,3.1496294,-6.8338833,-69.89278,-212.53876,-130.73326
-0.2789353,2.6810963,-6.388977,-66.62777,-213.89668,-131.13138
0.7800239,2.0164728,-5.924782,-58.621735,-215.18474,-134.12668
2.208863,1.2382563,-5.0484676,-54.174965,-210.65846,-131.02954
3.4832559,0.5577445,-3.9468234,-53.771454,-200.46944,-123.39177
4.244571,-0.08810985,-3.1119733,-53.126534,-188.62932,-114.16494
4.713525,-0.6815965,-2.4468632,-51.009914,-178.30481,-105.66864
5.3780622,-1.520552,-1.3535963,-35.83366,-166.15385,-100.36681
6.2553544,-1.8479726,-0.35106674,-27.419714,-150.76123,-96.62597
6.565971,-2.2380645,0.3303531,-21.449102,-135.11801,-91.991714
6.495179,-2.5485618,0.65794516,-17.382841,-122.49997,-84.0638
6.415564,-2.6416981,0.90198827,-16.947866,-111.902435,-74.064926
6.506241,-2.6896846,1.2580909,-15.185294,-100.73326,-63.75704
6.622262,-2.6565151,1.5328213,-14.406083,-87.20346,-54.371185
6.6010747,-2.6794147,1.6018069,-10.71074,-74.51183,-47.510883
6.583994,-2.6555188,1.6299299,-6.515241,-62.94145,-41.80187
6.595486,-2.5781143,1.6548703,-2.8830385,-51.728214,-36.034355
6.5984693,-2.484341,1.6526204,-0.25851747,-40.51647,-29.77868
6.5545425,-2.3852048,1.5807663,1.5318159,-29.393185,-23.149702
6.4812694,-2.271608,1.4472476,3.355937,-18.96007,-17.135925
6.4254003,-2.142223,1.3256296,5.5425086,-8.793122,-11.770008
6.3526483,-1.9704487,1.1927376,7.558823,1.1441046,-6.868468
6.2178135,-1.7591525,1.0210711,9.021192,10.671202,-2.4615204
6.020378,-1.5119017,0.81070113,9.859948,19.301138,1.3182156
5.764535,-1.2106254,0.56742805,10.489617,26.876755,4.3299127
5.488257,-0.8776284,0.32495987,10.74229,33.44685,6.4538283
5.20552,-0.52675825,0.08870239,10.384216,39.16287,7.654883
4.8965845,-0.18348001,-0.16822341,10.13108,43.66066,7.8282504
4.550744,0.15674104,-0.43631476,9.934915,46.269943,6.57347
4.1721187,0.48119894,-0.7063216,9.146471,47.195503,4.519911
3.7973008,0.7761715,-0.9539648,7.7061863,46.622505,1.8910581
3.4560056,1.0420693,-1.1648023,5.3992534,44.958866,-1.0883784
3.1408362,1.2705039,-1.3526394,2.3117585,42.37607,-4.453437
2.835616,1.4361845,-1.5298886,-1.1599462,38.59179,-8.461078
2.5352755,1.4835647,-1.698214,-4.163982,33.88777,-12.745605
2.240339,1.481068,-1.8489027,-6.9489865,28.187733,-17.218588
1.9879866,1.4277892,-1.9573238,-10.207726,21.948017,-21.456535
1.8063433,1.2825397,-2.021758,-13.435723,16.165829,-25.187727
1.6579683,1.0049862,-2.0829628,-15.1935215,10.83278,-28.441885
1.4913001,0.5821437,-2.1754909,-15.06346,5.3558135,-31.237396
1.3288339,0.14221056,-2.2990966,-13.572034,-1.1836704,-33.162373
1.2444875,-0.25033227,-2.3901305,-11.862238,-8.559428,-33.44153
1.2785603,-0.56439036,-2.3860602,-10.728896,-15.606902,-31.528631
1.3890265,-0.7893519,-2.2962823,-10.032057,-20.589838,-26.795815
1.5096167,-0.8745357,-2.1845303,-8.737586,-24.378107,-21.600006
1.6366314,-0.83002424,-2.0780694,-7.2452207,-27.525732,-17.367565
1.7801957,-0.7206135,-1.9557056,-5.675196,-30.319407,-15.154258
1.9793487,-0.6169151,-1.7738581,-3.6146212,-31.90707,-14.31788
2.2207804,-0.55106974,-1.5346009,-0.85491586,-31.366756,-13.6427555
2.460217,-0.49955356,-1.2788823,1.7570876,-28.78145,-12.102225
2.3783834,-0.48293707,-1.2363433,1.6986421,-27.824102,-11.699673
2.2995932,-0.4669385,-1.195386,1.6423701,-26.902355,-11.31209
2.2237034,-0.45152888,-1.1559367,1.5881696,-26.01454,-10.938775
2.1505806,-0.43668112,-1.1179256,1.5359453,-25.159096,-10.579072
2.0801,-0.42236984,-1.0812881,1.485608,-24.33456,-10.232366
2.012144,-0.4085712,-1.0459629,1.437074,-23.539562,-9.898079
1.9466031,-0.3952629,-1.0118929,1.3902644,-22.772812,-9.575671
1.8833729,-0.38242388,-0.97902435,1.3451054,-22.0331,-9.264631
1.8223562,-0.37003428,-0.9473064,1.3015273,-21.31928,-8.96448
1.763461,-0.35807544,-0.9166911,1.2594643,-20.630281,-8.674765
1.7066002,-0.3465297,-0.8871335,1.2188543,-19.96508,-8.395056
1.6516916,-0.33538035,-0.8585906,1.1796385,-19.322718,-8.124951
1.5986573,-0.32461157,-0.831022,1.1417614,-18.702284,-7.8640666
1.5474235,-0.31420842,-0.8043894,1.1051702,-18.102913,-7.6120386
1.4979202,-0.30415666,-0.77865636,1.0698149,-17.523787,-7.3685236
1.4500809,-0.29444277,-0.7537883,1.0356481,-16.964127,-7.133194
1.4038423,-0.2850539,-0.72975236,1.0026245,-16.423193,-6.905739
1.3591443,-0.27597785,-0.7065172,0.97070116,-15.900283,-6.6858616
1.3159294,-0.26720297,-0.68405306,0.93983716,-15.394723,-6.4732804
1.2741431,-0.25871813,-0.66233146,0.90999335,-14.905876,-6.2677264
1.2337332,-0.2505128,-0.64132535,0.88113254,-14.43313,-6.068943
1.1946497,-0.2425768,-0.6210088,0.85321915,-13.975903,-5.876685
1.1568452,-0.23490049,-0.60135704,0.82621914,-13.533637,-5.690718
1.120274,-0.2274746,-0.58234644,0.80009997,-13.1058,-5.510818
1.0848925,-0.2202903,-0.56395423,0.7748305,-12.691881,-5.3367705
1.050659,-0.21333909,-0.54615885,0.75038093,-12.291392,-5.1683702
1.0175334,-0.20661287,-0.52893937,0.72672266,-11.903865,-5.00542
0.9854775,-0.20010382,-0.5122759,0.7038283,-11.528851,-4.8477316
0.95445436,-0.19380449,-0.49614924,0.68167156,-11.165918,-4.695123
0.9244286,-0.18770768,-0.4805411,0.6602271,-10.814654,-4.5474215
0.89536625,-0.18180649,-0.46543378,0.6394708,-10.474662,-4.404459
0.86723477,-0.17609432,-0.45081034,0.6193793,-10.145559,-4.266075
0.8400028,-0.17056479,-0.43665445,0.5999302,-9.826979,-4.1321163
0.81364006,-0.16521177,-0.42295045,0.58110195,-9.518568,-4.002434
0.7881176,-0.16002937,-0.40968323,0.5628738,-9.219987,-3.8768842
0.7634074,-0.15501189,-0.39683828,0.54522574,-8.930908,-3.7553308
0.73948264,-0.1501539,-0.38440156,0.5281387,-8.651019,-3.6376407
0.7163173,-0.14545013,-0.37235966,0.511594,-8.380013,-3.5236864
0.69388646,-0.14089549,-0.36069953,0.49557388,-8.1176,-3.4133453
0.672166,-0.13648508,-0.34940872,0.4800611,-7.8634987,-3.3064988
0.6511327,-0.13221422,-0.33847508,0.46503916,-7.617436,-3.2030325
0.6307642,-0.12807834,-0.32788703,0.45049196,-7.37915,-3.1028364
0.61103886,-0.12407306,-0.3176333,0.4364041,-7.148388,-3.005804
0.5919358,-0.12019414,-0.30770305,0.42276073,-6.9249063,-2.9118328
0.57343495,-0.116437495,-0.29808584,0.40954742,-6.70847,-2.8208241
0.5555169,-0.112799175,-0.28877157,0.3967503,-6.4988503,-2.732682
0.53816277,-0.10927538,-0.27975047,0.384356,-6.295829,-2.647314
0.5213545,-0.10586242,-0.2710131,0.37235153,-6.0991936,-2.5646315
0.5050746,-0.10255674,-0.2625504,0.36072442,-5.908739,-2.4845479
0.48930615,-0.099354915,-0.25435358,0.34946257,-5.724268,-2.40698
0.4740328,-0.09625362,-0.24641411,0.33855435,-5.545589,-2.331848
0.45923874,-0.09324964,-0.23872378,0.32798842,-5.372517,-2.2590733
0.4449087,-0.09033989,-0.23127466,0.3177539,-5.2048736,-2.1885815
0.43102792,-0.08752136,-0.22405909,0.30784026,-5.0424857,-2.1202996
0.41758212,-0.08479115,-0.21706963,0.29823726,-4.8851867,-2.0541575
0.4045575,-0.08214647,-0.2102991,0.28893507,-4.7328153,-1.990087
0.3919407,-0.0795846,-0.20374058,0.27992415,-4.5852146,-1.928023
0.37971884,-0.077102914,-0.19738735,0.2711953,-4.442234,-1.8679014
0.3678794,-0.07469889,-0.19123292,0.26273957,-4.303727,-1.8096613
0.3564103,-0.07237005,-0.18527098,0.2545483,-4.1695533,-1.7532427
0.3452998,-0.07011405,-0.17949548,0.24661322,-4.0395746,-1.6985885
0.3345367,-0.06792856,-0.17390054,0.23892619,-3.9136596,-1.6456429
0.32410994,-0.06581139,-0.16848046,0.2314794,-3.7916796,-1.5943519
0.314009,-0.06376036,-0.16322973,0.2242653,-3.6735113,-1.5446637
0.3042236,-0.06177341,-0.15814303,0.21727656,-3.5590343,-1.4965276
0.2947438,-0.05984851,-0.1532152,0.2105061,-3.4481325,-1.4498948
0.28556,-0.057983715,-0.14844124,0.20394702,-3.3406937,-1.4047182
0.27666292,-0.056177143,-0.1438163,0.19759274,-3.2366092,-1.3609519
0.26804355,-0.054426957,-0.13933575,0.19143678,-3.1357734,-1.3185518
0.25969318,-0.05273139,-0.13499501,0.18547294,-3.0380845,-1.2774749
0.25160336,-0.05108873,-0.13078973,0.17969519,-2.9434438,-1.2376797
0.24376595,-0.04949732,-0.12671565,0.1740977,-2.8517556,-1.1991261
0.236173,-0.047955554,-0.12276864,0.16867483,-2.7629278,-1.1617751
0.22881688,-0.046461876,-0.11894474,0.16342108,-2.6768706,-1.1255891
0.22169018,-0.04501478,-0.115240104,0.15833119,-2.593497,-1.0905317
0.2147857,-0.043612804,-0.11165098,0.1534,-2.5127232,-1.0565673
0.20809649,-0.042254545,-0.108173765,0.14862257,-2.4344678,-1.023662
0.20161583,-0.040938627,-0.104804955,0.14399408,-2.358652,-0.9917825
0.19533719,-0.039663732,-0.101541154,0.13950987,-2.2851999,-0.9608968
0.18925424,-0.038428575,-0.09837909,0.13516544,-2.2140372,-0.93097377
0.1833609,-0.037231915,-0.09531558,0.1309564,-2.1450925,-0.9019834
0.17765121,-0.03607255,-0.09234755,0.12687854,-2.0782962,-0.8738965
0.17211945,-0.034949314,-0.089472,0.12292776,-2.0135818,-0.8466849
0.16676007,-0.033861075,-0.08668606,0.11910009,-1.9508836,-0.82032114
0.16156767,-0.032806747,-0.08398692,0.11539168,-1.8901391,-0.7947789
0.15653706,-0.031785265,-0.08137188,0.11179881,-1.8312871,-0.7700324
0.15166317,-0.03079561,-0.07883831,0.108317874,-1.7742687,-0.7460569
0.14694111,-0.029836783,-0.076383665,0.10494538,-1.7190267,-0.7228283
0.14236616,-0.028907824,-0.07400549,0.10167795,-1.6655054,-0.7003233
0.1379337,-0.028007805,-0.07170139,0.098512284,-1.6136513,-0.6785193
0.13363932,-0.027135817,-0.069469064,0.09544524,-1.5634123,-0.6573945
0.1294787,-0.02629099,-0.067306265,0.092473716,-1.5147382,-0.63692766
0.12544765,-0.025472477,-0.06521083,0.08959474,-1.4675801,-0.6170983
0.12154215,-0.024679456,-0.06318065,0.08680543,-1.4218906,-0.59788644
0.11775828,-0.023911132,-0.0612137,0.084102996,-1.3776242,-0.579273
0.11409225,-0.023166735,-0.059308007,0.08148471,-1.3347362,-0.5612392
0.11054039,-0.022445519,-0.05746166,0.078947976,-1.2931838,-0.543767
0.10709913,-0.021746762,-0.05567281,0.07649023,-1.2529255,-0.52683884
0.10376503,-0.021069765,-0.053939663,0.07410902,-1.2139207,-0.51043785
0.10053476,-0.02041385,-0.052260485,0.07180195,-1.1761305,-0.49454758
0.09740507,-0.019778358,-0.050633594,0.06956673,-1.1395171,-0.47915208
0.09437283,-0.019162653,-0.049057357,0.067401096,-1.1040437,-0.464236
0.09143501,-0.01856612,-0.047530204,0.0653029,-1.0696748,-0.44978434
0.088588655,-0.01798816,-0.046050597,0.06327004,-1.0363761,-0.43578264
0.08583092,-0.017428197,-0.04461706,0.061300468,-1.0041142,-0.4222169
0.08315905,-0.016885666,-0.043228157,0.059392218,-0.9728566,-0.40907353
0.08057038,-0.016360028,-0.041882496,0.057543382,-0.9425723,-0.39633936
0.07806229,-0.015850754,-0.04057873,0.05575211,-0.91323084,-0.38400167
0.0756323,-0.015357338,-0.03931556,0.0540166,-0.88480294,-0.3720481
0.07327795,-0.014879282,-0.03809171,0.05233513,-0.85726005,-0.3604667
0.0709969,-0.014416109,-0.036905967,0.050706007,-0.8305747,-0.34924582
0.06878687,-0.013967357,-0.035757136,0.0491276,-0.80472004,-0.3383743
0.06664564,-0.013532574,-0.03464407,0.047598332,-0.77967036,-0.32784122
0.06457107,-0.013111327,-0.03356566,0.046116676,-0.7554005,-0.31763607
0.06256109,-0.012703194,-0.03252082,0.044681143,-0.7318862,-0.30774862
0.060613673,-0.012307767,-0.031508505,0.043290302,-0.70910394,-0.29816896
0.05872689,-0.0119246505,-0.030527705,0.041942757,-0.6870309,-0.28888753
0.056898836,-0.01155346,-0.02957744,0.040637165,-0.665645,-0.27989504
0.055127695,-0.011193825,-0.028656755,0.039372213,-0.6449249,-0.2711825
0.05341169,-0.010845385,-0.027764732,0.03814664,-0.62484974,-0.26274118
0.051749103,-0.010507792,-0.026900478,0.03695922,-0.60539955,-0.25456262
0.05013827,-0.010180709,-0.026063127,0.035808764,-0.5865548,-0.24663867
0.048577584,-0.009863807,-0.025251843,0.034694124,-0.5682968,-0.23896138
0.04706548,-0.00955677,-0.024465814,0.033614177,-0.5506071,-0.2315231
0.045600448,-0.009259292,-0.023704253,0.03256785,-0.533468,-0.22431636
0.04418102,-0.008971074,-0.0229664,0.031554095,-0.5168625,-0.21733394
0.04280578,-0.008691827,-0.022251515,0.030571898,-0.5007739,-0.21056889
