ax,ay,az,gx,gy,gz
-4.298221,4.8464074,-5.3373213,-47.44134,-156.52869,-116.68924
-4.0060415,4.4455047,-5.742165,-59.09461,-176.54903,-124.34214
-3.563614,4.007775,-6.08693,-68.36119,-190.2855,-123.233315
-3.2922168,3.8149216,-6.588313,-76.13061,-204.94887,-123.48661
-2.7284656,3.4436038,-6.7762856,-87.50706,-215.98137,-125.18215
-1.8991185,2.8475747,-6.6042943,-95.50964,-223.04541,-124.94994
-1.0701417,2.369499,-6.2482905,-100.91221,-221.58739,-119.529884
-0.553261,2.0536385,-6.190699,-102.71197,-219.51273,-116.1598
-0.22854748,1.7495688,-6.3059688,-100.428055,-219.96909,-117.35951
0.14527136,1.4099764,-6.3075,-96.58294,-221.58588,-120.99175
0.6503317,1.0324935,-6.1431956,-92.27661,-222.1127,-123.346794
1.2531168,0.65087855,-5.937962,-87.83924,-219.9931,-120.79168
1.8355163,0.2871733,-5.845934,-82.715546,-218.07816,-117.40059
2.422999,-0.05517259,-5.699096,-78.33868,-216.9281,-115.15766
3.0618699,-0.38481125,-5.370287,-76.0971,-214.99869,-112.98841
3.653464,-0.7272115,-4.9095364,-75.06906,-210.59074,-109.25965
4.120632,-1.0831915,-4.455275,-73.25317,-203.68185,-103.79127
4.489248,-1.4128271,-4.126642,-69.25365,-195.04315,-97.628174
4.860786,-1.697905,-3.8047132,-64.47617,-186.104,-91.978966
5.2289314,-1.9315432,-3.4488685,-59.680775,-176.44377,-86.45624
5.568647,-2.1286135,-3.062468,-55.119286,-165.45064,-80.64953
5.8468194,-2.2682297,-2.7036455,-51.26751,-152.41768,-74.13622
6.0156255,-2.3720584,-2.479103,-47.109806,-139.23225,-67.9159
6.142221,-2.4889824,-2.3284433,-42.353485,-126.445816,-62.080032
6.288577,-2.6227458,-2.1761804,-37.41411,-113.6668,-56.330334
6.4737973,-2.7764375,-1.9962326,-32.12705,-99.762276,-49.871696
6.6662073,-2.8906066,-1.8292165,-26.984093,-83.96125,-42.47866
6.8605103,-2.8432338,-1.7472755,-23.449463,-67.19839,-35.149593
6.9926515,-2.7787142,-1.779174,-19.92686,-50.529064,-28.723402
7.0374026,-2.713352,-1.8874626,-16.427504,-35.411217,-23.358723
7.0428114,-2.62239,-1.9933828,-13.967602,-21.659716,-18.230616
7.0093727,-2.4566882,-2.093137,-12.6120205,-9.150801,-13.286825
6.9146285,-2.2390683,-2.2079508,-11.928947,2.161032,-9.093507
6.7654586,-2.0273464,-2.352133,-11.20395,12.254042,-5.4763317
6.570566,-1.8224387,-2.5352745,-9.839672,20.640728,-2.6349823
6.357699,-1.5929502,-2.6988056,-8.817368,27.538029,-0.3829047
6.1228333,-1.3309188,-2.8613355,-8.42385,32.47547,0.6103824
5.8301835,-1.0724978,-3.0053155,-8.193423,36.191,0.43247974
5.526862,-0.8265167,-3.1312046,-8.152278,38.95631,-0.67063826
5.223993,-0.6078347,-3.2329595,-8.276006,40.825977,-2.3645961
4.9288087,-0.41363356,-3.314641,-8.641539,42.034996,-4.0844154
4.621544,-0.19795409,-3.3774998,-9.901346,42.239246,-5.952134
4.300668,0.006300421,-3.407317,-11.591603,41.77902,-8.210398
3.9899821,0.1716376,-3.4225073,-13.326887,40.80919,-10.844238
3.6756394,0.3034638,-3.44258,-14.998851,39.201378,-13.9105215
3.3658216,0.40133813,-3.4576414,-16.797962,37.00135,-17.232141
3.0615351,0.47650224,-3.4768791,-18.731445,34.01146,-20.787523
2.7617195,0.5238503,-3.5122442,-21.561893,29.508104,-24.648584
2.487951,0.51447946,-3.5424435,-24.843002,24.057125,-28.479954
2.2710655,0.42532822,-3.550023,-27.723497,18.047375,-31.857965
2.1171656,0.26315635,-3.539567,-29.740406,12.181141,-34.18009
1.9757644,0.0473153,-3.5371985,-30.956638,6.5692706,-35.146935
1.84358,-0.19342728,-3.548183,-31.241714,1.4602702,-35.769146
1.6958411,-0.42272606,-3.5856638,-31.069422,-3.5805337,-36.802414
1.567543,-0.665859,-3.6330144,-30.074553,-8.9858885,-38.155167
1.5118518,-0.9256176,-3.6424522,-28.451591,-14.309082,-38.501347
1.4980128,-1.1749514,-3.636913,-25.872238,-19.173244,-36.849934
1.4603564,-1.3859447,-3.6743753,-22.621983,-24.167723,-34.222046
1.4214026,-1.5573307,-3.7330048,-18.9398,-29.71508,-31.187798
1.4251354,-1.6705756,-3.7672713,-15.370577,-35.33369,-27.959188
1.4703788,-1.7238604,-3.7605386,-12.067955,-40.768085,-24.991114
1.562408,-1.7318671,-3.6906397,-8.793958,-45.573254,-22.455193
1.7253431,-1.6734078,-3.5435388,-5.568701,-49.002174,-19.764826
1.9019318,-1.5526413,-3.3764982,-2.5119257,-51.253853,-17.015846
2.074903,-1.3793621,-3.2094977,0.08839768,-52.465992,-14.61655
2.2342956,-1.1851226,-3.0583441,2.370667,-52.97043,-13.022316
2.397795,-1.0080534,-2.9015863,4.223373,-52.526676,-12.309623
2.5741348,-0.8897818,-2.7395663,5.9139137,-51.24658,-11.615147
2.745154,-0.8216349,-2.5895712,7.543733,-49.08751,-10.482012
2.9031165,-0.80123895,-2.466119,9.44793,-46.039238,-8.93333
3.0576632,-0.8272126,-2.3656607,11.848365,-41.965393,-7.214704
2.9604428,-0.80091083,-2.2904432,11.471639,-40.631077,-6.985308
2.8664362,-0.77547854,-2.217712,11.107367,-39.34087,-6.763495
2.775526,-0.75088394,-2.1473763,10.755092,-38.09316,-6.548988
2.6876001,-0.7270967,-2.0793495,10.414381,-36.886406,-6.3415227
2.6025515,-0.7040878,-2.0135486,10.084819,-35.71914,-6.140846
2.5202773,-0.6818296,-1.9498947,9.766008,-34.589954,-5.946716
2.4406796,-0.6602954,-1.8883114,9.45757,-33.497505,-5.7589016
2.3636646,-0.63945997,-1.8287262,9.159139,-32.4405,-5.577181
2.2891421,-0.6192989,-1.7710695,8.870367,-31.417704,-5.401342
2.217026,-0.5997887,-1.7152745,8.590919,-30.427935,-5.23118
2.1472332,-0.58090717,-1.661277,8.320473,-29.470053,-5.0665007
2.0796845,-0.5626327,-1.6090156,8.058723,-28.542967,-4.907116
2.014303,-0.5449445,-1.5584311,7.8053718,-27.645628,-4.7528453
1.9510157,-0.527823,-1.5094669,7.5601354,-26.77703,-4.6035156
1.8897519,-0.51124877,-1.4620682,7.3227396,-25.936207,-4.458961
1.8304437,-0.4952037,-1.4161825,7.0929217,-25.122223,-4.3190207
1.773026,-0.47967002,-1.3717593,6.8704295,-24.334183,-4.1835403
1.7174355,-0.46463072,-1.32875,6.655018,-23.571222,-4.052372
1.663612,-0.45006946,-1.2871076,6.446453,-22.832512,-3.9253728
1.611497,-0.4359704,-1.2467872,6.244509,-22.117252,-3.802405
1.5610344,-0.42231837,-1.2077452,6.048968,-21.424671,-3.6833363
1.51217,-0.4090987,-1.1699396,5.859619,-20.754023,-3.5680382
1.4648515,-0.39629728,-1.1333301,5.6762614,-20.104591,-3.4563878
1.4190285,-0.38390043,-1.0978776,5.4986987,-19.475687,-3.3482664
1.3746524,-0.37189505,-1.0635446,5.3267426,-18.86664,-3.243559
1.3316764,-0.3602684,-1.0302949,5.1602116,-18.276808,-3.1421547
1.290055,-0.3490083,-0.9980931,4.99893,-17.70557,-3.0439472
1.2497448,-0.33810285,-0.9669058,4.8427286,-17.152325,-2.9488332
1.2107033,-0.32754067,-0.93670005,4.6914434,-16.616493,-2.8567128
1.1728898,-0.3173107,-0.9074444,4.5449176,-16.097517,-2.7674901
1.1362649,-0.3074023,-0.8791084,4.402997,-15.594852,-2.681072
1.1007907,-0.2978052,-0.85166264,4.2655354,-15.107981,-2.597369
1.0664303,-0.2885094,-0.82507855,4.1323895,-14.636395,-2.5162938
1.0331482,-0.2795053,-0.7993287,4.0034223,-14.179609,-2.437763
1.0009098,-0.27078366,-0.7743865,3.8784997,-13.73715,-2.3616953
0.96968234,-0.26233545,-0.7502263,3.7574937,-13.308562,-2.2880123
0.93943334,-0.25415197,-0.7268232,3.6402798,-12.893405,-2.2166383
0.9101319,-0.24622482,-0.7041532,3.5267375,-12.491253,-2.1475003
0.88174796,-0.2385459,-0.68219304,3.4167502,-12.101692,-2.0805268
0.85425246,-0.23110732,-0.6609202,3.310206,-11.724326,-2.0156498
0.8276172,-0.22390151,-0.640313,3.2069952,-11.3587675,-1.9528029
0.8018152,-0.2169211,-0.6203505,3.1070132,-11.004643,-1.8919218
0.77682006,-0.21015896,-0.6010122,3.0101576,-10.6615925,-1.8329444
0.7526063,-0.20360823,-0.5822784,2.9163296,-10.329267,-1.7758108
0.7291493,-0.19726223,-0.56413007,2.8254344,-10.007327,-1.7204629
0.7064252,-0.19111452,-0.54654884,2.737379,-9.695447,-1.6668444
0.684411,-0.18515885,-0.5295169,2.6520746,-9.39331,-1.6149007
0.66308427,-0.17938918,-0.51301676,2.5694344,-9.100608,-1.5645795
0.64242357,-0.17379968,-0.49703193,2.4893746,-8.817046,-1.5158294
0.62240785,-0.16838467,-0.4815461,2.4118142,-8.542337,-1.4686013
0.60301685,-0.16313869,-0.46654364,2.3366747,-8.276203,-1.4228474
0.5842311,-0.15805641,-0.45200938,2.26388,-8.0183735,-1.3785214
0.5660314,-0.15313274,-0.43792865,2.193357,-7.76859,-1.3355784
0.54839957,-0.14836267,-0.4242872,2.125034,-7.526599,-1.2939754
0.5313178,-0.14374138,-0.4110713,2.0588424,-7.2921567,-1.25367
0.5147687,-0.13926426,-0.3982676,1.9947155,-7.0650268,-1.2146217
0.4987358,-0.13492674,-0.38586318,1.9325882,-6.8449802,-1.1767912
0.4832028,-0.13072449,-0.37384558,1.8723983,-6.631795,-1.1401403
0.4681541,-0.12665325,-0.36220267,1.814085,-6.4252567,-1.1046323
0.45357457,-0.12270894,-0.35092273,1.7575897,-6.2251577,-1.0702311
0.43944952,-0.11888758,-0.33999443,1.7028555,-6.0312963,-1.0369024
0.42576477,-0.115185335,-0.32940677,1.6498274,-5.8434772,-1.0046126
0.4125065,-0.111598484,-0.3191491,1.598452,-5.6615124,-0.973329
0.39966145,-0.108123414,-0.3092111,1.5486777,-5.4852185,-0.94302046
0.38721666,-0.10475664,-0.2995828,1.5004545,-5.314418,-0.9136565
0.37515968,-0.10149477,-0.2902545,1.453734,-5.14894,-0.8852074
0.36347836,-0.098334536,-0.2812169,1.4084692,-4.988618,-0.85764474
0.352161,-0.09527276,-0.27246082,1.3646147,-4.8332906,-0.8309409
0.3411962,-0.092306376,-0.26397756,1.3221264,-4.6828027,-0.80506897
0.33057302,-0.0894324,-0.25575858,1.2809619,-4.537003,-0.780003
0.32028073,-0.08664796,-0.24779564,1.2410796,-4.395745,-0.7557179
0.31030908,-0.083950244,-0.24008073,1.2024395,-4.2588873,-0.73218924
0.300648,-0.081336565,-0.23260613,1.1650032,-4.126292,-0.7093935
0.29128784,-0.07880429,-0.22536434,1.1287328,-3.9978273,-0.6873078
0.28221923,-0.07635089,-0.2183481,1.0935922,-3.8733635,-0.6659099
0.27343303,-0.073973894,-0.21155037,1.0595459,-3.752776,-0.64517844
0.26492047,-0.07167093,-0.20496435,1.02656,-3.6359441,-0.6250927
0.256673,-0.06943968,-0.19858345,0.9946013,-3.5227506,-0.6056324
0.24868241,-0.06727792,-0.19240125,0.9636378,-3.4130821,-0.58677816
0.24094063,-0.065183476,-0.18641156,0.93363863,-3.3068287,-0.56851107
0.23343992,-0.06315426,-0.18060839,0.9045736,-3.2038841,-0.5508128
0.22617278,-0.06118822,-0.17498595,0.87641364,-3.104145,-0.5336656
0.21913192,-0.059283406,-0.16953854,0.84913045,-3.0075116,-0.51705235
0.2123103,-0.0574379,-0.16426077,0.82269686,-2.913887,-0.5009564
0.20570108,-0.055649858,-0.15914734,0.7970863,-2.8231778,-0.48536164
0.19929765,-0.05391749,-0.15419312,0.7722732,-2.735293,-0.47025242
0.1930936,-0.05223906,-0.14939314,0.74823266,-2.6501443,-0.45561364
0.1870827,-0.05061289,-0.14474262,0.7249406,-2.5676467,-0.44143066
0.18125895,-0.049037345,-0.1402369,0.70237374,-2.4877179,-0.42768925
0.17561652,-0.04751086,-0.13587144,0.68050945,-2.4102774,-0.41437566
0.17014976,-0.046031892,-0.13164191,0.6593259,-2.335248,-0.4014766
0.1648532,-0.044598974,-0.12754405,0.6388019,-2.2625544,-0.38897908
0.15972154,-0.043210667,-0.12357377,0.6189168,-2.1921241,-0.37687066
0.15474963,-0.04186558,-0.1197271,0.5996508,-2.1238863,-0.36513922
0.14993252,-0.04056237,-0.116000175,0.5809846,-2.057773,-0.353773
0.14526536,-0.03929973,-0.11238928,0.5628995,-1.993718,-0.34276062
0.14074351,-0.038076397,-0.108890794,0.54537743,-1.9316571,-0.3320911
0.13636242,-0.036891147,-0.10550123,0.5284008,-1.871528,-0.3217537
0.13211772,-0.035742797,-0.102217175,0.5119527,-1.813271,-0.31173813
0.12800516,-0.034630198,-0.09903536,0.49601665,-1.7568275,-0.30203435
0.12402062,-0.03355223,-0.09595259,0.4805767,-1.7021412,-0.29263264
0.120160125,-0.032507822,-0.0929658,0.46561736,-1.6491572,-0.28352362
0.116419815,-0.031495925,-0.09007198,0.45112374,-1.5978225,-0.27469817
0.11279593,-0.030515531,-0.08726825,0.43708128,-1.548086,-0.26614743
0.109284855,-0.029565653,-0.08455179,0.42347598,-1.4998977,-0.2578629
0.105883084,-0.028645346,-0.08191989,0.41029418,-1.4532095,-0.24983625
0.1025872,-0.027753687,-0.07936993,0.39752275,-1.4079747,-0.24205945
0.09939392,-0.026889784,-0.07689934,0.38514885,-1.364148,-0.23452476
0.09630004,-0.026052773,-0.074505664,0.37316015,-1.3216856,-0.2272246
