ax,ay,az,gx,gy,gz
2.9663906,3.8582168,0.048182257,4.5500417,75.296135,61.368736
3.6437407,4.281693,0.2534527,4.795879,91.24294,43.819153
3.7743833,4.5264287,0.11596087,2.3385642,99.44976,32.755196
3.7042744,4.6565614,-0.09627776,0.4064043,104.912704,23.556011
3.464294,4.840539,-0.31701046,-3.7683153,108.55092,15.716969
3.0644217,4.9106174,-0.60827094,-9.144534,109.808495,7.499903
2.6017826,4.819612,-0.8718495,-16.237146,109.25007,-0.36535382
2.080046,4.557899,-1.1820112,-22.196571,108.015526,-6.9692917
1.5319676,4.2295165,-1.5209721,-26.60414,105.58146,-12.60851
0.97565585,3.8683326,-1.8291334,-30.360397,101.77094,-17.678556
0.4418735,3.4762657,-2.1285346,-33.73394,97.12873,-22.542437
-0.081409946,3.0444431,-2.426234,-36.296402,90.7274,-27.273241
-0.64991724,2.5652528,-2.7361386,-38.064358,82.75442,-31.707066
-1.1939025,2.0673497,-3.028988,-38.941185,73.15105,-35.979916
-1.7180423,1.5315274,-3.3016596,-38.67359,61.809372,-39.947468
-2.1956294,0.93609357,-3.544324,-38.315777,49.083405,-43.024178
-2.5738363,0.27477533,-3.750117,-36.717857,34.398064,-44.452652
-2.6972365,-0.40464604,-3.8785353,-33.716583,20.066774,-43.7406
-2.570313,-0.99007773,-3.9048154,-28.592533,7.7662416,-41.150448
-2.258506,-1.371038,-3.8412852,-22.274818,-1.768373,-36.60417
-1.8620229,-1.4562594,-3.7081685,-16.968401,-8.144211,-31.878988
-1.4820505,-1.3332561,-3.5313554,-12.1286,-12.646873,-29.179388
-1.0481998,-1.0126798,-3.2527223,-8.195501,-15.4671955,-27.449802
-0.589889,-0.5747676,-2.9080472,-5.436995,-15.989531,-25.564554
-0.19054985,-0.06436837,-2.570962,-4.3435836,-15.315766,-23.100988
0.10423665,0.44519266,-2.2716799,-5.255761,-14.217402,-20.51944
0.31909546,0.90045327,-2.0159853,-7.9322295,-12.736262,-18.397291
0.45919317,1.2528882,-1.829154,-11.187345,-10.983393,-16.988867
0.52946514,1.5131712,-1.6970273,-14.587741,-9.070047,-16.83815
0.5333705,1.6872141,-1.6177244,-17.9957,-7.1313944,-17.969301
0.4849411,1.7746736,-1.5929283,-21.30493,-5.468528,-19.884314
0.40389085,1.7756634,-1.6200302,-24.48857,-4.5158935,-22.331059
0.28315285,1.6496518,-1.7022715,-27.316647,-4.1031246,-24.97434
0.121707514,1.4245489,-1.8162179,-29.465416,-4.436874,-27.672377
-0.07292299,1.1348948,-1.948249,-30.869213,-5.6132736,-30.101036
-0.293778,0.8252463,-2.0979898,-31.524483,-7.7878804,-31.903364
-0.53134865,0.52833146,-2.25518,-31.63415,-11.643988,-32.802048
-0.7586291,0.27449182,-2.4089196,-31.398554,-16.671762,-33.330254
-0.90797204,0.040853344,-2.533493,-30.662308,-22.747637,-33.900696
-0.9151765,-0.15081893,-2.5928943,-29.15725,-29.033045,-34.214405
-0.78207815,-0.24047068,-2.583919,-27.33921,-34.730656,-33.936913
-0.55149627,-0.2565599,-2.5128615,-26.041065,-38.726234,-33.28223
-0.29313585,-0.29081973,-2.3959453,-24.468285,-41.401295,-32.96037
-0.04398075,-0.35329002,-2.2736294,-22.13711,-43.122795,-33.210037
0.2231807,-0.4486224,-2.138609,-19.070045,-43.905704,-33.56442
0.2154252,-0.43303284,-2.0642924,-18.407362,-42.379986,-32.39806
0.20798957,-0.4180863,-1.9930414,-17.772015,-40.9172,-31.27981
0.20085599,-0.40374684,-1.9246843,-17.162474,-39.51383,-30.20698
0.19400793,-0.38998133,-1.8590634,-16.57733,-38.16663,-29.177092
0.18743017,-0.3767592,-1.7960328,-16.015282,-36.87261,-28.187857
0.18110867,-0.36405215,-1.7354574,-15.47513,-35.628994,-27.237156
0.17503034,-0.3518339,-1.6772124,-14.955758,-34.433224,-26.323029
0.16918308,-0.3400801,-1.6211815,-14.456128,-33.282906,-25.443651
0.16355559,-0.32876813,-1.5672566,-13.975278,-32.175827,-24.597326
0.15813738,-0.31787682,-1.5153371,-13.51231,-31.109917,-23.782475
0.15291862,-0.30738646,-1.4653288,-13.066385,-30.083246,-22.99762
0.14789015,-0.29727855,-1.417144,-12.636719,-29.09401,-22.241383
0.14304337,-0.2875359,-1.3707001,-12.222578,-28.140516,-21.512468
0.13837022,-0.27814224,-1.32592,-11.823272,-27.221178,-20.809666
0.1338631,-0.26908237,-1.282731,-11.438155,-26.334509,-20.131838
0.12951492,-0.26034194,-1.241065,-11.066618,-25.479103,-19.47791
0.12531896,-0.25190753,-1.2008576,-10.708086,-24.653643,-18.846872
0.121268876,-0.24376632,-1.1620481,-10.3620205,-23.856882,-18.237776
0.1173587,-0.23590635,-1.1245791,-10.027908,-23.087643,-17.64972
0.11358277,-0.22831623,-1.0883965,-9.705268,-22.344814,-17.081852
0.10993572,-0.2209852,-1.0534492,-9.3936405,-21.627344,-16.53337
0.10641251,-0.21390307,-1.0196882,-9.092593,-20.93423,-16.003508
0.103008285,-0.20706014,-0.9870676,-8.801714,-20.264528,-15.491543
0.099718496,-0.20044723,-0.95554346,-8.520612,-19.617336,-14.996788
0.09653878,-0.19405559,-0.92507416,-8.248917,-18.9918,-14.518587
0.09346501,-0.18787691,-0.89562,-7.986273,-18.387106,-14.056318
0.09049323,-0.18190324,-0.8671432,-7.7323446,-17.802477,-13.609389
0.08761969,-0.17612705,-0.8396078,-7.4868097,-17.237173,-13.177234
0.0848408,-0.17054111,-0.8129793,-7.2493625,-16.690489,-12.759313
0.08215313,-0.16513854,-0.7872249,-7.01971,-16.16175,-12.35511
0.0795534,-0.15991275,-0.76231325,-6.797572,-15.650314,-11.964134
0.07703849,-0.15485744,-0.7382143,-6.582681,-15.155563,-11.585913
0.07460539,-0.1499666,-0.7148994,-6.374781,-14.676907,-11.219996
0.07225124,-0.14523445,-0.69234097,-6.173627,-14.21378,-10.8659525
0.069973275,-0.14065544,-0.67051256,-5.9789824,-13.765644,-10.523367
0.067768864,-0.1362243,-0.649389,-5.790623,-13.331977,-10.191843
0.06563548,-0.13193591,-0.62894607,-5.608332,-12.912281,-9.871
0.06357068,-0.12778538,-0.6091603,-5.4319024,-12.50608,-9.560473
0.06157214,-0.123768054,-0.59000945,-5.261133,-12.112912,-9.25991
0.059637606,-0.119879395,-0.5714719,-5.0958343,-11.732337,-8.968973
0.057764925,-0.11611506,-0.5535272,-4.93582,-11.36393,-8.687339
0.055952027,-0.112470895,-0.5361552,-4.780914,-11.007283,-8.414694
0.05419691,-0.10894288,-0.519337,-4.6309447,-10.6620035,-8.15074
0.05249765,-0.10552715,-0.50305396,-4.485749,-10.327714,-7.8951864
0.050852403,-0.102219984,-0.48728853,-4.3451676,-10.004048,-7.6477556
0.04925938,-0.0990178,-0.47202355,-4.209049,-9.690658,-7.408179
0.047716867,-0.09591715,-0.45724255,-4.0772467,-9.387203,-7.1761985
0.046223205,-0.09291469,-0.44292966,-3.9496183,-9.09336,-6.951565
0.044776797,-0.09000722,-0.4290696,-3.8260276,-8.808812,-6.7340374
0.043376103,-0.08719165,-0.4156476,-3.7063432,-8.5332575,-6.523386
0.04201964,-0.08446498,-0.4026494,-3.590438,-8.266404,-6.3193855
0.04070597,-0.08182433,-0.3900613,-3.4781892,-8.00797,-6.1218214
0.039433714,-0.07926693,-0.37787,-3.369479,-7.7576823,-5.930485
0.03820153,-0.07679008,-0.3660627,-3.264193,-7.5152783,-5.7451754
0.03700813,-0.074391186,-0.35462707,-3.162221,-7.280504,-5.565698
0.03585227,-0.07206775,-0.34355113,-3.0634565,-7.053115,-5.3918667
0.03473274,-0.06981736,-0.33282334,-2.9677966,-6.8328733,-5.2235
0.033648383,-0.06763765,-0.32243258,-2.8751419,-6.6195507,-5.0604215
0.03259807,-0.06552639,-0.31236807,-2.785396,-6.4129257,-4.902464
0.03158072,-0.06348138,-0.3026194,-2.698467,-6.2127852,-4.749463
0.030595277,-0.061500512,-0.29317647,-2.6142642,-6.018922,-4.6012616
0.02964073,-0.05958175,-0.2840296,-2.5327013,-5.8311367,-4.457706
0.028716095,-0.057723112,-0.2751694,-2.4536943,-5.649236,-4.3186493
0.027820425,-0.055922695,-0.2665867,-2.3771622,-5.4730334,-4.183948
0.0269528,-0.054178655,-0.25827277,-2.3030267,-5.3023477,-4.053465
0.026112331,-0.052489206,-0.25021905,-2.2312114,-5.137005,-3.9270656
0.025298161,-0.050852615,-0.24241735,-2.1616433,-4.9768357,-3.8046217
0.02450946,-0.04926722,-0.23485968,-2.0942514,-4.8216763,-3.6860077
0.02374542,-0.047731403,-0.22753833,-2.0289667,-4.671369,-3.5711029
0.023005266,-0.046243597,-0.22044589,-1.9657232,-4.5257607,-3.4597902
0.022288244,-0.04480229,-0.2135751,-1.904456,-4.384703,-3.3519566
0.021593627,-0.043406017,-0.20691898,-1.8451033,-4.248053,-3.2474923
0.020920709,-0.042053364,-0.20047079,-1.7876046,-4.1156716,-3.1462913
0.020268805,-0.040742952,-0.194224,-1.7319018,-3.9874246,-3.0482507
0.019637259,-0.039473463,-0.18817227,-1.6779382,-3.8631823,-2.9532716
0.01902543,-0.038243603,-0.18230946,-1.6256593,-3.7428188,-2.8612578
0.018432697,-0.037052132,-0.17662965,-1.5750123,-3.6262121,-2.772116
0.017858462,-0.035897847,-0.1711271,-1.5259459,-3.5132446,-2.6857562
0.017302146,-0.03477958,-0.16579625,-1.4784105,-3.403802,-2.602091
0.016763184,-0.033696197,-0.1606317,-1.4323581,-3.2977738,-2.5210361
0.016241036,-0.03264661,-0.15562826,-1.3877424,-3.195053,-2.4425097
0.015735175,-0.031629764,-0.15078089,-1.3445181,-3.0955362,-2.3664324
0.015245088,-0.030644624,-0.14608468,-1.3026419,-2.999123,-2.2927277
0.014770284,-0.029690206,-0.14153491,-1.2620715,-2.9057162,-2.2213213
0.0143102845,-0.028765544,-0.137127,-1.2227659,-2.8152215,-2.1521413
0.013864625,-0.02786971,-0.13285652,-1.1846858,-2.7275484,-2.085118
0.013432858,-0.027001804,-0.12871915,-1.1477928,-2.642608,-2.020184
0.013014549,-0.026160948,-0.12471074,-1.1120497,-2.5603154,-1.9572741
0.012609278,-0.0253463,-0.120827265,-1.0774207,-2.4805875,-1.8963249
0.012216637,-0.024557041,-0.11706482,-1.0438708,-2.4033444,-1.8372751
0.011836232,-0.023792377,-0.11341962,-1.0113665,-2.3285084,-1.7800655
0.01146768,-0.02305154,-0.10988801,-0.97987497,-2.2560043,-1.7246386
0.011110612,-0.022333786,-0.106466435,-0.94936466,-2.1857593,-1.6709387
0.010764669,-0.021638393,-0.10315146,-0.919805,-2.1177027,-1.6189119
0.010429503,-0.020964667,-0.09993977,-0.8911662,-2.0517666,-1.5685059
0.010104779,-0.02031193,-0.09682813,-0.8634196,-1.9878845,-1.5196702
0.00979017,-0.019679524,-0.09381343,-0.83653736,-1.9259925,-1.4723558
0.009485362,-0.01906682,-0.09089262,-0.81049246,-1.8660283,-1.4265152
0.009190047,-0.018473199,-0.0880628,-0.7852588,-1.8079319,-1.3821026
0.008903931,-0.017898068,-0.08532111,-0.76081115,-1.7516451,-1.3390732
0.008626726,-0.017340848,-0.082664825,-0.7371249,-1.6971114,-1.297384
0.008358154,-0.016800985,-0.08009126,-0.71417636,-1.644276,-1.2569932
0.008097948,-0.016277935,-0.07759785,-0.6919426,-1.5930862,-1.2178603
0.007845843,-0.015771173,-0.07518209,-0.6704011,-1.5434905,-1.1799461
0.007601591,-0.015280193,-0.072841555,-0.64953053,-1.4954394,-1.1432126
0.007364944,-0.014804502,-0.07057391,-0.62930983,-1.4488846,-1.107623
0.0071356664,-0.014343624,-0.06837688,-0.60971886,-1.4037794,-1.0731417
0.0069135283,-0.013897098,-0.06624826,-0.5907379,-1.3600788,-1.039734
0.006698307,-0.013464475,-0.064185925,-0.572348,-1.317739,-1.0073667
0.0064897877,-0.013045323,-0.062187802,-0.5545307,-1.2767175,-0.97600716
0.0062877606,-0.012639222,-0.060251895,-0.5372681,-1.2369733,-0.94562405
0.006092024,-0.012245766,-0.058376268,-0.5205431,-1.1984665,-0.916187
0.0059023816,-0.01186456,-0.056559037,-0.5043388,-1.1611588,-0.88766646
0.005718644,-0.011495222,-0.054798387,-0.488639,-1.1250125,-0.86003387
0.0055406266,-0.011137385,-0.053092554,-0.47342804,-1.0899918,-0.83326167
0.0053681517,-0.010790688,-0.05143983,-0.45869064,-1.0560613,-0.807323
0.005201047,-0.010454785,-0.04983856,-0.44441208,-1.0231872,-0.7821919
0.0050391443,-0.01012934,-0.048287146,-0.43057805,-0.9913366,-0.75784314
0.0048822826,-0.009814027,-0.04678403,-0.41717473,-0.9604776,-0.73425245
0.004730304,-0.009508531,-0.045327708,-0.40418866,-0.93057925,-0.7113962
0.004583057,-0.009212544,-0.04391673,-0.3916069,-0.90161175,-0.68925154
0.0044403938,-0.008925773,-0.042549673,-0.37941682,-0.87354606,-0.6677963
0.004302172,-0.008647929,-0.041225176,-0.36760622,-0.8463541,-0.64700896
0.0041682534,-0.008378735,-0.03994191,-0.35616332,-0.82000864,-0.6268688
0.004038504,-0.008117921,-0.038698595,-0.34507665,-0.79448336,-0.60735554
0.003912793,-0.007865227,-0.037493985,-0.3343351,-0.7697527,-0.5884498
0.003790996,-0.0076203984,-0.036326878,-0.32392794,-0.7457919,-0.57013255
0.0036729905,-0.007383192,-0.0351961,-0.31384477,-0.722577,-0.55238557
0.0035586585,-0.0071533695,-0.034100525,-0.30407548,-0.7000848,-0.53519106
0.0034478856,-0.0069307014,-0.033039052,-0.2946103,-0.67829275,-0.51853174
0.003340561,-0.006714965,-0.032010622,-0.2854398,-0.6571791,-0.5023911
0.0032365774,-0.0065059443,-0.03101421,-0.27655473,-0.6367227,-0.48675287
0.0031358306,-0.00630343,-0.030048814,-0.26794624,-0.61690307,-0.47160146
0.00303822,-0.0061072204,-0.02911347,-0.25960577,-0.5977004,-0.45692167
0.002943648,-0.005917118,-0.028207242,-0.2515249,-0.57909554,-0.44269887
