ax,ay,az,gx,gy,gz
1.5881963,2.4582043,0.6700061,-39.839455,45.55496,42.724934
2.2222803,2.529577,1.3928035,-30.192211,53.279938,36.937798
2.8604424,2.777582,1.9277067,-18.423086,61.743027,29.87281
3.3785918,3.2127073,2.2594929,-9.774012,71.506195,22.873562
3.649576,3.5012293,2.344238,-4.2568874,81.12156,15.108993
3.588084,3.5735104,2.1669588,0.4777604,85.88808,8.649095
3.529411,3.6221075,2.065914,2.360938,89.75426,2.4752715
3.4725585,3.6522539,1.9951749,2.9079685,93.55448,-2.997754
3.370526,3.6838167,1.8800318,0.92040604,96.877045,-7.745388
3.2084982,3.6775196,1.7114328,-2.5246937,98.95235,-12.098379
2.895793,3.6424928,1.433059,-5.312254,98.64926,-16.38397
2.4945955,3.5892076,1.1327239,-7.9465375,96.15011,-20.835506
2.036477,3.5258596,0.81865406,-11.111304,91.67144,-25.956657
1.5843515,3.4030507,0.52837276,-15.262443,85.26595,-31.197304
1.1506127,3.2314703,0.2667041,-20.478855,76.826035,-35.770473
0.70776916,2.953809,-0.0056207622,-25.368359,67.39913,-39.71867
0.27244055,2.5655284,-0.27879146,-29.153477,57.603172,-43.557686
-0.16121128,2.053979,-0.54778755,-30.695038,47.699486,-47.331966
-0.5748609,1.4652582,-0.7938944,-29.305708,37.760883,-50.53143
-0.9069086,0.87178934,-0.9778277,-24.22164,28.092012,-51.406803
-1.0307187,0.3963007,-1.0546241,-17.574171,19.258858,-49.25124
-0.95787346,0.13286892,-1.0435901,-11.128769,11.411543,-43.863754
-0.7424628,0.1889402,-0.9437894,-7.5801272,4.923485,-36.012146
-0.46116242,0.45423427,-0.7963128,-8.004938,-0.22200832,-29.033075
-0.177425,0.6836993,-0.6227812,-8.895221,-3.8786056,-26.30684
0.15164532,0.8149181,-0.3692423,-8.515672,-5.3699665,-25.884296
0.48697835,0.9409077,-0.10226555,-7.3187757,-4.858865,-26.1259
0.7843438,1.0961503,0.13025193,-6.9188523,-3.0444105,-25.846449
0.99990684,1.254619,0.29978365,-7.220177,-0.55822796,-24.89898
1.1200662,1.4064436,0.39458343,-8.087508,1.693503,-23.830116
1.1549348,1.525576,0.43253675,-9.501765,3.7669199,-23.42205
1.138906,1.5966771,0.44240236,-11.245954,5.8909755,-23.859781
1.0714749,1.6070954,0.41893414,-12.908773,7.865836,-24.78575
0.95214003,1.5680814,0.35719025,-14.013915,9.395753,-25.79565
0.77318215,1.491767,0.26230854,-14.477067,10.047728,-26.68301
0.5054327,1.3643982,0.12430727,-14.095506,9.585653,-27.688011
0.20597675,1.2226628,-0.0299061,-13.253031,7.902647,-28.70687
-0.089630984,1.0753943,-0.19920252,-12.276475,4.986487,-29.502176
-0.36657447,0.9408688,-0.37734807,-10.907107,0.5867435,-29.90282
-0.6052912,0.8770664,-0.56828165,-9.794115,-6.627778,-29.557062
-0.7242162,0.9059561,-0.72927797,-10.893568,-16.239191,-29.249311
-0.67198026,0.90039766,-0.7954501,-13.576702,-26.713135,-29.555351
-0.44098374,0.82567215,-0.72122055,-16.538355,-36.092167,-29.876055
-0.42543006,0.79655033,-0.6957828,-15.95504,-34.81918,-28.822313
-0.4105396,0.7686703,-0.67142975,-15.396599,-33.600475,-27.813505
-0.3962734,0.7419591,-0.64809763,-14.861568,-32.43286,-26.846989
-0.38259563,0.71634966,-0.6257279,-14.348607,-31.31341,-25.92034
-0.36947343,0.6917804,-0.60426676,-13.856482,-30.239428,-25.031326
-0.35687646,0.6681946,-0.5836647,-13.384053,-29.208433,-24.1779
-0.34477675,0.64553976,-0.5638758,-12.930273,-28.218136,-23.35816
-0.33314836,0.6237675,-0.5448578,-12.49417,-27.266415,-22.570353
-0.3219673,0.60283273,-0.5265714,-12.074843,-26.351305,-21.81285
-0.3112113,0.5826938,-0.50898015,-11.671457,-25.470982,-21.084145
-0.30085957,0.5633118,-0.4920501,-11.283233,-24.623749,-20.38283
-0.29089278,0.5446506,-0.47574964,-10.909446,-23.808022,-19.707594
-0.28129292,0.5266764,-0.46004924,-10.549419,-23.022324,-19.057217
-0.27204308,0.5093575,-0.4449213,-10.202519,-22.265274,-18.430552
-0.26312745,0.49266443,-0.43033996,-9.868154,-21.535578,-17.82653
-0.2545312,0.47656932,-0.41628096,-9.545766,-20.83202,-17.244146
-0.2462404,0.46104613,-0.40272152,-9.234834,-20.153463,-16.682455
-0.23824196,0.44607028,-0.3896402,-8.934865,-19.498833,-16.140572
-0.23052351,0.43161872,-0.3770168,-8.645397,-18.867119,-15.617657
-0.22307341,0.41766956,-0.3648323,-8.3659935,-18.257368,-15.112923
-0.21588065,0.40420228,-0.3530687,-8.096242,-17.668678,-14.625623
-0.20893484,0.39119735,-0.341709,-7.8357506,-17.100203,-14.155054
-0.20222613,0.37863636,-0.33073702,-7.5841517,-16.55113,-13.700548
-0.19574519,0.36650184,-0.32013756,-7.341095,-16.020699,-13.261473
-0.18948315,0.35477716,-0.3098961,-7.1062474,-15.508184,-12.837228
-0.1834316,0.34344658,-0.2999989,-6.8792944,-15.0128975,-12.427243
-0.17758253,0.33249515,-0.29043287,-6.659935,-14.534183,-12.030977
-0.17192835,0.32190856,-0.28118557,-6.447884,-14.071418,-11.647914
-0.16646178,0.31167328,-0.27224508,-6.24287,-13.624008,-11.277561
-0.16117592,0.30177635,-0.26360017,-6.0446324,-13.191388,-10.919452
-0.15606415,0.2922054,-0.25523996,-5.8529243,-12.773019,-10.573136
-0.1511202,0.2829486,-0.24715422,-5.6675096,-12.3683815,-10.23819
-0.14633802,0.27399474,-0.23933306,-5.488162,-11.976986,-9.914204
-0.14171186,0.26533297,-0.23176704,-5.3146653,-11.598359,-9.600787
-0.13723618,0.256953,-0.22444718,-5.146813,-11.232049,-9.297566
-0.13290574,0.2488449,-0.2173648,-4.9844065,-10.8776245,-9.004185
-0.12871544,0.24099925,-0.21051165,-4.8272567,-10.534672,-8.720298
-0.12466044,0.2334069,-0.20387979,-4.675181,-10.202791,-8.445577
-0.120736085,0.22605918,-0.19746158,-4.528004,-9.881604,-8.179708
-0.1169379,0.21894768,-0.19124971,-4.38556,-9.570743,-7.922385
-0.113261595,0.21206437,-0.18523718,-4.247686,-9.269856,-7.6733203
-0.109703034,0.20540152,-0.17941722,-4.1142282,-8.978607,-7.4322324
-0.10625825,0.19895172,-0.17378335,-3.9850373,-8.696671,-7.198853
-0.10292343,0.1927078,-0.16832931,-3.8599706,-8.423734,-6.9729238
-0.0996949,0.1866629,-0.16304912,-3.73889,-8.159495,-6.754195
-0.09656913,0.18081038,-0.15793698,-3.621663,-7.9036674,-6.542428
-0.0935427,0.17514387,-0.15298732,-3.508162,-7.6559706,-6.337392
-0.090612344,0.16965725,-0.14819477,-3.398264,-7.4161367,-6.1388645
-0.0877749,0.16434458,-0.14355418,-3.2918503,-7.183907,-5.946631
-0.085027315,0.15920016,-0.13906056,-3.1888068,-6.959032,-5.760486
-0.08236666,0.15421851,-0.1347091,-3.0890234,-6.7412715,-5.58023
-0.07979009,0.1493943,-0.13049519,-2.9923935,-6.530393,-5.405671
-0.077294886,0.14472242,-0.12641433,-2.8988152,-6.326174,-5.2366242
-0.0748784,0.14019793,-0.122462206,-2.8081887,-6.1283975,-5.072911
-0.07253809,0.13581607,-0.11863467,-2.7204194,-5.9368553,-4.9143577
-0.07027149,0.13157223,-0.114927694,-2.6354146,-5.7513466,-4.760799
-0.068076245,0.12746197,-0.1113374,-2.5530853,-5.571677,-4.612074
-0.06595004,0.12348099,-0.10786004,-2.4733455,-5.397659,-4.468026
-0.06389067,0.11962516,-0.10449199,-2.3961124,-5.2291107,-4.328507
-0.061896004,0.11589045,-0.10122974,-2.3213058,-5.0658574,-4.193371
-0.059963964,0.112273015,-0.09806992,-2.2488477,-4.90773,-4.0624776
-0.05809255,0.10876909,-0.09500927,-2.1786637,-4.7545652,-3.935692
-0.056279838,0.10537507,-0.09204461,-2.1106808,-4.606204,-3.8128831
-0.054523952,0.10208745,-0.08917289,-2.0448294,-4.4624944,-3.6939242
-0.052823093,0.098902866,-0.086391166,-1.9810414,-4.323288,-3.5786934
-0.051175512,0.09581803,-0.08369658,-1.9192517,-4.188442,-3.467072
-0.04957952,0.092829786,-0.08108636,-1.8593967,-4.057819,-3.3589456
-0.048033483,0.08993508,-0.07855785,-1.8014152,-3.9312842,-3.2542038
-0.046535823,0.08713095,-0.076108456,-1.745248,-3.8087087,-3.1527393
-0.04508501,0.08441453,-0.07373568,-1.6908376,-3.6899674,-3.0544486
-0.04367956,0.081783056,-0.0714371,-1.6381288,-3.574939,-2.9592316
-0.042318054,0.07923385,-0.06921037,-1.5870676,-3.463507,-2.866991
-0.040999096,0.07676431,-0.06705324,-1.5376024,-3.3555572,-2.7776337
-0.03972135,0.074371934,-0.06496352,-1.4896827,-3.2509806,-2.6910682
-0.038483523,0.0720543,-0.06293907,-1.44326,-3.1496708,-2.6072068
-0.037284352,0.069809034,-0.06097785,-1.398287,-3.051525,-2.5259647
-0.036122628,0.06763389,-0.05907787,-1.3547184,-2.956444,-2.4472592
-0.03499717,0.06552665,-0.057237204,-1.31251,-2.8643315,-2.371011
-0.03390684,0.06348518,-0.055453993,-1.2716191,-2.7750938,-2.2971427
-0.032850537,0.061507422,-0.05372643,-1.2320043,-2.6886413,-2.2255797
-0.031827196,0.05959138,-0.052052777,-1.1936256,-2.6048863,-2.1562498
-0.030835783,0.05773511,-0.050431337,-1.1564443,-2.523744,-2.0890827
-0.029875295,0.05593675,-0.04886048,-1.1204228,-2.4451334,-2.024011
-0.028944764,0.05419448,-0.047338612,-1.0855248,-2.3689744,-1.9609687
-0.028043253,0.052506544,-0.04586421,-1.0517151,-2.2951906,-1.8998926
-0.027169853,0.05087124,-0.04443578,-1.0189598,-2.2237074,-1.8407209
-0.026323685,0.049286928,-0.043051887,-0.98722565,-2.154453,-1.7833942
-0.025503898,0.047752004,-0.04171114,-0.9564809,-2.0873578,-1.7278547
-0.024709664,0.046264928,-0.040412188,-0.9266945,-2.0223541,-1.6740465
-0.023940189,0.044824205,-0.039153725,-0.8978366,-1.9593766,-1.6219155
-0.023194695,0.043428387,-0.037934482,-0.8698781,-1.8983619,-1.5714093
-0.022472434,0.04207607,-0.03675324,-0.84279096,-1.8392488,-1.5224771
-0.02177268,0.040765893,-0.035608806,-0.8165479,-1.7819777,-1.4750698
-0.021094732,0.03949654,-0.034500033,-0.79112256,-1.7264912,-1.4291397
-0.020437907,0.03826674,-0.033425808,-0.76648945,-1.6727335,-1.3846407
-0.019801546,0.037075255,-0.032385055,-0.7426238,-1.6206509,-1.341528
-0.019185012,0.035920892,-0.031376723,-0.7195017,-1.5701908,-1.2997587
-0.018587682,0.03480249,-0.030399803,-0.69709986,-1.5213026,-1.2592905
-0.018008962,0.033718925,-0.029453317,-0.6753959,-1.4739374,-1.2200829
-0.017448269,0.032669116,-0.028536312,-0.65436804,-1.4280477,-1.1820967
-0.01690504,0.031652007,-0.027647872,-0.6339951,-1.3835872,-1.1452936
-0.01637873,0.030666575,-0.026787102,-0.6142568,-1.3405117,-1.1096369
-0.015868813,0.029711837,-0.025953144,-0.5951332,-1.2987777,-1.0750908
-0.015374778,0.028786832,-0.025145156,-0.57660526,-1.2583435,-1.0416205
-0.014896127,0.027890638,-0.024362335,-0.55865425,-1.2191685,-1.0091926
-0.014432385,0.02702235,-0.02360389,-0.5412623,-1.1812136,-0.97777456
-0.013983082,0.026181106,-0.022869065,-0.52441204,-1.1444407,-0.947335
-0.013547773,0.025366055,-0.022157125,-0.50808644,-1.1088128,-0.91784334
-0.0131260175,0.024576386,-0.021467352,-0.49226928,-1.0742944,-0.88927
-0.012717396,0.023811307,-0.02079906,-0.4769446,-1.040851,-0.86158645
-0.012321497,0.02307005,-0.020151576,-0.4620971,-1.0084488,-0.83476484
-0.0119379265,0.022351876,-0.019524254,-0.4477119,-0.9770556,-0.80877846
-0.011566299,0.02165606,-0.018916463,-0.43377465,-0.94663984,-0.7836012
-0.011206243,0.020981913,-0.018327598,-0.42027134,-0.9171712,-0.75920784
-0.010857397,0.020328755,-0.017757067,-0.40718845,-0.88861996,-0.735574
-0.010519412,0.019695932,-0.0172043,-0.39451292,-0.86095774,-0.712676
-0.010191951,0.019082813,-0.016668743,-0.382232,-0.83415675,-0.69049096
-0.009874685,0.018488782,-0.01614986,-0.37033346,-0.8081902,-0.6689966
-0.009567296,0.017913245,-0.01564713,-0.3588054,-0.7830321,-0.6481714
-0.009269477,0.017355626,-0.015160054,-0.3476362,-0.7586572,-0.6279946
-0.008980931,0.016815368,-0.014688142,-0.33681473,-0.7350412,-0.60844594
-0.008701366,0.01629193,-0.01423092,-0.32633016,-0.7121604,-0.58950585
-0.008430507,0.015784787,-0.013787934,-0.316172,-0.68999195,-0.5711555
-0.008168079,0.015293432,-0.013358738,-0.30633008,-0.66851366,-0.5533763
-0.00791382,0.014817375,-0.012942904,-0.29679456,-0.647704,-0.5361507
-0.007667478,0.014356137,-0.012540015,-0.2875559,-0.62754214,-0.51946133
-0.0074288044,0.013909258,-0.012149668,-0.27860484,-0.60800797,-0.5032915
-0.0071975603,0.013476291,-0.011771474,-0.26993242,-0.5890819,-0.48762503
-0.0069735153,0.013056802,-0.011405053,-0.26152998,-0.570745,-0.47244626
-0.006756445,0.0126503715,-0.011050037,-0.25338912,-0.55297893,-0.45774004
-0.006546132,0.012256593,-0.010706075,-0.2455017,-0.53576595,-0.4434916
-0.006342366,0.011875074,-0.010372818,-0.23785979,-0.5190888,-0.42968673
-0.0061449427,0.011505431,-0.010049937,-0.23045577,-0.50293076,-0.4163116
-0.0059536654,0.011147294,-0.009737107,-0.22328223,-0.48727575,-0.40335283
-0.0057683424,0.010800307,-0.009434015,-0.216332,-0.47210804,-0.39079744
-0.0055887885,0.010464121,-0.009140357,-0.20959814,-0.4574125,-0.3786329
-0.005414824,0.010138399,-0.008855842,-0.20307389,-0.44317442,-0.366847
