ax,ay,az,gx,gy,gz
-0.6309148,2.9927545,-4.6245875,7.2137017,16.36833,46.66497
-0.7133842,2.9733362,-5.129839,6.5972958,11.0994005,44.58378
-0.78144807,2.9108565,-5.4792333,6.0038676,5.0075936,40.215614
-0.88293356,2.9772346,-5.8610764,6.3419795,-1.8811935,34.270313
-1.0467122,3.054533,-6.227462,5.090657,-6.78465,28.688608
-1.2218481,3.1358657,-6.638959,1.8745829,-11.500011,24.597431
-1.4496626,3.152013,-7.1065392,-1.7119508,-18.378323,21.452518
-1.6691172,3.0529869,-7.549694,-4.0816345,-26.753145,18.67235
-1.8252627,2.8523092,-7.93827,-5.4685535,-36.38505,16.030993
-1.8957304,2.574375,-8.277064,-6.422413,-46.587482,13.334683
-1.8974345,2.2400413,-8.489633,-7.929796,-57.499435,11.265401
-1.804007,1.836841,-8.545664,-9.565604,-68.84138,10.578812
-1.5684775,1.4076427,-8.396501,-10.481938,-79.78742,11.179032
-1.2269347,1.0411632,-8.04347,-9.397213,-89.31251,12.186359
-0.73963845,0.8630002,-7.4081717,-7.844028,-96.719894,12.748784
-0.18881863,0.8398532,-6.583165,-6.053482,-101.5639,12.9207945
0.36140507,1.0039667,-5.627014,-4.019285,-103.40326,12.840505
0.8393509,1.3637053,-4.6467466,-2.7646182,-102.92503,12.031946
1.2247063,1.8564923,-3.7078614,-3.9015427,-100.29344,10.489401
1.5095675,2.4237554,-2.8686204,-6.8981285,-96.38386,8.453736
1.6925042,2.9540782,-2.2012537,-11.486382,-91.63763,5.6249857
1.781996,3.3776367,-1.7210093,-16.515556,-86.375336,1.7127681
1.8097774,3.6945007,-1.4016008,-21.134535,-81.04571,-3.1903183
1.7990167,3.9153655,-1.1987162,-25.369907,-76.101944,-9.287955
1.78518,3.987181,-1.0922599,-29.315641,-71.75275,-15.620987
1.804601,3.9462836,-1.0297143,-33.216038,-67.880806,-21.736393
1.854554,3.7899365,-0.9975779,-37.00804,-64.35438,-27.383678
1.9161322,3.5168197,-0.9922282,-40.45013,-61.044632,-32.465862
1.9741336,3.130243,-1.0059558,-43.31056,-57.566853,-36.482265
1.9966228,2.6291842,-1.0476977,-45.42129,-54.186764,-39.427265
1.9856634,2.1013436,-1.0966625,-46.656895,-51.022507,-41.22963
1.9508066,1.5903966,-1.134802,-47.313946,-48.141823,-41.943615
1.8989875,1.1130942,-1.1533395,-47.535744,-45.326015,-41.80876
1.831528,0.67270833,-1.1556115,-47.27403,-42.15949,-40.885254
1.737371,0.27306694,-1.1495683,-46.53321,-38.723137,-39.55584
1.624613,-0.07359484,-1.1359469,-45.295357,-35.17973,-37.74122
1.5007217,-0.35224745,-1.1217655,-43.081223,-32.150093,-35.75508
1.4446374,-0.33908343,-1.0798434,-41.47121,-30.948597,-34.41886
1.391253,-0.3265531,-1.0399394,-39.938705,-29.804937,-33.14696
1.3403808,-0.31461245,-1.0019132,-38.478317,-28.715097,-31.93492
1.2918514,-0.3032217,-0.9656383,-37.085182,-27.675447,-30.778694
1.2455113,-0.2923448,-0.9309998,-35.754898,-26.682701,-29.674631
1.2012211,-0.28194907,-0.89789355,-34.48346,-25.733866,-28.619404
1.1588534,-0.2720046,-0.86622447,-33.267212,-24.826221,-27.609985
1.1182926,-0.2624842,-0.8359058,-32.10283,-23.957281,-26.64361
1.079432,-0.2533629,-0.8068582,-30.987257,-23.124767,-25.717747
1.0421743,-0.24461782,-0.7790087,-29.917704,-22.326593,-24.830074
1.00643,-0.23622796,-0.75229037,-28.89159,-21.56084,-23.978456
0.9721164,-0.22817391,-0.7266415,-27.90655,-20.825737,-23.160925
0.93915725,-0.22043778,-0.702005,-26.960392,-20.11965,-22.375666
0.907482,-0.21300301,-0.67832834,-26.05109,-19.441069,-21.620995
0.8770253,-0.20585425,-0.6555624,-25.17677,-18.788591,-20.895355
0.8477264,-0.19897725,-0.6336619,-24.335684,-18.16092,-20.1973
0.8195287,-0.19235873,-0.61258465,-23.526215,-17.556837,-19.525484
0.7923797,-0.18598634,-0.5922911,-22.746845,-16.97522,-18.87865
0.76623005,-0.17984852,-0.5727447,-21.996168,-16.415014,-18.255629
0.74103385,-0.17393452,-0.553911,-21.272861,-15.875235,-17.655323
0.71674806,-0.16823418,-0.5357577,-20.57569,-15.354958,-17.076708
0.69333225,-0.16273805,-0.51825476,-19.903492,-14.853319,-16.51882
0.6707485,-0.15743722,-0.50137377,-19.255178,-14.369505,-15.980756
0.648961,-0.15232329,-0.485088,-18.629726,-13.90275,-15.461664
0.6279363,-0.1473884,-0.46937233,-18.026169,-13.452335,-14.960745
0.60764253,-0.14262506,-0.45420307,-17.443596,-13.01758,-14.477241
0.58804977,-0.13802628,-0.4395578,-16.881147,-12.597843,-14.010438
0.5691297,-0.1335854,-0.42541534,-16.338009,-12.192516,-13.559662
0.55085546,-0.12929608,-0.41175565,-15.81341,-11.801025,-13.124273
0.53320163,-0.1251524,-0.3985597,-15.306622,-11.422826,-12.703667
0.5161441,-0.121148676,-0.38580945,-14.816951,-11.057401,-12.297267
0.49965993,-0.11727954,-0.3734878,-14.3437395,-10.704259,-11.904527
0.4837273,-0.11353985,-0.36157843,-13.886362,-10.362934,-11.524929
0.46832556,-0.10992477,-0.35006586,-13.444223,-10.03298,-11.157978
0.45343485,-0.106429644,-0.33893532,-13.016756,-9.713976,-10.803203
0.4390364,-0.10305006,-0.32817268,-12.603419,-9.405516,-10.4601555
0.42511216,-0.09978178,-0.31776455,-12.203697,-9.107216,-10.1284075
0.41164503,-0.0966208,-0.3076981,-11.817096,-8.818708,-9.807549
0.39861858,-0.093563244,-0.29796103,-11.443145,-8.539641,-9.497191
0.38601708,-0.09060544,-0.28854162,-11.081394,-8.269679,-9.196958
0.37382555,-0.087743856,-0.27942863,-10.731412,-8.008498,-8.906491
0.3620296,-0.08497512,-0.27061135,-10.392785,-7.7557926,-8.625449
0.3506154,-0.082296,-0.26207942,-10.065118,-7.5112653,-8.353503
0.33956978,-0.07970338,-0.25382298,-9.748031,-7.2746334,-8.090338
0.32887998,-0.07719429,-0.24583255,-9.441159,-7.0456257,-7.835651
0.3185339,-0.07476587,-0.23809901,-9.144154,-6.8239803,-7.589153
0.30851978,-0.07241537,-0.23061362,-8.856679,-6.609447,-7.350564
0.29882643,-0.07014015,-0.22336797,-8.578411,-6.401785,-7.119617
0.289443,-0.06793769,-0.216354,-8.309041,-6.2007627,-6.896054
0.28035906,-0.065805525,-0.20956393,-8.048269,-6.0061574,-6.6796274
0.2715647,-0.06374132,-0.20299028,-7.795809,-5.8177547,-6.4700994
0.2630502,-0.06174281,-0.19662583,-7.5513835,-5.6353483,-6.2672396
0.25480637,-0.059807822,-0.19046369,-7.3147273,-5.4587393,-6.0708275
0.24682419,-0.057934258,-0.18449715,-7.085583,-5.287737,-5.8806505
0.2390951,-0.056120098,-0.17871977,-6.863704,-5.122156,-5.696503
0.23161082,-0.054363392,-0.17312539,-6.648853,-4.961819,-5.5181875
0.2243633,-0.052662265,-0.16770798,-6.4407983,-4.806555,-5.345514
0.21734484,-0.0510149,-0.1624618,-6.2393193,-4.656198,-5.178297
0.210548,-0.049419556,-0.15738127,-6.0442023,-4.5105886,-5.0163608
0.20396559,-0.047874544,-0.15246102,-5.8552413,-4.369573,-4.8595333
0.1975907,-0.046378233,-0.14769588,-5.6722364,-4.233003,-4.707649
0.19141658,-0.044929054,-0.14308083,-5.4949965,-4.1007347,-4.5605497
0.1854368,-0.043525487,-0.13861105,-5.323335,-3.9726293,-4.41808
0.17964512,-0.042166073,-0.13428186,-5.157073,-3.8485537,-4.280092
0.17403549,-0.040849388,-0.13008875,-4.9960375,-3.728378,-4.146441
0.1686021,-0.039574068,-0.12602738,-4.840061,-3.6119778,-4.0169888
0.1633393,-0.03833879,-0.12209352,-4.688982,-3.4992325,-3.891601
0.15824164,-0.037142277,-0.11828311,-4.5426435,-3.3900251,-3.7701483
0.15330389,-0.035983294,-0.11459221,-4.4008956,-3.284243,-3.652505
0.14852095,-0.034860644,-0.11101703,-4.2635913,-3.1817775,-3.53855
0.14388788,-0.033773176,-0.107553884,-4.1305895,-3.0825229,-3.428166
0.13939993,-0.032719772,-0.10419922,-4.0017543,-2.9863772,-3.3212395
0.13505252,-0.031699352,-0.1009496,-3.8769531,-2.8932421,-3.2176611
0.13084118,-0.030710872,-0.09780169,-3.7560582,-2.8030221,-3.117325
0.12676162,-0.029753324,-0.09475228,-3.638946,-2.7156253,-3.0201283
0.122809656,-0.028825724,-0.09179826,-3.5254974,-2.6309624,-2.925972
0.11898128,-0.027927134,-0.08893661,-3.4155962,-2.5489466,-2.83476
0.11527259,-0.027056634,-0.08616442,-3.3091307,-2.469495,-2.7463994
0.11167981,-0.02621334,-0.083478875,-3.2059927,-2.3925266,-2.6608005
0.10819928,-0.025396397,-0.08087724,-3.1060772,-2.317963,-2.577876
0.104827486,-0.024604974,-0.07835688,-3.009283,-2.2457287,-2.4975421
0.101560995,-0.023838267,-0.075915225,-2.915512,-2.1757505,-2.419717
0.0983965,-0.023095502,-0.073549815,-2.824669,-2.1079571,-2.3443222
0.095330805,-0.022375925,-0.071258254,-2.736662,-2.0422804,-2.2712812
0.092360795,-0.021678807,-0.06903822,-2.6514018,-1.9786537,-2.20052
0.08948348,-0.021003447,-0.06688747,-2.5688026,-1.9170126,-2.131967
0.08669594,-0.02034916,-0.06480383,-2.4887807,-1.8572949,-2.0655532
0.083995365,-0.019715285,-0.06278519,-2.4112554,-1.7994403,-2.0012114
0.08137904,-0.019101184,-0.06082953,-2.3361485,-1.7433904,-1.9388767
0.07884431,-0.018506236,-0.058934864,-2.263384,-1.6890888,-1.8784862
0.076388635,-0.017929843,-0.057099283,-2.1928887,-1.6364806,-1.8199791
0.07400953,-0.017371422,-0.05532094,-2.1245918,-1.5855129,-1.7632962
0.071704604,-0.016830413,-0.053598046,-2.0584245,-1.5361342,-1.7083808
0.06947154,-0.01630627,-0.051928867,-1.9943198,-1.488295,-1.6551775
0.06730808,-0.015798466,-0.050311718,-1.9322134,-1.4419471,-1.6036326
0.06521206,-0.015306491,-0.048744973,-1.8720429,-1.3970438,-1.5536942
0.06318137,-0.01482985,-0.047227062,-1.8137478,-1.3535401,-1.5053124
0.06121396,-0.014368062,-0.045756456,-1.7572694,-1.3113922,-1.4584385
0.059307862,-0.013920665,-0.04433168,-1.702551,-1.2705576,-1.4130251
0.057461157,-0.01348721,-0.042951297,-1.6495377,-1.2309955,-1.369027
0.055671994,-0.013067259,-0.041613925,-1.5981761,-1.1926662,-1.3263997
0.053938575,-0.0126603935,-0.040318225,-1.548415,-1.1555309,-1.2851006
0.05225916,-0.012266203,-0.039062887,-1.5002038,-1.1195526,-1.245088
0.050632063,-0.011884293,-0.03784666,-1.4534948,-1.0846952,-1.2063221
0.04905565,-0.01151428,-0.036668316,-1.4082408,-1.0509236,-1.1687636
0.047528345,-0.0111557925,-0.035526678,-1.3643965,-1.018204,-1.1323751
0.04604861,-0.010808471,-0.034420602,-1.3219177,-0.98650354,-1.0971202
0.044614967,-0.010471968,-0.033348978,-1.2807621,-0.95579046,-1.0629631
0.043225978,-0.0101459455,-0.032310728,-1.2408882,-0.926034,-1.02987
0.041880243,-0.009830077,-0.031304814,-1.2022563,-0.8972042,-0.9978077
0.04057642,-0.0095240455,-0.030330228,-1.1648275,-0.86927235,-0.96674377
0.039313205,-0.009227545,-0.029385993,-1.1285644,-0.8422103,-0.9366473
0.038089324,-0.008940278,-0.028471163,-1.0934304,-0.81599104,-0.90748805
0.03690356,-0.008661956,-0.027584821,-1.0593907,-0.79058826,-0.8792369
0.035754718,-0.008392301,-0.02672608,-1.0264108,-0.7659765,-0.8518654
0.03464165,-0.008131043,-0.02589408,-0.99445796,-0.7421311,-0.82534623
0.033563238,-0.00787792,-0.025087984,-0.9635,-0.7190283,-0.7996529
0.03251841,-0.007632679,-0.02430699,-0.9335061,-0.6966448,-0.77475953
0.03150611,-0.007395074,-0.023550315,-0.904446,-0.6749582,-0.7506412
0.030525332,-0.0071648667,-0.022817198,-0.8762908,-0.65394694,-0.72727394
0.02957509,-0.006941827,-0.022106908,-0.84901226,-0.6335898,-0.7046342
0.028654434,-0.0067257322,-0.021418732,-0.82258296,-0.6138665,-0.6826993
0.027762443,-0.006516365,-0.020751983,-0.79697657,-0.5947573,-0.6614474
0.026898222,-0.0063135163,-0.020105992,-0.7721674,-0.57624304,-0.64085716
0.026060909,-0.006116983,-0.019480113,-0.7481306,-0.5583052,-0.6209079
0.025249664,-0.0059265685,-0.01887372,-0.7248422,-0.5409258,-0.6015798
0.024463674,-0.0057420824,-0.018286206,-0.7022788,-0.5240875,-0.5828534
0.023702156,-0.005563339,-0.017716983,-0.6804179,-0.5077734,-0.56471
0.022964343,-0.005390161,-0.01716548,-0.6592375,-0.4919672,-0.5471314
0.022249501,-0.0052223746,-0.016631147,-0.6387165,-0.47665307,-0.53010017
0.021556914,-0.005059811,-0.016113449,-0.6188344,-0.46181569,-0.51359904
0.020885887,-0.0049023083,-0.0156118665,-0.5995712,-0.4474402,-0.49761164
0.020235749,-0.004749709,-0.015125899,-0.5809077,-0.43351224,-0.48212194
0.01960585,-0.00460186,-0.01465506,-0.5628252,-0.4200179,-0.46711448
0.01899556,-0.0044586137,-0.014198879,-0.54530567,-0.40694362,-0.45257416
0.01840427,-0.0043198266,-0.013756898,-0.52833146,-0.39427632,-0.43848652
0.017831387,-0.00418536,-0.013328676,-0.5118857,-0.3820034,-0.4248374
0.017276336,-0.0040550795,-0.012913785,-0.49595186,-0.3701125,-0.4116132
0.016738564,-0.003928854,-0.012511809,-0.48051402,-0.35859177,-0.39880064
0.016217533,-0.0038065584,-0.012122347,-0.4655568,-0.34742966,-0.38638693
0.015712721,-0.0036880698,-0.011745008,-0.45106515,-0.33661503,-0.37435967
0.015223623,-0.0035732694,-0.011379415,-0.43702462,-0.32613707,-0.36270678
0.014749751,-0.0034620427,-0.011025203,-0.42342117,-0.31598523,-0.35141665
