ax,ay,az,gx,gy,gz
-2.0882008,2.4709315,-5.6773243,4.5500417,6.048237,38.674896
-2.1919749,2.6434453,-6.2941947,11.455458,0.46202505,38.248985
-2.3218958,2.6613986,-6.708107,12.250621,-7.320788,33.24541
-2.3393025,2.691657,-7.0865536,10.58137,-12.924731,29.051266
-2.4300046,2.7507198,-7.544593,9.240196,-19.996693,24.198427
-2.4998405,2.7572203,-7.963019,6.8827596,-29.202284,18.84029
-2.5194168,2.5951934,-8.313269,3.1911535,-39.425514,14.286963
-2.4925978,2.2425513,-8.59636,-0.93748593,-51.268433,11.4790945
-2.3823538,1.7010492,-8.776875,-3.144564,-62.76218,10.291535
-2.2108696,1.1411636,-8.890371,-3.7692788,-74.38121,10.617263
-1.9626762,0.6383946,-8.85825,-3.155781,-85.72944,11.76182
-1.6377344,0.25730515,-8.644999,-1.7901862,-96.09061,13.20938
-1.2436576,-0.017289277,-8.274229,-0.21794759,-104.61738,15.115547
-0.78491217,-0.17904988,-7.745398,1.9244819,-111.270325,16.94541
-0.33770168,-0.20329474,-7.129192,4.1702166,-115.98629,18.651394
0.10581684,-0.036362726,-6.4368443,6.6229095,-119.088234,19.75145
0.53385985,0.3173648,-5.663384,7.757974,-120.713684,20.016874
0.9232695,0.761402,-4.824865,6.9059525,-120.25539,19.454226
1.2823765,1.2916697,-3.919835,4.9024653,-117.999794,18.249819
1.6090958,1.8704151,-3.0420473,1.8131067,-114.0286,16.36347
1.8939393,2.4600255,-2.2483804,-2.0888038,-108.62612,13.565524
2.128661,3.0160213,-1.5861357,-6.702956,-102.05467,9.801852
2.3037043,3.5207531,-1.0848122,-12.2502985,-94.40422,4.418796
2.3999312,3.8998153,-0.79077363,-18.406132,-86.71808,-1.8831146
2.4347136,4.111152,-0.64512885,-24.943375,-79.35555,-8.454238
2.4318655,4.157065,-0.6195557,-31.39192,-72.679306,-14.911652
2.4298904,4.069214,-0.6752743,-37.51683,-66.84265,-20.86349
2.4589803,3.8764765,-0.7721103,-43.197872,-61.758293,-25.939829
2.4907193,3.5657067,-0.9010388,-48.436947,-57.093254,-30.150537
2.471233,3.1615715,-1.0556735,-52.77588,-52.919163,-33.54825
2.410302,2.6909502,-1.2196486,-55.787247,-49.22855,-36.142593
2.3276093,2.1967425,-1.3719215,-57.37167,-46.00363,-37.97997
2.234857,1.7183459,-1.5012314,-57.56226,-43.33691,-38.690136
2.1281166,1.2818116,-1.5942558,-56.903057,-41.001537,-38.543663
2.0133152,0.9021663,-1.6555666,-55.714813,-38.913857,-37.74604
1.8943917,0.568794,-1.6863837,-54.050404,-36.915695,-36.802753
1.7791321,0.2754516,-1.6873904,-51.75215,-34.940018,-35.981
1.6802796,0.014618978,-1.653293,-48.860077,-32.77662,-34.999023
1.6181873,0.014078755,-1.592198,-47.054523,-31.565407,-33.705685
1.5590171,0.013563955,-1.5339781,-45.333942,-30.411194,-32.473213
1.5025718,0.013072863,-1.4784395,-43.692596,-29.310137,-31.297499
1.448673,0.0126039265,-1.4254062,-42.125298,-28.258753,-30.174826
1.3971584,0.012155731,-1.3747189,-40.627323,-27.253874,-29.10181
1.34788,0.011726994,-1.326232,-39.19438,-26.292618,-28.075377
1.3007029,0.011316538,-1.2798127,-37.82254,-25.37235,-27.092712
1.2555037,0.01092329,-1.2353393,-36.508213,-24.490664,-26.151243
1.2121687,0.010546261,-1.1927004,-35.248096,-23.645346,-25.248608
1.1705939,0.010184548,-1.1517934,-34.03916,-22.834362,-24.382635
1.1306832,0.009837312,-1.1125237,-32.87862,-22.055838,-23.551325
1.092348,0.009503783,-1.0748041,-31.763884,-21.308044,-22.752829
1.055506,0.009183246,-1.0385538,-30.692575,-20.589382,-21.985437
1.0200814,0.008875039,-1.0036981,-29.662477,-19.898367,-21.247566
0.98600334,0.008578549,-0.9701674,-28.671537,-19.233618,-20.537746
0.95320624,0.008293204,-0.937897,-27.717846,-18.593857,-19.854605
0.9216287,0.008018469,-0.9068267,-26.799618,-17.977886,-19.196869
0.8912137,0.007753849,-0.87690014,-25.915194,-17.38459,-18.563345
0.86190766,0.0074988767,-0.8480648,-25.063017,-16.812927,-17.95292
0.8336605,0.007253117,-0.82027125,-24.24163,-16.261919,-17.364552
0.80642515,0.007016161,-0.79347336,-23.449667,-15.730651,-16.79726
0.7801576,0.006787625,-0.7676277,-22.685846,-15.218259,-16.250128
0.75481635,0.0065671476,-0.7426934,-21.948957,-14.723935,-15.722285
0.7303622,0.0063543883,-0.718632,-21.237865,-14.246916,-15.212922
0.7067582,0.0061490256,-0.6954071,-20.551497,-13.786482,-14.721269
0.68396956,0.0059507573,-0.6729845,-19.888836,-13.341952,-14.246597
0.6619633,0.005759296,-0.65133166,-19.248926,-12.912684,-13.788223
0.64070827,0.0055743703,-0.630418,-18.630861,-12.49807,-13.345496
0.6201748,0.0053957226,-0.61021435,-18.03378,-12.097531,-12.917799
0.60033494,0.0052231094,-0.5906931,-17.456865,-11.710522,-12.504549
0.581162,0.0050562983,-0.57182807,-16.899342,-11.336521,-12.105189
0.56263053,0.0048950687,-0.5535943,-16.360476,-10.975035,-11.7191925
0.54471654,0.0047392105,-0.53596795,-15.839561,-10.625592,-11.346056
0.5273969,0.0045885243,-0.5189265,-15.335933,-10.287745,-10.985301
0.51064986,0.0044428194,-0.50244844,-14.848952,-9.961066,-10.636472
0.49445438,0.004301914,-0.48651308,-14.378012,-9.645146,-10.299131
0.47879055,0.0041656336,-0.4711008,-13.92253,-9.339598,-9.972865
0.4636393,0.0040338123,-0.45619288,-13.481954,-9.044047,-9.657275
0.4489823,0.003906292,-0.44177133,-13.05575,-8.758139,-9.351981
0.43480214,0.00378292,-0.4278189,-12.643412,-8.481532,-9.056619
0.42108208,0.003663551,-0.4143192,-12.244452,-8.2139,-8.77084
0.40780607,0.0035480454,-0.4012564,-11.858405,-7.954929,-8.494309
0.3949587,0.0034362692,-0.3886154,-11.484823,-7.70432,-8.226708
0.38252527,0.0033280943,-0.37638164,-11.123277,-7.4617853,-7.9677286
0.3704916,0.003223397,-0.3645412,-10.773355,-7.2270484,-7.7170753
0.358844,0.0031220596,-0.35308072,-10.43466,-6.999843,-7.474465
0.34756953,0.0030239676,-0.34198728,-10.106814,-6.7799153,-7.239625
0.3366555,0.0029290123,-0.33124855,-9.789451,-6.5670195,-7.0122933
0.32608986,0.0028370877,-0.3208526,-9.482217,-6.3609195,-6.792219
0.315861,0.0027480933,-0.31078804,-9.184776,-6.1613884,-6.579159
0.30595767,0.002661931,-0.30104375,-8.896803,-5.968208,-6.37288
0.2963691,0.0025785076,-0.2916092,-8.617982,-5.7811675,-6.173157
0.28708494,0.0024977324,-0.28247416,-8.348011,-5.6000643,-5.9797745
0.27809513,0.002419518,-0.2736287,-8.0866,-5.424703,-5.792523
0.26939002,0.0023437808,-0.26506343,-7.833469,-5.254896,-5.6112022
0.26096034,0.0022704396,-0.25676912,-7.5883455,-5.090461,-5.4356174
0.25279707,0.0021994165,-0.24873695,-7.35097,-4.931223,-5.2655826
0.24489155,0.0021306362,-0.24095842,-7.121089,-4.777013,-5.1009164
0.23723546,0.0020640257,-0.23342529,-6.898461,-4.6276684,-4.9414454
0.22982071,0.0019995149,-0.22612962,-6.682851,-4.4830313,-4.787001
0.22263952,0.001937036,-0.21906376,-6.474032,-4.3429503,-4.637422
0.21568434,0.0018765238,-0.2122203,-6.2717857,-4.2072783,-4.492551
0.20894796,0.0018179151,-0.2055921,-6.0759015,-4.075874,-4.3522367
0.2024233,0.0017611486,-0.19917224,-5.886174,-3.9485998,-4.216333
0.19610365,0.0017061654,-0.19295408,-5.702408,-3.8253243,-4.084699
0.1899824,0.0016529086,-0.18693115,-5.5244107,-3.7059195,-3.957198
0.18405326,0.0016013231,-0.18109722,-5.3519998,-3.5902617,-3.8336978
0.17831007,0.0015513556,-0.17544627,-5.1849966,-3.4782314,-3.7140715
0.17274694,0.0015029545,-0.1699725,-5.023229,-3.3697135,-3.5981956
0.16735815,0.0014560703,-0.16467026,-4.866531,-3.2645962,-3.485951
0.16213816,0.0014106546,-0.1595341,-4.714741,-3.1627717,-3.377222
0.15708162,0.001366661,-0.15455876,-4.567704,-3.0641356,-3.271898
0.15218334,0.0013240445,-0.14973916,-4.4252696,-2.9685867,-3.1698704
0.14743835,0.0012827615,-0.14507037,-4.287292,-2.8760276,-3.0710354
0.14284177,0.0012427698,-0.14054762,-4.1536303,-2.7863638,-2.975292
0.13838892,0.0012040286,-0.13616629,-4.024148,-2.6995037,-2.8825426
0.13407528,0.0011664985,-0.13192193,-3.8987136,-2.6153593,-2.7926924
0.12989646,0.0011301414,-0.12781024,-3.7771997,-2.5338445,-2.7056508
0.12584822,0.0010949204,-0.123827,-3.6594825,-2.4548767,-2.6213286
0.121926434,0.0010607996,-0.119968206,-3.5454428,-2.3783758,-2.5396407
0.11812713,0.0010277444,-0.11622992,-3.4349644,-2.304264,-2.4605038
0.11444646,0.0009957214,-0.112608366,-3.327936,-2.2324667,-2.383838
0.110880695,0.0009646981,-0.10909987,-3.224249,-2.1629105,-2.3095658
0.10742623,0.00093464315,-0.10570089,-3.1237981,-2.0955255,-2.2376118
0.10407958,0.00090552616,-0.102407984,-3.0264823,-2.0302436,-2.1679034
0.10083736,0.00087731774,-0.09921783,-2.932203,-1.9669986,-2.1003702
0.09769628,0.00084998936,-0.096127205,-2.8408651,-1.9057268,-2.0349438
0.09465319,0.0008235135,-0.09313299,-2.7523766,-1.8463662,-1.9715583
0.09170501,0.00079786335,-0.090232156,-2.666648,-1.7888571,-1.9101498
0.08884877,0.0007730132,-0.0874218,-2.5835927,-1.7331415,-1.8506565
0.0860816,0.0007489379,-0.084699064,-2.5031273,-1.6791633,-1.7930183
0.08340071,0.00072561327,-0.08206123,-2.425171,-1.6268681,-1.7371773
0.080803394,0.0007030158,-0.07950563,-2.3496447,-1.5762032,-1.683077
0.07828704,0.00068112276,-0.0770297,-2.276473,-1.5271177,-1.6306633
0.07584913,0.00065991207,-0.07463094,-2.2055821,-1.4795622,-1.5798832
0.0734872,0.00063936255,-0.07230694,-2.1369007,-1.4334888,-1.5306859
0.07119888,0.0006194534,-0.07005537,-2.0703595,-1.3888514,-1.4830219
0.06898187,0.0006001647,-0.06787397,-2.005892,-1.3456049,-1.436843
0.06683394,0.000581477,-0.06576054,-1.9434334,-1.303706,-1.3921032
0.06475294,0.0005633716,-0.063712955,-1.8829209,-1.2631127,-1.3487575
0.06273677,0.0005458303,-0.06172917,-1.8242937,-1.223784,-1.3067621
0.060783416,0.00052883546,-0.05980719,-1.767493,-1.1856806,-1.2660751
0.058890916,0.0005123701,-0.057945084,-1.7124618,-1.1487643,-1.2266557
0.05705737,0.00049641763,-0.056140985,-1.659145,-1.1129979,-1.1884643
0.055280935,0.0004809621,-0.054393083,-1.6074889,-1.0783457,-1.1514624
0.053559836,0.00046598798,-0.052699625,-1.5574418,-1.0447727,-1.1156131
0.051892344,0.00045148024,-0.05105891,-1.5089536,-1.0122455,-1.0808804
0.050276786,0.00043742437,-0.049469303,-1.4619755,-0.9807314,-1.0472295
0.048711542,0.00042380625,-0.047929198,-1.4164605,-0.9501988,-1.0146266
0.047195047,0.00041061227,-0.04643706,-1.3723631,-0.9206171,-0.98303914
0.04572578,0.00039782916,-0.04499139,-1.329639,-0.8919566,-0.9524354
0.04430227,0.00038544415,-0.04359074,-1.2882453,-0.8641887,-0.9227846
0.042923085,0.00037344478,-0.04223371,-1.2481407,-0.83728546,-0.8940572
0.04158685,0.0003618191,-0.040918935,-1.2092849,-0.81122,-0.8662244
0.040292222,0.00035055543,-0.039645102,-1.1716391,-0.78596616,-0.83925825
0.03903791,0.0003396425,-0.03841093,-1.1351655,-0.7614987,-0.81313175
0.037822653,0.00032906936,-0.037215192,-1.0998275,-0.7377931,-0.7878188
0.036645234,0.00031882542,-0.036056682,-1.0655899,-0.7148256,-0.76329404
0.035504475,0.00030890046,-0.034934245,-1.0324183,-0.6925732,-0.7395328
0.034399234,0.0002992845,-0.033846755,-1.0002795,-0.67101365,-0.7165115
0.033328407,0.00028996795,-0.032793127,-0.96914136,-0.6501254,-0.6942069
0.032290917,0.00028094146,-0.0317723,-0.9389727,-0.62988746,-0.67259675
0.03128573,0.00027219602,-0.030783257,-0.9097433,-0.6102796,-0.65165937
0.030311836,0.00026372282,-0.029825006,-0.88142395,-0.59128225,-0.63137394
0.029368265,0.00025551344,-0.028896589,-0.85398626,-0.57287633,-0.61171997
0.028454069,0.00024755966,-0.027997075,-0.8274028,-0.55504346,-0.59267795
0.027568335,0.00023985347,-0.027125565,-0.80164695,-0.53776574,-0.5742287
0.026710175,0.0002323872,-0.02628119,-0.77669287,-0.5210259,-0.55635387
0.025878731,0.00022515336,-0.025463099,-0.75251573,-0.50480723,-0.5390355
0.02507317,0.00021814473,-0.024670476,-0.7290912,-0.48909348,-0.52225626
0.024292689,0.00021135429,-0.02390253,-0.7063959,-0.47386888,-0.5059994
0.023536505,0.00020477524,-0.02315849,-0.6844072,-0.45911825,-0.4902486
0.02280386,0.000198401,-0.022437613,-0.663103,-0.44482684,-0.47498813
0.022094024,0.00019222518,-0.021739177,-0.64246196,-0.4309803,-0.46020272
0.021406284,0.00018624162,-0.021062484,-0.6224635,-0.4175648,-0.4458776
0.020739954,0.00018044435,-0.020406855,-0.6030876,-0.40456694,-0.43199843
0.020094367,0.00017482752,-0.019771636,-0.5843149,-0.3919737,-0.41855133
0.019468876,0.00016938556,-0.019156191,-0.5661265,-0.37977248,-0.4055228
0.018862857,0.000164113,-0.018559905,-0.54850435,-0.3679511,-0.39289984
0.018275702,0.00015900456,-0.017982181,-0.5314308,-0.35649768,-0.38066983
0.017706826,0.00015405515,-0.017422441,-0.51488864,-0.34540078,-0.36882055
0.017155658,0.0001492598,-0.016880125,-0.4988615,-0.33464935,-0.3573401
