ax,ay,az,gx,gy,gz
-4.6245875,1.6745607,-6.1818748,0.0,-16.757425,-2.6636605
-4.8654,2.3151417,-6.4625735,8.46253,-23.633595,-4.331933
-5.05303,2.7313335,-6.5761423,11.270347,-32.051872,-7.5080295
-5.121079,3.0115566,-6.6473465,8.630746,-41.627556,-12.408826
-4.9953785,3.0678768,-6.54527,-0.49054846,-49.948708,-17.559385
-4.680223,2.8808937,-6.3252892,-7.6919165,-56.692303,-21.12811
-4.237594,2.6609662,-6.038509,-11.219861,-61.537136,-22.807995
-3.8235767,2.528016,-5.7721596,-12.294948,-64.258286,-24.052965
-3.5976496,2.413228,-5.6074386,-12.621325,-66.647514,-24.916958
-3.475848,2.242979,-5.5047083,-12.336665,-70.776375,-25.618034
-3.2614224,2.0605347,-5.3710723,-11.675561,-75.122505,-26.029469
-2.9915543,1.9250557,-5.24063,-11.779155,-78.851685,-26.226805
-2.749808,1.808329,-5.1159205,-12.537597,-81.98365,-26.844824
-2.5383418,1.687662,-4.9689336,-12.828911,-84.77775,-27.752846
-2.3101847,1.5558397,-4.7705684,-13.13446,-87.055984,-28.120893
-2.0595698,1.4280739,-4.544881,-13.742071,-88.82265,-27.6116
-1.8300676,1.3159748,-4.340791,-14.622417,-90.64167,-26.861109
-1.6073059,1.1789367,-4.1207156,-15.649612,-92.35199,-25.93513
-1.3844265,1.031818,-3.871385,-16.509659,-93.92567,-25.240574
-1.1574641,0.8869512,-3.5758636,-16.531826,-94.9135,-25.051483
-0.90784067,0.7698655,-3.2549126,-16.168264,-95.30358,-25.16156
-0.66903067,0.65072286,-2.952632,-15.620608,-95.4637,-25.464853
-0.4330149,0.50193423,-2.6340964,-15.259021,-95.51868,-25.258738
-0.16864905,0.36994985,-2.2957883,-15.699287,-95.19447,-24.244816
0.062231943,0.25694364,-1.998138,-16.910433,-94.33938,-22.717146
0.1607057,0.12228005,-1.8231301,-17.220125,-93.599525,-21.71102
0.22758424,-0.031049943,-1.6656194,-16.211153,-92.97696,-21.491962
0.34895965,-0.17726591,-1.4586074,-14.146931,-92.20794,-21.698421
0.5344376,-0.29430214,-1.1858145,-12.05265,-90.86025,-21.62614
0.7110016,-0.3697505,-0.88250065,-11.085471,-88.84676,-20.736597
0.8456414,-0.41250104,-0.6049586,-10.800765,-86.7723,-19.647774
0.9701239,-0.4685502,-0.3462997,-10.691606,-84.57524,-18.542871
1.105749,-0.5376839,-0.08807438,-10.180678,-82.51685,-17.588263
1.2867427,-0.5968028,0.21672063,-9.65685,-79.97,-16.507984
1.506987,-0.61506295,0.53758764,-10.225208,-76.2125,-14.885569
1.6481565,-0.62559557,0.7738175,-11.273836,-72.07468,-13.076054
1.731322,-0.665816,0.92046165,-12.574175,-68.053566,-11.249496
1.7834059,-0.7410891,1.017685,-13.349665,-64.22382,-9.581401
1.8538243,-0.82563555,1.1195776,-13.397643,-60.348404,-8.144706
1.9550447,-0.8930761,1.2345557,-12.776074,-56.06614,-6.550231
2.0412126,-0.91599154,1.3471714,-11.929005,-51.691624,-4.967312
2.1114762,-0.9162788,1.4407887,-11.071974,-47.229816,-3.4842482
2.1609588,-0.9068455,1.4967675,-10.03583,-42.850334,-2.1904986
2.1917512,-0.90946096,1.5165625,-8.670058,-38.645912,-1.1703544
2.2175558,-0.9183351,1.5125526,-6.847698,-34.49473,-0.55261046
2.2472475,-0.9211729,1.5098925,-5.114453,-30.33094,0.0965042
2.2867942,-0.9120202,1.5059959,-3.7982056,-25.940718,0.8831746
2.30323,-0.91472906,1.4691259,-2.7426484,-21.548786,1.7048762
2.289482,-0.9261258,1.3992963,-1.5899292,-17.32017,2.6019037
2.250001,-0.92588425,1.3061166,-0.050225463,-13.446776,3.3807616
2.2070324,-0.8962756,1.2202767,1.4871395,-9.928083,4.092213
2.1841757,-0.84129214,1.1481767,2.8383656,-6.5037723,4.761965
2.1543705,-0.7785103,1.0744746,3.8323836,-3.0771065,5.5612326
2.0999072,-0.71376413,0.98651224,4.6205306,0.3182198,6.3710384
2.0322306,-0.642415,0.88883495,5.561338,3.5731366,7.0415406
1.9549006,-0.5384799,0.78415996,6.3849425,6.625629,7.5906987
1.8687496,-0.41942653,0.67748123,6.9457035,9.370148,8.023486
1.7665721,-0.28963202,0.57718056,7.4141684,11.711469,8.280606
1.6685122,-0.12727657,0.49455345,7.8219767,13.779467,8.305186
1.579246,0.07530272,0.42606738,7.913116,15.809779,8.004827
1.4999813,0.30692405,0.35301253,7.4181795,17.869617,7.534651
1.3980592,0.5337093,0.25151062,6.331528,19.796053,6.972176
1.2701418,0.73389757,0.11611322,5.0439863,21.477955,6.1432414
1.132456,0.8990863,-0.048237506,3.861926,22.780996,4.9296703
0.9953466,1.0358243,-0.22467366,2.8500473,23.611189,3.351275
0.85983515,1.1514547,-0.4008988,1.8256695,24.1563,1.6875978
0.7295332,1.2498275,-0.5726794,0.6091697,24.518593,0.08431283
0.5916999,1.3292341,-0.75414133,-0.933303,24.618736,-1.4648186
0.43633524,1.3775476,-0.94904923,-2.5097108,24.41141,-3.0456812
0.26754728,1.3967898,-1.1494886,-3.5565345,23.74394,-4.937604
0.100434735,1.3841561,-1.3397475,-4.2109203,22.653685,-6.937505
-0.04746048,1.3415133,-1.5101483,-4.8008904,21.192081,-8.777883
-0.17465323,1.2761151,-1.6557684,-5.3636103,19.45125,-10.4024
-0.28398722,1.1961886,-1.773535,-5.8439207,17.5761,-11.853367
-0.3777575,1.1020643,-1.8708993,-6.3741984,15.513097,-13.04401
-0.45953554,0.9810205,-1.9490337,-6.800195,13.351495,-14.023799
-0.53972054,0.8388251,-2.014345,-6.944123,10.994138,-14.911812
-0.5983787,0.6775369,-2.0506227,-6.7151747,8.462861,-15.707327
-0.61890894,0.5155811,-2.0467534,-6.3068194,5.942462,-16.16117
-0.6111558,0.38043228,-2.0128367,-6.029092,3.6479728,-16.1308
-0.60094374,0.2847738,-1.9717296,-6.154505,1.4602393,-15.818765
-0.6064231,0.1894899,-1.9349691,-6.354641,-0.7511687,-15.489865
-0.60165954,0.08147722,-1.8924695,-6.3371296,-3.1084483,-15.313639
-0.5740047,-0.041869573,-1.8328167,-6.047706,-5.409265,-15.133478
-0.5182359,-0.18203364,-1.7567257,-5.2900786,-7.6095266,-14.796086
-0.43043137,-0.32311717,-1.6474589,-4.152262,-9.5132885,-14.318067
-0.3328133,-0.44183952,-1.5187069,-2.8189945,-11.082358,-13.638849
-0.24072193,-0.5330635,-1.3802567,-1.6450061,-12.383158,-12.694105
-0.15651539,-0.60636574,-1.2418547,-0.6270234,-13.495227,-11.521076
-0.07423312,-0.66264,-1.1049998,0.17877777,-14.510713,-10.150035
0.009634928,-0.6988332,-0.9667877,0.8978194,-15.413673,-8.723117
0.09669961,-0.7195058,-0.8280415,1.5787818,-16.06821,-7.2974753
0.1806939,-0.72963196,-0.69159216,2.454072,-16.413536,-6.020158
0.25558475,-0.73255366,-0.55839574,3.389538,-16.543568,-4.836728
0.32363534,-0.7238713,-0.42972192,4.1503224,-16.476639,-3.5856895
0.3808435,-0.6962933,-0.31543094,4.596972,-16.325949,-2.2882495
0.4214593,-0.6586745,-0.22119015,4.8196297,-16.20862,-1.0107645
0.44910544,-0.61386526,-0.13529596,5.0638666,-16.146498,0.12343458
0.48950446,-0.5647805,-0.0422645,5.5350122,-15.990965,1.1361039
0.5446266,-0.50168335,0.056367118,5.791114,-15.272143,2.2427316
0.5603483,-0.41636565,0.11588509,5.7932343,-14.289997,3.2497432
0.5509071,-0.32595453,0.14392976,5.7057314,-13.174818,4.0002093
0.52549684,-0.23451242,0.15048817,5.5619087,-12.153741,4.4717503
0.4916138,-0.15265247,0.14682086,5.3806815,-11.294262,4.739889
0.45851317,-0.08113242,0.1386497,5.172746,-10.669389,4.797692
0.43525025,-0.020655124,0.13057882,4.950395,-10.029821,4.8270016
0.40972152,0.03209191,0.11230925,4.7578526,-9.315116,4.8763585
0.37217176,0.08602472,0.07926439,4.590404,-8.59804,4.874663
0.3223551,0.13917264,0.034996748,4.540518,-7.895814,4.8159103
0.26230976,0.18915944,-0.018020432,4.760586,-7.318368,4.7399426
0.2011503,0.22922458,-0.073400736,5.110783,-6.806582,4.635918
0.14505367,0.2620496,-0.123774335,5.484289,-6.3431425,4.5408545
0.14053144,0.25387987,-0.119915515,5.3133097,-6.145387,4.399287
0.13615061,0.24596561,-0.11617736,5.1476765,-5.9538155,4.2621474
0.13190675,0.23829877,-0.11255606,4.9872217,-5.768233,4.1292944
0.12779552,0.23087154,-0.10904795,4.8317814,-5.5884504,4.000594
0.12381274,0.22367638,-0.10564945,4.6811976,-5.414285,3.8759146
0.119954385,0.216706,-0.10235711,4.5353184,-5.2455606,3.75513
0.11621653,0.2099533,-0.0991676,4.3939953,-5.0821056,3.638118
0.112595394,0.20341146,-0.09607768,4.257085,-4.9237547,3.5247595
0.1090873,0.19707385,-0.09308423,4.1244483,-4.770347,3.41494
0.10568872,0.19093406,-0.09018421,3.9959521,-4.621728,3.3085485
0.10239619,0.18498589,-0.0873747,3.8714662,-4.4777474,3.205477
0.0992064,0.17922331,-0.084652856,3.7508643,-4.338259,3.1056218
0.09611613,0.17364052,-0.082015924,3.6340253,-4.2031226,3.008882
0.09312226,0.16823187,-0.079461254,3.5208309,-4.0722017,2.91516
0.09022177,0.16299194,-0.07698626,3.411167,-3.9453642,2.8243608
0.08741173,0.1579154,-0.074588455,3.304923,-3.8224823,2.7363937
0.08468931,0.15299717,-0.07226542,3.201992,-3.703432,2.6511693
0.082051784,0.14823228,-0.07001481,3.1022706,-3.5880938,2.5686023
0.07949647,0.14361595,-0.06783436,3.0056577,-3.4763513,2.4886093
0.077020824,0.13914351,-0.06572189,2.9120567,-3.368092,2.4111102
0.07462234,0.13481048,-0.06367527,2.8213732,-3.2632072,2.3360264
0.072298616,0.13061251,-0.061692428,2.733516,-3.1615915,2.2632828
0.070047304,0.12654535,-0.059771385,2.648397,-3.0631425,2.1928065
0.067866154,0.12260495,-0.057910208,2.5659304,-2.9677615,2.1245263
0.06575296,0.118787326,-0.056107022,2.4860334,-2.8753526,2.0583735
0.063705616,0.11508866,-0.054360025,2.408626,-2.7858229,1.9942821
0.061722063,0.111505225,-0.052667454,2.3336303,-2.6990829,1.9321876
0.0598003,0.10803343,-0.051027615,2.2609713,-2.6150448,1.8720275
0.05793841,0.104669794,-0.049438864,2.1905756,-2.5336251,1.8137417
0.05613452,0.10141093,-0.0478996,2.1223726,-2.4547415,1.7572715
0.054386817,0.09825359,-0.04640829,2.0562944,-2.3783152,1.7025603
0.052693557,0.09519459,-0.044963427,1.9922744,-2.3042696,1.6495533
0.051053032,0.09223087,-0.043563567,1.9302484,-2.23253,1.5981973
0.049463604,0.08935946,-0.042207308,1.8701541,-2.163025,1.5484408
0.04792368,0.08657748,-0.04089329,1.8119316,-2.0956845,1.500234
0.046431713,0.08388214,-0.039620195,1.7555224,-2.0304415,1.4535285
0.04498621,0.08127073,-0.038386747,1.7008697,-1.9672302,1.4082775
0.04358572,0.07874066,-0.037191708,1.647919,-1.9059873,1.3644358
0.042228844,0.07628936,-0.036033887,1.5966173,-1.8466517,1.3219593
0.040914223,0.0739144,-0.034912117,1.5469133,-1.7891637,1.2808055
0.039640535,0.0716134,-0.03382528,1.4987568,-1.7334658,1.2409331
0.038406506,0.069384046,-0.032772284,1.4520998,-1.6795022,1.2023023
0.037210904,0.0672241,-0.031752076,1.4068956,-1.627219,1.1648744
0.03605253,0.06513142,-0.030763634,1.363099,-1.5765637,1.1286118
0.03493022,0.06310389,-0.02980597,1.320666,-1.5274856,1.0934784
0.033842858,0.06113949,-0.02887812,1.2795542,-1.4799355,1.0594388
0.03278935,0.059236255,-0.027979162,1.2397224,-1.433866,1.0264591
0.031768642,0.057392273,-0.02710819,1.2011307,-1.3892308,0.9945062
0.030779712,0.055605702,-0.026264336,1.1637406,-1.3459853,0.9635481
0.029821571,0.053874753,-0.025446756,1.1275146,-1.3040862,0.9335539
0.02889326,0.0521977,-0.024654627,1.0924164,-1.2634915,0.90449345
0.02799385,0.05057285,-0.023887161,1.0584109,-1.2241607,0.8763377
0.027122442,0.04899859,-0.023143588,1.025464,-1.1860542,0.84905857
0.026278162,0.047473338,-0.022423163,0.99354297,-1.1491343,0.8226287
0.025460167,0.04599557,-0.021725167,0.9626156,-1.1133636,0.7970216
0.024667636,0.04456381,-0.021048902,0.93265104,-1.0787065,0.77221173
0.023899777,0.04317662,-0.020393686,0.90361935,-1.0451283,0.7481742
0.023155823,0.041832615,-0.01975887,0.8754914,-1.0125955,0.724885
0.02243503,0.04053045,-0.019143816,0.8482391,-0.98107547,0.70232075
0.021736674,0.03926882,-0.01854791,0.8218352,-0.9505366,0.68045896
0.021060057,0.038046468,-0.017970553,0.7962532,-0.92094845,0.65927774
0.020404505,0.036862165,-0.01741117,0.7714676,-0.8922814,0.6387559
0.01976936,0.03571473,-0.0168692,0.74745363,-0.8645067,0.6188729
0.019153986,0.034603015,-0.016344102,0.72418714,-0.83759665,0.59960884
0.018557768,0.033525907,-0.015835349,0.70164496,-0.8115243,0.5809445
0.01798011,0.032482326,-0.015342434,0.67980444,-0.7862635,0.5628611
0.017420435,0.031471234,-0.014864862,0.65864384,-0.76178914,0.5453406
0.016878182,0.030491615,-0.014402157,0.63814193,-0.73807657,0.52836555
