ax,ay,az,gx,gy,gz
-0.07818253,-0.08727352,-0.048182257,-2.9409356,1.4427404,-3.5509412
-0.63603836,-0.02996716,-0.8052014,-6.861336,-6.0495787,-1.5683901
-1.1417806,0.24568276,-1.3461161,-9.062311,-12.497198,-0.88412184
-1.4422133,0.5018292,-1.7500203,-12.461878,-18.26849,-1.4596347
-1.6098828,0.58788913,-1.9721849,-13.880743,-21.961798,-2.219342
-1.6396904,0.5483554,-2.0678074,-12.735099,-24.26661,-2.8824034
-1.5606637,0.46195468,-2.0684059,-9.044443,-24.688425,-3.1331177
-1.471609,0.4904865,-2.1379735,-6.9030447,-24.462173,-2.5476265
-1.4960493,0.56283367,-2.3258393,-6.373966,-24.497904,-1.9386609
-1.6166589,0.62010187,-2.5992763,-6.464533,-25.285273,-1.9960486
-1.7889702,0.6296997,-2.8732,-6.334084,-27.037144,-2.4474964
-1.9505961,0.6583284,-3.1138084,-7.0083117,-30.686579,-3.6248229
-2.0032978,0.6764999,-3.2432125,-6.8574934,-34.435757,-4.934195
-1.9890867,0.7155003,-3.3212724,-6.5121956,-37.63771,-5.759683
-1.9858286,0.77654546,-3.408491,-6.500588,-40.58628,-6.0903463
-1.9935334,0.8308976,-3.514024,-7.2212486,-43.861156,-6.377051
-2.0170882,0.83312947,-3.6158168,-8.201852,-47.397934,-6.864146
-2.0329163,0.77300376,-3.6783116,-7.596921,-51.894524,-8.058366
-1.9434744,0.75006104,-3.6528535,-6.5849004,-56.052025,-9.281324
-1.8043727,0.7538511,-3.5777175,-6.071114,-59.578327,-9.798669
-1.6294994,0.7784159,-3.4597847,-6.7353787,-62.4247,-9.613247
-1.4605051,0.7745023,-3.3184872,-8.438327,-64.69012,-9.177736
-1.3258442,0.6957052,-3.1952813,-9.050802,-67.149574,-9.400451
-1.1576505,0.59044135,-3.0558715,-8.684044,-69.5319,-10.138156
-0.95339864,0.4935221,-2.8775277,-8.304361,-71.69163,-10.62662
-0.7302903,0.41333517,-2.6440296,-8.546449,-73.396935,-10.544629
-0.51621825,0.34172693,-2.3771524,-9.07131,-74.29415,-10.133053
-0.3244486,0.27930033,-2.122419,-9.69269,-74.72858,-9.83221
-0.1588055,0.19905935,-1.8913202,-10.6998825,-74.95106,-9.308931
-0.01012826,0.091900356,-1.6664848,-12.020541,-74.997444,-8.545122
0.11731075,-0.047870863,-1.4482496,-12.910442,-74.93737,-7.8348103
0.23619163,-0.1870735,-1.2325872,-12.529168,-74.62999,-7.5880384
0.35716644,-0.27363527,-0.99808264,-11.756602,-74.19829,-7.357638
0.49940932,-0.31545758,-0.73060316,-11.204367,-73.51126,-6.9811444
0.6660351,-0.3308962,-0.43834504,-11.191149,-72.28247,-6.345019
0.8346322,-0.35798472,-0.15959468,-11.627561,-70.40657,-5.4636016
0.96558714,-0.42171597,0.06361753,-11.721036,-68.0622,-4.7421556
1.045017,-0.5166502,0.23113091,-10.975062,-65.71706,-4.4212403
1.1372524,-0.5921592,0.40384695,-9.854518,-63.450993,-4.187944
1.2554237,-0.6348987,0.595713,-8.820164,-61.001415,-3.8495665
1.3794127,-0.6581826,0.7853324,-7.968275,-58.282356,-3.3543975
1.5000322,-0.67815626,0.96227235,-7.1350884,-55.05761,-2.8115108
1.6035815,-0.7003401,1.1137123,-6.034897,-51.537086,-2.4271967
1.6897973,-0.71782225,1.2420363,-4.564829,-47.932587,-2.257645
1.7798967,-0.72570366,1.3613532,-2.87548,-44.248928,-2.1188085
1.8736902,-0.71045876,1.4726796,-1.4032836,-40.418518,-1.773714
1.9538816,-0.66726345,1.5548042,-0.6217289,-36.421688,-1.2890507
2.001251,-0.63813555,1.5836897,0.13226546,-32.426003,-1.0836391
2.0105162,-0.6468932,1.5828819,1.6759819,-28.638115,-1.4670428
2.0333502,-0.6673073,1.5890905,3.7029984,-25.039045,-2.2119577
2.0909784,-0.682879,1.6134386,5.369059,-21.28786,-2.651999
2.1418922,-0.6933543,1.623056,5.9529314,-17.269245,-2.179919
2.1603367,-0.7064715,1.5891459,6.1598244,-13.223963,-1.4199421
2.1473863,-0.72611403,1.521651,6.5944405,-9.249537,-0.8123676
2.1011271,-0.74883586,1.4281101,7.7387877,-5.693863,-0.62975585
2.0603664,-0.7539565,1.3403888,9.086737,-2.5067585,-0.66335934
2.0380924,-0.7441258,1.2700386,9.753323,0.61833215,-0.18594761
2.00784,-0.7111194,1.1942338,10.203808,3.7785425,0.40422434
1.9664855,-0.66991925,1.1022288,10.725873,6.823552,0.77985114
1.9282944,-0.62532973,1.0049263,11.098185,9.881632,1.2097193
1.8737471,-0.5677279,0.8923776,11.068782,12.901262,1.7929479
1.7815843,-0.5080929,0.75263476,11.133357,15.492895,2.16199
1.6754324,-0.44590965,0.6092184,11.603995,17.562426,2.2242675
1.6005805,-0.36133686,0.49639004,11.898963,19.43056,2.2253551
1.5372428,-0.25965527,0.39621893,11.779275,21.207077,2.3344145
1.4735948,-0.14805514,0.2994672,11.348138,22.975866,2.5063775
1.396308,-0.02828996,0.19417451,10.902313,24.692427,2.3654182
1.2983743,0.087877825,0.07209213,10.910845,26.104998,1.7762307
1.205553,0.21588582,-0.039020147,11.032147,27.280987,0.92030776
1.1219599,0.35274795,-0.138953,10.795191,28.184088,0.046310347
1.0478382,0.48747006,-0.23128985,9.885968,28.92885,-0.64895284
0.9674958,0.598708,-0.32937008,8.667307,29.514975,-1.2551377
0.88237876,0.6963932,-0.43303585,7.5955296,29.984842,-2.025427
0.791407,0.79117805,-0.54042304,6.711953,30.299845,-3.1516907
0.6978143,0.8772443,-0.6506526,5.9908137,30.382153,-4.5155454
0.60440445,0.9550197,-0.76211685,5.0808077,30.202942,-5.923599
0.50888914,1.0137874,-0.8732641,3.8261616,29.745949,-7.2162623
0.41739705,1.0417765,-0.9744473,2.4831893,29.19009,-8.432163
0.32571802,1.0537429,-1.0705489,1.3937247,28.534792,-9.712618
0.23142566,1.0641237,-1.167292,0.54924685,27.7179,-11.122892
0.13819316,1.0720588,-1.2624236,-0.38525158,26.690853,-12.487631
0.04919213,1.0672405,-1.3481628,-1.7815232,25.43558,-13.568237
-0.035594754,1.0288534,-1.4223999,-3.3460357,24.026752,-14.435542
-0.111939274,0.9662647,-1.4933746,-4.7260113,22.521124,-15.244303
-0.17638147,0.8868921,-1.5563579,-5.90262,20.987026,-15.950465
-0.24372458,0.80540997,-1.6173273,-6.88253,19.417637,-16.52289
-0.32348022,0.72816086,-1.6781394,-7.727719,17.63591,-17.029152
-0.4027955,0.64274,-1.7254697,-8.465572,15.644876,-17.425453
-0.4533436,0.5510081,-1.749848,-9.346428,13.533478,-17.604372
-0.47574055,0.45576718,-1.7522973,-10.315964,11.527455,-17.548075
-0.49050343,0.37717655,-1.7486854,-11.367529,9.696006,-17.36165
-0.5298495,0.30574355,-1.7636007,-12.16405,7.804132,-17.399017
-0.5980313,0.21560007,-1.791817,-12.323974,5.5575714,-17.737055
-0.63054246,0.12558608,-1.7897886,-12.34131,3.1567216,-18.0434
-0.6254892,0.027218224,-1.7619545,-12.65787,0.83938533,-17.935278
-0.6059288,-0.07958295,-1.7222717,-13.208734,-1.2788137,-17.387756
-0.5886424,-0.18076374,-1.6884676,-13.623918,-3.0553825,-16.708696
-0.6118134,-0.28459966,-1.689547,-13.352628,-4.8923416,-16.304737
-0.6255992,-0.37991542,-1.6771249,-12.635959,-6.99947,-16.094704
-0.5996204,-0.46879464,-1.6241386,-12.132535,-9.087946,-15.637677
-0.55412626,-0.5662469,-1.5487386,-11.989972,-11.072596,-14.813769
-0.5016936,-0.6845239,-1.4582534,-11.649889,-12.718508,-13.731791
-0.45630923,-0.79789877,-1.3665522,-10.874574,-14.291733,-12.712369
-0.40323523,-0.89070207,-1.2669926,-9.860715,-15.804137,-11.713531
-0.33762667,-0.96386516,-1.1498032,-8.9072275,-17.200516,-10.525077
-0.26496443,-1.0168223,-1.021062,-8.107433,-18.408339,-9.221532
-0.1842845,-1.0619731,-0.88768363,-7.3574853,-19.285057,-7.83699
-0.10510341,-1.107955,-0.762977,-6.602464,-19.985783,-6.4748726
-0.03136572,-1.1562394,-0.6460443,-5.520824,-20.584616,-5.1801877
0.041996658,-1.1827093,-0.53052765,-4.2731767,-21.088541,-3.9507735
0.11381113,-1.1929777,-0.41357508,-3.0227034,-21.508184,-2.6723104
0.19126692,-1.1880208,-0.29130226,-1.8855958,-21.665386,-1.3424944
0.27106988,-1.1661967,-0.17017302,-0.75359786,-21.524645,-0.080899775
0.34825262,-1.1271617,-0.06031313,0.40008,-21.13524,1.1431454
0.41675726,-1.062634,0.037914515,1.5138888,-20.529716,2.2337928
0.477012,-0.9868455,0.12696332,2.5320168,-19.758606,3.1876245
0.53074044,-0.90554035,0.20802513,3.354746,-18.8461,4.0355787
0.57609046,-0.8181117,0.27340397,4.0947156,-17.832745,4.8437066
0.61136144,-0.71627533,0.3182627,4.6537147,-16.731224,5.630397
0.63122934,-0.60076207,0.3441161,5.130574,-15.548096,6.320266
0.6339328,-0.47738934,0.3476955,5.5050898,-14.409507,6.798418
0.6247754,-0.3584595,0.33655158,5.6986823,-13.382505,7.130452
0.58979756,-0.2252036,0.29581735,5.6504364,-12.423692,7.254365
0.54295206,-0.10339518,0.24186876,5.5314555,-11.65071,7.199496
0.48728868,0.0029629492,0.18007143,5.6937633,-11.015915,7.062701
0.42320722,0.10288847,0.10917523,6.318703,-10.558721,6.7438436
0.3615917,0.20044485,0.036036234,7.4830556,-10.208946,6.007187
0.3503296,0.19420181,0.034913853,7.249989,-9.89098,5.8200874
0.33941868,0.18815345,0.03382647,7.02419,-9.582928,5.6388226
0.32884794,0.18229367,0.03277299,6.8054314,-9.28448,5.463209
0.31860676,0.17661656,0.031752355,6.5934925,-8.9953375,5.2930703
0.30868483,0.17111644,0.030763537,6.38816,-8.715208,5.128236
0.29907218,0.16578776,0.029805537,6.1892285,-8.44381,4.9685388
0.2897591,0.16062514,0.028877398,5.9964967,-8.180871,4.8138194
0.2807363,0.15562344,0.027978184,5.8097715,-7.926127,4.6639214
0.27199465,0.1507776,0.027106991,5.6288652,-7.679321,4.518695
0.2635254,0.14608274,0.026262945,5.453596,-7.440205,4.3779936
0.25532,0.14153418,0.025445197,5.2837877,-7.2085404,4.2416763
0.2473703,0.13712732,0.024652928,5.1192703,-6.984093,4.1096063
0.23966825,0.13285777,0.023885341,4.9598784,-6.7666383,3.9816508
0.23220614,0.12872122,0.023141667,4.805452,-6.5559583,3.8576815
0.22497648,0.12471353,0.02242116,4.6558356,-6.3518405,3.737574
0.21797203,0.12083068,0.021723097,4.51088,-6.1540813,3.621208
0.21118575,0.117068775,0.021046776,4.3704395,-5.962482,3.5084662
0.20461085,0.11342404,0.020391522,4.2343736,-5.7768507,3.3992362
0.19824073,0.10989282,0.019756675,4.1025453,-5.5970006,3.2934082
0.192069,0.10647158,0.0191416,3.974823,-5.422752,3.1908762
0.18608949,0.1031569,0.018545682,3.8510783,-5.25393,3.0915375
0.18029618,0.09994544,0.017968321,3.731187,-5.090366,2.9952922
0.17468329,0.09683399,0.01740894,3.6150298,-4.9318953,2.9020443
0.16924518,0.093819425,0.016866978,3.5024896,-4.7783594,2.8117
0.16397643,0.090898745,0.016341893,3.3934538,-4.6296043,2.7241693
0.15887173,0.088069,0.01583316,3.2878132,-4.4854817,2.639364
0.15392599,0.08532738,0.015340267,3.1854622,-4.3458467,2.5571995
0.14913423,0.08267112,0.014862721,3.086298,-4.21056,2.4775934
0.14449169,0.08009756,0.014400044,2.9902217,-4.079485,2.400466
0.1399937,0.077604145,0.013951774,2.8971367,-3.9524915,2.3257399
0.13563575,0.07518836,0.013517461,2.8069499,-3.829452,2.2533405
0.13141347,0.07284779,0.01309667,2.719571,-3.7102432,2.1831954
0.12732267,0.07058009,0.01268898,2.634913,-3.594746,2.1152341
0.12335923,0.06838299,0.012293983,2.5528905,-3.4828448,2.049389
0.11951919,0.0662543,0.011911285,2.4734216,-3.3744276,1.9855934
0.1157987,0.064191885,0.0115405,2.396427,-3.2693856,1.9237843
0.11219404,0.062193677,0.0111812595,2.3218293,-3.167614,1.8638994
0.108701594,0.060257673,0.010833203,2.2495542,-3.0690105,1.8058788
0.10531788,0.058381945,0.010495982,2.179529,-2.973477,1.7496645
0.10203951,0.05656461,0.010169259,2.1116838,-2.8809175,1.6952004
0.0988632,0.054803856,0.009852708,2.0459507,-2.7912395,1.6424317
0.09578577,0.05309791,0.009546012,1.982264,-2.7043533,1.5913059
0.09280414,0.051445074,0.009248862,1.92056,-2.620172,1.5417715
0.089915335,0.04984369,0.008960964,1.8607768,-2.5386114,1.4937793
0.08711646,0.048292164,0.008682027,1.8028547,-2.4595897,1.4472811
0.08440471,0.04678893,0.008411775,1.7467357,-2.383028,1.4022304
0.08177738,0.045332495,0.008149935,1.6923637,-2.3088496,1.358582
0.079231836,0.0439214,0.007896246,1.6396843,-2.2369804,1.3162925
0.07676554,0.04255423,0.0076504545,1.5886447,-2.1673484,1.2753195
0.07437601,0.04122962,0.0074123144,1.5391941,-2.0998843,1.2356218
0.07206087,0.039946243,0.007181587,1.4912827,-2.03452,1.1971599
0.0698178,0.038702816,0.0069580423,1.4448628,-1.9711905,1.1598953
0.067644544,0.037498098,0.006741456,1.3998879,-1.9098324,1.1237907
