ax,ay,az,gx,gy,gz
-2.9409356,1.118192,-2.3791127,-11.985563,-9.6546335,-11.596469
-2.7937381,1.196241,-2.1960957,-12.760031,-11.103268,-12.759778
-2.7291896,1.3538681,-2.0755239,-16.2305,-12.840521,-11.042546
-2.8177636,1.4278324,-2.1133409,-18.17415,-13.940558,-7.4875607
-2.9878895,1.4426636,-2.2259364,-15.696131,-17.391954,-5.1310024
-3.149095,1.5911636,-2.3494024,-14.260154,-21.968088,-5.019296
-3.2036033,1.7642684,-2.4444013,-14.925384,-26.638113,-5.4963913
-3.1274998,1.8046991,-2.4535244,-17.79755,-29.564726,-5.212212
-2.9889357,1.751893,-2.4251344,-20.847023,-30.11789,-3.1921313
-2.9671419,1.7552656,-2.4871597,-23.274698,-29.561687,-1.6358414
-3.108161,1.72987,-2.7269557,-23.11336,-30.931744,-2.303054
-3.2147186,1.6863738,-2.9323487,-21.821463,-33.782917,-3.5612302
-3.214821,1.6666229,-3.0494437,-21.329605,-37.23978,-4.357104
-3.1656618,1.6359464,-3.122982,-21.781122,-40.877308,-4.621128
-3.092375,1.5733851,-3.151544,-20.97915,-43.920425,-4.5662594
-2.9613621,1.5680075,-3.171845,-20.286137,-46.649666,-5.265267
-2.789796,1.5489324,-3.1618724,-19.780209,-49.02344,-6.04813
-2.6223154,1.5449327,-3.1378572,-20.294565,-51.092476,-6.2588077
-2.5394719,1.5419164,-3.1106832,-22.146833,-53.11278,-5.870481
-2.4971037,1.5010297,-3.089558,-24.432016,-55.80197,-5.689428
-2.363191,1.3321931,-3.0315478,-23.873495,-58.316658,-7.190811
-2.1561222,1.1679372,-2.9027693,-20.89888,-60.24414,-9.722128
-1.9117624,1.0724897,-2.704545,-18.56115,-61.52568,-11.220646
-1.7019488,1.0365446,-2.5055623,-18.70361,-62.370407,-10.786781
-1.5775234,1.0103159,-2.3938537,-20.026894,-63.57965,-9.705936
-1.488614,0.9566287,-2.341434,-20.620897,-65.698746,-9.466466
-1.3145114,0.87627196,-2.2060628,-19.983723,-67.975914,-10.125777
-1.054526,0.80255693,-1.9687581,-19.042624,-69.50481,-11.060651
-0.7785068,0.7273864,-1.6916953,-18.56954,-69.91017,-11.462236
-0.5564068,0.6421598,-1.4532967,-18.9012,-69.419716,-11.117587
-0.41504085,0.52378935,-1.2787619,-19.126986,-69.032036,-10.634417
-0.2706336,0.3936335,-1.0941244,-18.82308,-68.81842,-10.268767
-0.087273575,0.279069,-0.8674424,-18.108868,-68.18696,-9.9237585
0.08513092,0.18961859,-0.63679177,-17.428951,-66.976814,-9.424477
0.21506831,0.13340007,-0.44017735,-17.221418,-65.45425,-8.702939
0.31206438,0.08373613,-0.27869764,-17.557756,-63.98026,-7.6563745
0.39039204,0.013434348,-0.13403855,-17.890944,-62.670765,-6.526493
0.4589541,-0.07291006,0.0007992824,-17.001093,-61.373344,-6.2118816
0.5491594,-0.1423491,0.15179887,-15.148128,-59.906055,-6.523626
0.66415286,-0.18508168,0.33313575,-13.880059,-57.79588,-6.3520365
0.7589699,-0.21737416,0.49985787,-13.364271,-55.44259,-5.724302
0.8321479,-0.25660366,0.6360653,-12.856436,-53.064102,-5.1423907
0.90568054,-0.2954492,0.7579268,-12.292902,-50.617188,-4.7034254
0.97482187,-0.3417434,0.8674088,-11.46539,-48.02893,-4.414828
1.0381798,-0.38504857,0.97271234,-10.26299,-45.168655,-4.1513467
1.1022177,-0.42004,1.0799258,-9.074925,-42.16103,-3.7101498
1.1660646,-0.44105884,1.1808876,-7.8600354,-39.01835,-3.2555695
1.2250204,-0.45234084,1.267905,-6.7321844,-35.81492,-2.8026812
1.2767409,-0.46760347,1.3356197,-5.766011,-32.552433,-2.2805367
1.3074332,-0.50074166,1.3790643,-4.535819,-29.286259,-1.8741727
1.3132198,-0.5280695,1.4055043,-2.9068646,-26.23791,-1.8624297
1.3329132,-0.5398809,1.4455266,-1.1131935,-23.26585,-2.1420186
1.379018,-0.54072005,1.5024348,0.11272235,-20.239567,-2.082687
1.4343665,-0.54279166,1.5548091,0.35055983,-16.902733,-1.2622396
1.4562848,-0.5541282,1.5603808,0.3591545,-13.4413,-0.16295688
1.4175317,-0.5754759,1.5027149,1.4591517,-10.181809,0.30569443
1.3712475,-0.5678971,1.4408708,3.1372151,-7.41646,0.24345638
1.3655041,-0.53735614,1.4173441,4.3246017,-4.843055,0.3634884
1.3832599,-0.5008853,1.4088714,4.8213873,-2.0727105,0.8879815
1.3793427,-0.47476566,1.3738924,5.4953713,0.8636207,1.2606475
1.3553596,-0.45096377,1.3129591,6.439002,3.5992584,1.4318407
1.3523674,-0.418535,1.2628415,7.3298373,6.444791,1.7038232
1.3382001,-0.37934804,1.1971437,8.039776,9.272251,1.9939493
1.3030801,-0.3364202,1.1128858,8.84917,11.917435,2.2366507
1.2603823,-0.27678776,1.0224154,9.454041,14.312732,2.5476263
1.2177612,-0.18663225,0.9307306,9.603186,16.522392,2.9636116
1.1681585,-0.08264823,0.8400113,9.336509,18.637484,3.5004282
1.107211,0.028220546,0.7485493,9.000717,20.565905,3.9312663
1.045885,0.14775424,0.6610559,9.060225,22.334011,3.9090297
1.0024587,0.29150814,0.58152825,9.438874,24.136354,3.1440623
0.9585052,0.4553076,0.4831902,9.342404,25.969995,2.2005525
0.88815725,0.5929728,0.35555658,8.529155,27.581715,1.3776008
0.80146325,0.6900781,0.20673867,7.4811335,28.769966,0.5837899
0.7139775,0.7642579,0.049628854,6.7792993,29.595837,-0.5845671
0.6179908,0.82615054,-0.11746616,6.955108,30.133562,-2.404825
0.5180249,0.88845456,-0.27441004,7.0537105,30.51268,-4.1964374
0.42223707,0.94705045,-0.4189628,6.6242585,30.63633,-5.6440406
0.32864952,0.9967919,-0.5559389,5.7268543,30.617147,-6.6859903
0.21604174,1.0426475,-0.7068987,4.5870075,30.373257,-7.611333
0.08188735,1.0814384,-0.87365526,3.56489,29.563822,-8.801139
-0.05155825,1.0999802,-1.0253874,2.6603942,28.457485,-10.058285
-0.16952904,1.0992569,-1.1500689,1.5467643,27.131233,-11.086644
-0.27364028,1.0800276,-1.2510172,0.1329293,25.765076,-11.697927
-0.37365627,1.0587116,-1.344388,-1.3429945,24.302666,-12.151424
-0.4698719,1.0422885,-1.4317518,-2.5626156,22.58987,-12.908733
-0.5538421,1.0191684,-1.4976703,-3.9176426,20.732508,-13.580503
-0.6364814,0.9744094,-1.5580323,-5.752368,18.829077,-13.8304615
-0.72414064,0.9027201,-1.6274493,-7.4539595,16.731667,-13.913542
-0.7917655,0.82685363,-1.6813003,-8.745439,14.433097,-14.095406
-0.83307827,0.76718783,-1.7017869,-9.796927,12.06032,-14.392021
-0.8499921,0.7002688,-1.6893883,-10.874307,9.942583,-14.5989
-0.877768,0.6153991,-1.6886246,-11.869773,7.9302254,-14.674996
-0.910643,0.52035195,-1.6964307,-12.698047,5.8153834,-14.685639
-0.93305904,0.41601408,-1.6990458,-13.186886,3.6203768,-14.732213
-0.93681103,0.30271146,-1.6891593,-13.568651,1.3630183,-14.628414
-0.9336897,0.18401144,-1.6687962,-13.755106,-0.80970794,-14.352268
-0.9389204,0.07609049,-1.6447612,-13.681915,-2.9348962,-14.060042
-0.9375476,-0.020052183,-1.6077003,-13.342053,-5.078918,-13.866698
-0.9136266,-0.11182288,-1.546247,-12.896532,-7.1764045,-13.667977
-0.8720896,-0.20445377,-1.4647664,-12.575654,-9.143017,-13.271517
-0.8296104,-0.30672655,-1.3737305,-12.3944845,-10.950575,-12.614927
-0.7943058,-0.4181812,-1.284963,-12.222819,-12.697504,-11.746437
-0.75801855,-0.5431494,-1.1988281,-11.717372,-14.347624,-10.766145
-0.7145052,-0.6764611,-1.1165837,-10.741976,-15.984015,-9.889018
-0.6556294,-0.8048403,-1.0169153,-9.467652,-17.483355,-8.913707
-0.5722953,-0.9069445,-0.890979,-8.370409,-18.655706,-7.4738116
-0.501152,-0.966287,-0.7804722,-7.311372,-19.528511,-6.029546
-0.44627574,-1.0003427,-0.6862806,-6.114169,-20.316849,-4.8285317
-0.38251364,-1.0352654,-0.58696115,-4.8193192,-21.002422,-3.7146382
-0.30119407,-1.0825049,-0.47387958,-3.0091746,-21.49522,-2.6965306
-0.18303578,-1.1046915,-0.32794708,-1.0996181,-21.70233,-1.5618595
-0.049617514,-1.072025,-0.16837199,0.33911738,-21.37774,-0.28568637
0.055309907,-1.0107005,-0.03660945,1.3770032,-20.711264,1.0514232
0.12668696,-0.935177,0.059111387,2.1769707,-20.039003,2.2858078
0.17956169,-0.8387615,0.13528834,2.7768767,-19.423887,3.2723565
0.21632208,-0.71509546,0.1907267,3.3428237,-18.810884,3.8285642
0.24834986,-0.5932054,0.23474048,3.8378263,-18.12192,4.1067896
0.2750455,-0.4834435,0.26260814,4.416276,-17.250952,4.324967
0.2664749,-0.4683791,0.2544251,4.278662,-16.713402,4.1901984
0.25817195,-0.4537851,0.24649759,4.145345,-16.192636,4.059638
0.25012818,-0.4396467,0.23881756,4.0161905,-15.688128,3.9331534
0.2423355,-0.4259496,0.23137726,3.891067,-15.1993685,3.810617
0.23478602,-0.41267997,0.22416915,3.7698483,-14.725862,3.6919048
0.2274721,-0.3998244,0.21718596,3.6524122,-14.26713,3.5768967
0.22038636,-0.3873699,0.21042064,3.53864,-13.82271,3.4654765
0.21352166,-0.37530392,0.20386635,3.4284167,-13.392154,3.3575323
0.20687106,-0.36361426,0.1975165,3.3216312,-12.975026,3.2529545
0.20042787,-0.35228917,0.19136466,3.218176,-12.570908,3.1516383
0.1941856,-0.34131724,0.18540466,3.1179466,-12.17939,3.0534813
0.18813796,-0.33068737,0.17963049,3.0208426,-11.800079,2.958385
0.18227886,-0.3203889,0.17403632,2.9267657,-11.432594,2.8662531
0.1766024,-0.31041148,0.16861656,2.8356214,-11.076565,2.7769933
0.17110287,-0.30074504,0.16336572,2.7473183,-10.731632,2.6905158
0.16577475,-0.2913799,0.15827854,2.6617672,-10.397451,2.6067336
0.16061269,-0.28230658,0.15334989,2.5788822,-10.073685,2.5255623
0.15561149,-0.27351606,0.14857484,2.4985802,-9.760007,2.4469206
0.15076612,-0.26499942,0.14394857,2.4207804,-9.456104,2.3707294
0.14607172,-0.25674817,0.13946646,2.3454049,-9.161671,2.2969122
0.1415236,-0.24875396,0.135124,2.2723777,-8.87641,2.225395
0.13711716,-0.24100883,0.13091682,2.2016256,-8.600037,2.1561058
0.132848,-0.233505,0.1268407,2.1330776,-8.3322735,2.088975
0.12871182,-0.2262349,0.12289156,2.066665,-8.072851,2.0239356
0.12470448,-0.21919127,0.119065434,2.0023212,-7.8215094,1.960922
0.12082197,-0.21236703,0.11535849,1.9399815,-7.5779967,1.8998712
0.117060386,-0.20575535,0.111767,1.8795835,-7.342069,1.8407221
0.113415964,-0.1993496,0.10828737,1.8210666,-7.113489,1.7834151
0.10988504,-0.19314334,0.10491611,1.7643723,-6.892029,1.7278929
0.10646408,-0.18713038,0.10164985,1.7094437,-6.677465,1.6740999
0.10314967,-0.18130466,0.098485306,1.6562256,-6.4695835,1.6219821
0.09993846,-0.17566039,0.09541931,1.6046648,-6.2681756,1.5714874
0.09682725,-0.17019187,0.09244879,1.5547097,-6.0730395,1.5225651
0.093812935,-0.16489363,0.089570776,1.5063101,-5.8839803,1.4751662
0.09089247,-0.15976039,0.08678238,1.4594176,-5.700808,1.4292433
0.08806295,-0.15478697,0.08408081,1.4139854,-5.5233393,1.3847504
0.08532153,-0.14996843,0.08146335,1.3699677,-5.3513966,1.3416429
0.08266547,-0.14529991,0.0789274,1.3273206,-5.184808,1.2998775
0.08009212,-0.14077675,0.076470405,1.2860013,-5.023406,1.2594125
0.07759888,-0.13639443,0.074089915,1.2459687,-4.867029,1.2202076
0.07518327,-0.13214855,0.071783535,1.2071824,-4.7155213,1.1822232
0.07284287,-0.12803486,0.069548965,1.1696037,-4.568731,1.1454214
0.070575334,-0.12404925,0.06738397,1.1331949,-4.4265103,1.1097655
0.068378404,-0.12018772,0.065286376,1.0979197,-4.2887173,1.0752196
0.06624986,-0.11644642,0.06325409,1.0637428,-4.155215,1.0417494
0.06418759,-0.112821594,0.06128507,1.0306299,-4.0258684,1.009321
0.06218952,-0.10930962,0.059377354,0.99854785,-3.9005487,0.9779023
0.060253657,-0.10590698,0.05752903,0.96746457,-3.7791307,0.9474617
0.05837806,-0.10261027,0.055738244,0.937349,-3.6614926,0.91796875
0.05656085,-0.09941619,0.05400321,0.90817094,-3.5475166,0.889394
0.054800216,-0.096321546,0.05232219,0.8799013,-3.437089,0.8617088
0.05309439,-0.093323246,0.0506935,0.85251164,-3.330099,0.8348855
0.05144167,-0.09041828,0.049115513,0.82597464,-3.2264397,0.80889714
0.049840398,-0.08760375,0.04758665,0.80026376,-3.1260073,0.7837179
0.048288975,-0.08487683,0.04610538,0.7753533,-3.0287015,0.7593224
0.046785846,-0.0822348,0.04467022,0.75121826,-2.9344249,0.7356864
0.045329507,-0.07967502,0.04327974,0.7278346,-2.843083,0.7127862
0.04391851,-0.07719493,0.041932542,0.7051788,-2.7545843,0.69059885
0.04255143,-0.074792035,0.040627286,0.68322825,-2.668841,0.66910213
0.04122691,-0.072463945,0.039362658,0.6619611,-2.5857663,0.64827466
0.03994362,-0.07020832,0.038137395,0.6413559,-2.5052779,0.62809545
0.038700275,-0.068022914,0.036950275,0.6213921,-2.427295,0.60854447
