ax,ay,az,gx,gy,gz
7.2955203,7.269157,7.3564305,-45.721325,96.71361,-74.74068
6.9064755,6.8469324,6.890717,-64.47586,109.49312,-77.57438
5.721596,6.2238903,5.498933,-75.652275,113.695854,-80.61234
4.890328,5.638582,4.1796813,-87.73298,113.29563,-84.17225
4.5315576,4.876267,3.0499592,-96.10969,114.07566,-85.83314
4.3090467,3.9893625,1.9148707,-100.910934,115.125916,-84.5979
4.083959,3.063439,0.86570114,-101.22166,116.02996,-78.69115
3.727074,2.2317283,-0.16195518,-100.2444,115.09401,-71.87804
3.2715185,1.5095391,-1.0523682,-98.21047,112.94826,-66.11646
2.7832,0.92097795,-1.791911,-94.59748,109.55625,-61.725185
2.3236141,0.4922868,-2.3710656,-90.2828,105.08163,-57.812267
1.9049429,0.202529,-2.8164718,-85.79114,99.18878,-54.25662
1.5324142,-0.0004947502,-3.1350152,-81.42366,93.11114,-50.812298
1.2136981,-0.13874207,-3.375623,-76.946785,87.348976,-47.781204
0.8999043,-0.24939802,-3.58724,-72.28368,81.51473,-45.14978
0.60348254,-0.34510344,-3.778755,-67.52968,75.26119,-42.77857
0.3350739,-0.41351068,-3.938869,-62.615097,68.25233,-40.516552
0.089805506,-0.45285055,-4.041884,-58.120506,61.13128,-38.347485
-0.11271606,-0.48492062,-4.1114736,-53.83366,54.02141,-36.056343
-0.27328482,-0.5094152,-4.15814,-49.921387,47.00699,-33.99039
-0.3866501,-0.5344871,-4.188493,-46.064705,40.33226,-32.56731
-0.44728097,-0.58350205,-4.2035685,-41.659763,34.162827,-31.482233
-0.5101638,-0.6383358,-4.227252,-37.32853,27.82883,-30.470997
-0.5785866,-0.6816005,-4.229969,-33.048946,21.111801,-29.253572
-0.6368874,-0.7009991,-4.1946225,-29.253233,14.124943,-27.58983
-0.6679978,-0.6774626,-4.0988784,-26.04694,7.1437635,-25.448978
-0.6646208,-0.62259865,-3.958039,-23.118017,0.5368979,-23.363188
-0.63704836,-0.5389688,-3.777366,-20.290634,-5.556298,-22.061209
-0.5746036,-0.44939727,-3.5699973,-17.755693,-10.899783,-21.287256
-0.4940103,-0.3651831,-3.3423903,-15.50715,-15.609698,-20.494438
-0.40952343,-0.29696512,-3.1096222,-13.608643,-19.839293,-19.324656
-0.33638385,-0.23658393,-2.8783607,-11.944798,-23.760569,-17.927406
-0.26873356,-0.15011592,-2.6231747,-10.497019,-27.260193,-16.721407
-0.20120512,-0.046911553,-2.362193,-9.357053,-30.426123,-15.918214
-0.11385685,0.061396305,-2.0883589,-8.465084,-33.124737,-15.558398
-0.00077381614,0.17213279,-1.7962765,-7.8040957,-35.192364,-15.299068
0.12758671,0.28506532,-1.4981123,-7.6566606,-36.518364,-14.768909
0.2517503,0.3944119,-1.2053398,-7.810756,-37.22247,-14.169063
0.35031462,0.48807392,-0.9408137,-8.151402,-37.360397,-13.843944
0.4234346,0.5566685,-0.71568525,-8.395683,-37.03206,-13.891225
0.4780894,0.61117005,-0.52518255,-8.617636,-36.451466,-14.126372
0.51826173,0.65155476,-0.36780968,-8.855868,-35.794147,-14.569833
0.54883397,0.6762136,-0.23528466,-9.146504,-35.100796,-15.015405
0.5816413,0.69927293,-0.10883013,-9.551532,-34.30838,-15.420083
0.61822987,0.722014,0.012057142,-9.962774,-33.336147,-15.937814
0.66575974,0.73931897,0.13169907,-10.218924,-32.105614,-16.5081
0.72848356,0.77755165,0.26901394,-10.458191,-30.405474,-17.09908
0.81692106,0.8660897,0.45394742,-10.890783,-28.361992,-17.67655
0.93001485,1.0166816,0.6901892,-11.832545,-25.921686,-18.345327
1.0792282,1.2077104,0.9612495,-13.345551,-23.052086,-19.113964
1.2758843,1.4284316,1.2580749,-15.417163,-19.353516,-20.140862
1.5086391,1.6512673,1.5408975,-18.502962,-13.910616,-21.234745
1.7047513,1.8232719,1.6964447,-22.232004,-7.779478,-22.05256
1.8452611,1.928007,1.7200797,-26.29797,-1.4382626,-22.583847
1.9280716,1.9592462,1.6242719,-30.518068,4.996726,-23.020575
1.9320294,1.8961724,1.4047047,-34.476055,11.148491,-23.813843
1.8637626,1.7376692,1.0996559,-37.41464,16.467844,-25.124117
1.7551612,1.5083684,0.7521765,-39.72497,20.798882,-26.291023
1.6323185,1.2474248,0.410709,-41.551754,24.209059,-26.95552
1.4848511,0.9759493,0.08124453,-42.69334,26.7227,-27.103352
1.317702,0.71498823,-0.22247277,-43.18602,28.356667,-26.857384
1.1486614,0.48859462,-0.48316047,-42.94171,28.968473,-26.396582
0.9873722,0.3176768,-0.681589,-42.228523,29.134928,-26.168783
0.836878,0.17829691,-0.8450787,-41.17787,28.994509,-26.24208
0.6938672,0.05493115,-0.98416567,-39.77839,28.572205,-26.391432
0.5600408,-0.041008603,-1.099464,-38.279686,27.731197,-26.376936
0.43505225,-0.11346888,-1.1922922,-36.655823,26.294767,-26.280762
0.33418366,-0.15638551,-1.2547289,-34.772434,24.62764,-26.33429
0.25075796,-0.18668154,-1.3034418,-32.741825,22.944435,-26.787565
0.18705568,-0.222692,-1.3384713,-30.498909,21.436268,-27.795938
0.15444998,-0.27501455,-1.3528479,-28.116945,20.258186,-28.805674
0.14724986,-0.35224563,-1.3544108,-25.963463,19.156082,-28.483627
0.15851468,-0.42628866,-1.336012,-24.199026,18.138865,-27.046158
0.17746416,-0.49973238,-1.313684,-22.65531,17.27323,-25.06952
0.17184228,-0.48390135,-1.2720678,-21.93761,16.72603,-24.275345
0.16640435,-0.46858835,-1.2318133,-21.243399,16.196737,-23.507154
0.16114382,-0.4537749,-1.1928722,-20.571833,15.684711,-22.764025
0.15605444,-0.43944338,-1.1551979,-19.922115,15.1893425,-22.04507
0.15113018,-0.42557687,-1.1187458,-19.293478,14.710047,-21.349445
0.1463653,-0.41215914,-1.0834737,-18.685186,14.2462635,-20.676332
0.14175427,-0.39917466,-1.0493404,-18.096537,13.797456,-20.024954
0.13729179,-0.38660848,-1.0163068,-17.526852,13.363107,-19.394562
0.13297279,-0.37444633,-0.9843352,-16.975481,12.942722,-18.784437
0.12879238,-0.36267444,-0.9533895,-16.441805,12.535828,-18.19389
0.12474585,-0.3512796,-0.92343503,-15.92522,12.141965,-17.622255
0.12082871,-0.3402491,-0.89443827,-15.425153,11.760695,-17.0689
0.11703661,-0.32957068,-0.86636716,-14.941048,11.391597,-16.533207
0.113365375,-0.3192326,-0.8391907,-14.472373,11.034262,-16.01459
0.109810986,-0.30922356,-0.8128792,-14.018615,10.6883,-15.512478
0.10636957,-0.29953268,-0.787404,-13.579279,10.353334,-15.026325
0.103037395,-0.2901494,-0.76273745,-13.15389,10.029002,-14.555604
0.09981087,-0.28106362,-0.73885304,-12.741987,9.714952,-14.099809
0.09668653,-0.2722656,-0.715725,-12.343129,9.41085,-13.658447
0.09366103,-0.26374593,-0.6933287,-11.956891,9.116367,-13.2310505
0.09073116,-0.25549552,-0.6716402,-11.582859,8.831192,-12.817162
0.0878938,-0.24750562,-0.6506366,-11.220638,8.555021,-12.416341
0.08514596,-0.2397678,-0.6302956,-10.869845,8.287564,-12.028167
0.08248474,-0.2322739,-0.6105958,-10.53011,8.028538,-11.652228
0.07990734,-0.22501604,-0.59151655,-10.2010765,7.7776704,-11.288132
0.07741107,-0.21798664,-0.5730378,-9.882399,7.5346994,-10.935495
0.07499331,-0.21117833,-0.5551403,-9.573746,7.299371,-10.59395
0.072651565,-0.20458405,-0.53780544,-9.274795,7.0714393,-10.263143
0.07038338,-0.19819693,-0.5210151,-8.985235,6.8506684,-9.942726
0.06818641,-0.19201034,-0.504752,-8.704766,6.63683,-9.632371
0.06605838,-0.1860179,-0.48899922,-8.4331,6.4297013,-9.331755
0.063997105,-0.18021342,-0.47374052,-8.169954,6.229069,-9.040567
0.062000446,-0.17459092,-0.45896024,-7.9150586,6.0347276,-8.75851
0.06006636,-0.1691446,-0.44464308,-7.6681504,5.846476,-8.485291
0.058192857,-0.16386889,-0.43077442,-7.428977,5.664121,-8.22063
0.056378018,-0.15875836,-0.41734,-7.197292,5.4874763,-7.9642553
0.054619983,-0.1538078,-0.4043261,-6.972859,5.3163605,-7.7159066
0.05291696,-0.14901215,-0.39171943,-6.755449,5.150599,-7.475328
0.051267207,-0.14436652,-0.37950706,-6.544839,4.9900227,-7.242275
0.049669042,-0.13986614,-0.36767662,-6.340815,4.8344674,-7.01651
0.048120838,-0.13550645,-0.35621598,-6.1431694,4.683775,-6.797803
0.04662102,-0.13128303,-0.34511355,-5.951701,4.5377927,-6.585931
0.04516807,-0.12719157,-0.334358,-5.7662153,4.3963714,-6.380679
0.043760505,-0.123227924,-0.3239385,-5.5865235,4.259368,-6.181839
0.0423969,-0.11938806,-0.31384435,-5.412444,4.1266437,-5.989209
0.041075874,-0.1156681,-0.3040654,-5.2438,3.9980633,-5.802594
0.039796088,-0.11206428,-0.29459178,-5.080421,3.8734972,-5.621805
0.03855625,-0.108572945,-0.28541383,-4.922142,3.7528193,-5.446659
0.037355106,-0.10519057,-0.27652234,-4.768802,3.6359076,-5.276979
0.03619144,-0.10191373,-0.26790828,-4.620247,3.5226438,-5.1125937
0.035064083,-0.098739125,-0.25956294,-4.476327,3.4129138,-4.9533367
0.033971887,-0.09566355,-0.25147796,-4.336896,3.3066068,-4.7990475
0.03291376,-0.092683904,-0.24364513,-4.201814,3.2036152,-4.649571
0.03188863,-0.08979718,-0.23605658,-4.070945,3.1038358,-4.504756
0.030895468,-0.08700047,-0.22870466,-3.9441562,3.0071676,-4.3644567
0.029933272,-0.08429096,-0.22158197,-3.8213208,2.9135134,-4.2285314
0.029001072,-0.08166592,-0.21468133,-3.702315,2.8227792,-4.096844
0.028097931,-0.07912271,-0.2079958,-3.587019,2.7348733,-3.9692616
0.02722294,-0.07665877,-0.20151867,-3.4753165,2.6497073,-3.845656
0.026375223,-0.074271634,-0.1952434,-3.3670957,2.567196,-3.7259028
0.025553923,-0.071958885,-0.18916371,-3.2622476,2.4872558,-3.6098819
0.024758218,-0.069718204,-0.18327348,-3.1606667,2.409807,-3.4974763
0.023987308,-0.06754735,-0.17756678,-3.0622513,2.3347714,-3.3885734
0.023240417,-0.065444134,-0.1720379,-2.9669023,2.2620738,-3.2830637
0.022516796,-0.063406445,-0.16668127,-2.8745239,2.191641,-3.1808412
0.02181572,-0.061432242,-0.16149154,-2.7850235,2.1234028,-3.0818033
0.021136483,-0.05951954,-0.15646347,-2.6983113,2.0572903,-2.985851
0.020478407,-0.05766642,-0.15159205,-2.6143005,1.9932374,-2.8928876
0.01984083,-0.055871025,-0.14687236,-2.5329065,1.9311796,-2.80282
0.01922311,-0.054131553,-0.14229967,-2.4540477,1.8710549,-2.7155578
0.018624632,-0.05244626,-0.13786942,-2.3776453,1.8128028,-2.6310136
0.018044794,-0.05081346,-0.13357715,-2.3036222,1.7563651,-2.5491025
0.017483015,-0.049231507,-0.12941855,-2.2319047,1.7016851,-2.4697428
0.016938731,-0.047698826,-0.12538949,-2.1624207,1.648708,-2.3928542
0.016411398,-0.046213876,-0.12148588,-2.0951006,1.5973806,-2.3183603
0.015900487,-0.04477517,-0.11770384,-2.029877,1.5476518,-2.2461865
0.0154054845,-0.043381263,-0.11403958,-1.9666845,1.4994715,-2.17626
0.014925898,-0.042030763,-0.11048942,-1.9054598,1.4527916,-2.108511
0.014461244,-0.040722318,-0.10704981,-1.8461416,1.4075652,-2.0428715
0.01401106,-0.039454613,-0.103717305,-1.7886704,1.3637471,-1.9792761
0.013574893,-0.038226385,-0.100488566,-1.7329887,1.3212934,-1.9176608
0.013152306,-0.037036397,-0.09736036,-1.6790408,1.2801615,-1.857964
0.012742878,-0.03588346,-0.09432954,-1.6267725,1.2403103,-1.800126
0.012346197,-0.034766424,-0.091393106,-1.5761318,1.2017,-1.7440888
0.011961867,-0.033684164,-0.08854809,-1.5270677,1.1642917,-1.6897963
0.011589503,-0.032635603,-0.085791655,-1.4795312,1.1280482,-1.6371942
0.011228732,-0.031619683,-0.08312104,-1.4334748,1.092933,-1.5862298
0.010879193,-0.030635396,-0.080533564,-1.3888521,1.0589112,-1.5368521
0.010540537,-0.029681752,-0.07802665,-1.3456188,1.0259485,-1.4890116
0.010212423,-0.028757798,-0.07559778,-1.3037314,0.9940121,-1.4426607
0.009894526,-0.027862608,-0.07324453,-1.2631482,0.9630699,-1.3977528
0.009586524,-0.026995288,-0.07096454,-1.2238283,0.93309104,-1.3542428
0.009288111,-0.026154969,-0.06875553,-1.1857325,0.90404546,-1.3120875
0.008998988,-0.02534081,-0.06661529,-1.1488228,0.8759041,-1.2712445
0.008718867,-0.024551999,-0.06454168,-1.113062,0.84863883,-1.231673
0.008447465,-0.023787742,-0.06253262,-1.0784146,0.8222223,-1.1933334
0.008184512,-0.023047278,-0.060586106,-1.0448456,0.7966282,-1.1561873
0.007929745,-0.022329863,-0.058700185,-1.0123217,0.7718308,-1.1201977
0.0076829097,-0.021634784,-0.056872975,-0.9808104,0.74780536,-1.0853282
0.0074437577,-0.02096134,-0.055102646,-0.95027995,0.72452784,-1.0515444
0.0072120507,-0.020308862,-0.05338743,-0.9206999,0.701975,-1.0188122
0.0069875563,-0.019676695,-0.051725604,-0.89204067,0.68012416,-0.987099
0.0067700506,-0.019064207,-0.05011551,-0.8642736,0.6589535,-0.956373
0.0065593156,-0.018470785,-0.048555538,-0.8373709,0.6384419,-0.92660344
0.0063551404,-0.017895835,-0.047044124,-0.81130564,0.61856884,-0.8977606
0.0061573214,-0.017338784,-0.04557976,-0.78605175,0.59931433,-0.8698156
