ax,ay,az,gx,gy,gz
-2.1663833,8.087346,-9.113719,-138.16307,-72.02247,-6.048237
-1.5491759,4.71713,-5.897701,-191.12996,-107.413734,-17.328957
-0.9202382,1.4886608,-3.9284244,-136.48392,-67.11923,-8.80967
-0.8976576,1.1957091,-4.1077642,-95.18219,-45.59275,-2.7980103
-1.022621,1.1855065,-4.4953237,-63.2755,-32.30964,2.920368
-1.5224633,1.31798,-5.3026953,-40.117588,-30.215094,5.6793547
-1.8419635,1.377072,-6.1316986,-22.944988,-36.18194,3.3791115
-1.9039212,1.3417509,-6.9480605,-18.69636,-46.844803,-0.36661926
-1.7533927,1.0025918,-7.5742626,-16.608131,-57.278225,-4.6003723
-1.4963332,0.49929103,-8.085728,-8.493416,-66.84446,-7.9680734
-1.284474,-0.06057431,-8.666951,0.34884003,-77.12512,-7.9250665
-1.0562996,-0.6317203,-9.211013,8.737415,-89.07413,-5.1652303
-0.7709633,-1.1610816,-9.645273,15.684684,-102.63555,-0.5481077
-0.38726795,-1.6314828,-9.833986,23.65761,-115.4582,5.3169036
0.07007707,-1.9126028,-9.736499,31.313908,-126.4367,13.031434
0.5391657,-1.863392,-9.184083,37.98151,-135.53587,20.893543
1.0567731,-1.5644699,-8.27219,43.9179,-142.43729,27.555462
1.6530516,-1.0399419,-7.027539,49.466103,-146.14104,32.507847
2.3789027,-0.34168023,-5.4431396,53.201015,-145.78877,36.961838
3.159135,0.59595776,-3.6344287,52.25566,-138.36397,40.31371
3.800131,1.5261108,-1.8788873,47.673386,-126.18979,41.905994
4.326282,2.3105934,-0.5209194,42.41843,-110.90876,40.57698
4.7169123,2.829413,0.45623985,35.35692,-94.51934,37.22003
5.00804,3.0135808,1.0914551,28.017136,-77.067085,33.463356
5.19269,2.964654,1.3873407,21.342232,-59.44978,30.373917
5.133678,2.8132513,1.2586122,16.019445,-44.28415,26.80042
4.916527,2.579279,0.9849547,14.064166,-31.514315,22.741026
4.6412277,2.4080997,0.6293777,12.843723,-21.017878,18.412827
4.3321486,2.2710228,0.20931621,12.395741,-12.834709,13.811327
4.0237136,2.1248686,-0.24743114,13.544383,-6.963398,9.395444
3.7397435,2.0511556,-0.8126855,15.688169,-3.763044,5.151473
3.4954975,2.0921233,-1.3855193,16.733627,-3.473336,0.99066865
3.2916522,2.176922,-1.9252572,18.379572,-4.272335,-3.0842624
3.061072,2.349831,-2.5343978,19.071922,-7.088664,-7.907493
2.7959416,2.5300717,-3.1441722,19.355228,-12.833952,-14.5596285
2.5346756,2.777584,-3.7271154,17.844461,-21.61793,-21.841862
2.357528,3.0268872,-4.177802,14.519404,-32.305813,-29.104704
2.2942758,3.1609056,-4.492515,9.884725,-43.119225,-35.916046
2.3230152,3.0860043,-4.6985493,4.6386247,-53.581284,-41.643917
2.4092002,2.8043015,-4.7631407,0.68163973,-62.71185,-45.450706
2.5284905,2.4406412,-4.654808,-3.0687819,-71.27163,-47.17954
2.735413,1.9723933,-4.3623586,-5.5990977,-77.63901,-47.676548
3.0072184,1.4550892,-3.9528377,-7.472746,-81.72797,-46.884075
3.276853,0.90977,-3.5292103,-8.134851,-83.491,-45.14221
3.53198,0.3717787,-3.1228073,-8.770859,-83.66208,-41.27635
3.7742224,-0.18372557,-2.7010195,-8.826637,-82.572495,-35.93729
3.9855213,-0.7288801,-2.3228965,-7.521291,-79.94364,-29.350117
4.175582,-1.2256198,-2.0098639,-5.019219,-75.702896,-21.433245
4.3332486,-1.6048987,-1.7545356,-1.8515024,-69.969215,-13.290134
4.4245114,-1.8772233,-1.5928267,3.1073902,-63.033966,-6.7928367
4.4158597,-2.0569484,-1.5738103,9.414987,-55.977783,-1.1888505
4.368341,-2.1359882,-1.6033846,16.21326,-49.41428,4.5027184
4.319121,-2.057749,-1.6331042,22.606316,-43.261337,10.422444
4.250895,-1.7851031,-1.6752446,27.819067,-37.9386,15.786704
4.1501904,-1.3786565,-1.7232716,31.786566,-33.956203,18.233986
4.0200267,-0.9004777,-1.7398293,35.593918,-30.434618,18.905235
3.8599827,-0.35821617,-1.7562437,38.130474,-27.653591,18.49833
3.6988065,0.25116947,-1.7410291,38.757107,-25.325092,17.38201
3.5485656,0.90422755,-1.7050917,37.925632,-22.800846,14.542995
3.3735988,1.5346993,-1.7130039,34.920902,-20.827526,8.898292
3.1718318,2.0442588,-1.7392819,31.649385,-19.056639,1.8090559
2.9872036,2.461239,-1.7897482,28.102846,-17.606764,-6.230298
2.8419592,2.7717123,-1.8585618,23.669668,-16.77933,-14.485259
2.7440035,2.9311998,-1.9426035,19.021626,-16.391811,-22.478672
2.7137597,2.9026225,-2.0685463,14.061843,-17.229218,-29.306097
2.8338873,2.560962,-2.1855664,9.498697,-18.60836,-33.87798
3.0591245,2.045503,-2.2664375,5.3271456,-20.044355,-35.71462
3.3058333,1.4334073,-2.28517,1.9076786,-20.848017,-34.859104
3.4651093,0.833934,-2.2708888,0.1645275,-20.835209,-31.997274
3.49272,0.34211284,-2.2553952,0.92998725,-20.700226,-27.734564
3.4164088,0.05819399,-2.1864815,3.141069,-20.565823,-23.732447
3.307782,0.056343675,-2.1169608,3.0411966,-19.91192,-22.977858
3.202746,0.054554526,-2.0497384,2.9446259,-19.279633,-22.248215
3.1011696,0.052824307,-1.9847301,2.8512359,-18.66817,-21.542603
3.0029275,0.051150884,-1.9218559,2.7609115,-18.076782,-20.860155
2.9079003,0.049532223,-1.8610389,2.6735427,-17.504744,-20.200037
2.8159733,0.047966365,-1.8022062,2.5890243,-16.951368,-19.561457
2.7270367,0.04645145,-1.7452873,2.5072556,-16.415997,-18.94365
2.6409857,0.044985685,-1.6902152,2.4281397,-15.897993,-18.345888
2.55772,0.043567363,-1.6369256,2.3515844,-15.396756,-17.767471
2.4771426,0.042194836,-1.5853566,2.277501,-14.911703,-17.207733
2.399161,0.040866528,-1.5354489,2.2058046,-14.442278,-16.666027
2.323687,0.039580923,-1.4871459,2.1364133,-13.987944,-16.141739
2.2506347,0.038336575,-1.4403929,2.0692484,-13.548189,-15.634273
2.179922,0.037132077,-1.3951372,2.0042348,-13.1225195,-15.14306
2.1114705,0.035966095,-1.3513285,1.9412998,-12.71046,-14.667553
2.0452037,0.03483733,-1.3089184,1.8803738,-12.311553,-14.207225
1.9810493,0.033744544,-1.2678598,1.8213898,-11.925361,-13.761569
1.9189366,0.03268654,-1.228108,1.7642831,-11.55146,-13.330097
1.8587981,0.03166216,-1.1896198,1.7089913,-11.189444,-12.912338
1.8005687,0.030670298,-1.1523533,1.6554548,-10.838919,-12.507842
1.7441856,0.029709885,-1.1162684,1.6036158,-10.499508,-12.11617
1.689588,0.028779889,-1.0813262,1.5534184,-10.170846,-11.736902
1.6367177,0.027879314,-1.0474896,1.5048091,-9.852582,-11.369634
1.5855185,0.027007204,-1.0147225,1.4577361,-9.544376,-11.013972
1.5359359,0.02616263,-0.9829899,1.4121497,-9.245904,-10.669542
1.4879177,0.025344701,-0.95225847,1.3680013,-8.956847,-10.335978
1.441413,0.024552558,-0.9224958,1.3252447,-8.676902,-10.012929
1.3963733,0.023785366,-0.8936706,1.2838348,-8.405775,-9.700055
1.3527511,0.023042321,-0.8657527,1.2437284,-8.143183,-9.397029
1.3105011,0.022322647,-0.838713,1.2048835,-7.8888493,-9.103535
1.2695792,0.021625597,-0.8125232,1.1672596,-7.642511,-8.819267
1.2299429,0.020950446,-0.78715616,1.1308177,-7.403911,-8.543929
1.1915511,0.020296492,-0.76258564,1.0955199,-7.1728034,-8.277236
1.154364,0.019663058,-0.73878616,1.06133,-6.9489474,-8.018912
1.1183434,0.019049495,-0.7157331,1.0282123,-6.7321134,-7.7686906
1.083452,0.018455166,-0.6934028,0.9961329,-6.522077,-7.5263143
1.049654,0.017879462,-0.67177236,0.9650588,-6.3186226,-7.291533
1.0169147,0.017321791,-0.65081936,0.9349581,-6.1215415,-7.064106
0.9852005,0.016781583,-0.6305225,0.9057999,-5.930631,-6.8438
0.9544791,0.016258284,-0.61086094,0.87755436,-5.7456965,-6.63039
0.9247189,0.015751358,-0.59181464,0.85019267,-5.5665483,-6.423658
0.8958896,0.01526029,-0.573364,0.82368684,-5.393004,-6.223392
0.8679618,0.014784577,-0.55549043,0.7980098,-5.224887,-6.029389
0.8409071,0.014323737,-0.5381756,0.77313554,-5.062025,-5.8414507
0.814698,0.013877299,-0.5214019,0.7490387,-4.9042535,-5.6593857
0.7893078,0.01344481,-0.5051523,0.7256948,-4.7514114,-5.48301
0.76471066,0.013025831,-0.4894103,0.70308006,-4.603344,-5.312144
0.7408818,0.012619939,-0.47416,0.68117166,-4.459901,-5.146614
0.71779704,0.012226719,-0.45938584,0.65994734,-4.3209367,-4.9862533
0.6954329,0.011845777,-0.44507295,0.63938564,-4.1863112,-4.8308983
0.67376685,0.011476724,-0.4312068,0.6194657,-4.0558877,-4.6803927
0.65277696,0.01111919,-0.4177734,0.60016745,-3.9295342,-4.5345845
0.63244206,0.01077281,-0.40475917,0.5814714,-3.8071237,-4.393326
0.61274153,0.010437239,-0.39215094,0.5633586,-3.688532,-4.256474
0.5936555,0.010112135,-0.37993604,0.5458108,-3.5736399,-4.1238914
0.57516485,0.00979717,-0.3681021,0.5288104,-3.462331,-3.9954438
0.55725086,0.0094920285,-0.35663724,0.5123401,-3.3544936,-3.871002
0.5398954,0.009196402,-0.34552985,0.4963834,-3.2500188,-3.7504406
0.5230811,0.008909992,-0.3347688,0.48092422,-3.1488016,-3.6336384
0.506791,0.008632512,-0.32434323,0.465947,-3.0507398,-3.5204775
0.4910087,0.008363682,-0.31424266,0.45143664,-2.9557347,-3.410844
0.47571835,0.008103231,-0.30445692,0.4373786,-2.863691,-3.304628
0.46090454,0.0078508975,-0.29497617,0.4237587,-2.774516,-3.2017224
0.44655243,0.0076064277,-0.2857909,0.41056326,-2.6881204,-3.1020238
0.43264753,0.0073695765,-0.27689186,0.39777902,-2.6044168,-3.0054321
0.41917595,0.007140106,-0.26827013,0.38539314,-2.5233216,-2.9118502
0.4061241,0.006917785,-0.25991702,0.37339318,-2.4447532,-2.8211842
0.3934789,0.006702391,-0.25182417,0.3617671,-2.3686326,-2.733343
0.38122764,0.006493707,-0.24398345,0.35050324,-2.2948835,-2.6482384
0.36935806,0.0062915245,-0.23638698,0.33959025,-2.223432,-2.565785
0.35785824,0.0060956404,-0.22902715,0.32901722,-2.1542063,-2.4859002
0.3467166,0.005905858,-0.22189659,0.31877357,-2.0871367,-2.4085038
0.33592206,0.0057219863,-0.21498813,0.30884895,-2.0221565,-2.3335183
0.3254637,0.005543842,-0.20829484,0.2992335,-1.9592003,-2.260868
0.31533107,0.0053712465,-0.20181003,0.2899175,-1.8982047,-2.1904807
0.30551404,0.005204026,-0.19552718,0.28089163,-1.8391088,-2.1222856
0.29600275,0.0050420137,-0.18944,0.27214688,-1.7818534,-2.0562143
0.28678763,0.0048850467,-0.18354239,0.26367444,-1.7263811,-1.9922007
0.2778595,0.004732968,-0.17782843,0.25546587,-1.6726363,-1.9301805
0.2692094,0.0045856247,-0.17229243,0.2475129,-1.620565,-1.8700917
0.26082867,0.00444287,-0.1669288,0.23980759,-1.5701154,-1.8118739
0.25270888,0.0043045604,-0.1617322,0.23234223,-1.5212367,-1.7554691
0.24484195,0.0041705575,-0.15669739,0.22510931,-1.4738799,-1.7008206
0.23721997,0.0040407274,-0.15181938,0.2181016,-1.4279977,-1.6478738
0.22983532,0.0039149397,-0.14709324,0.21131212,-1.3835441,-1.5965754
0.22268058,0.0037930682,-0.14251426,0.20473401,-1.3404747,-1.5468744
0.21574864,0.0036749917,-0.13807784,0.19836073,-1.2987462,-1.4987208
0.2090325,0.0035605913,-0.13377956,0.19218586,-1.258317,-1.4520664
0.20252547,0.0034497527,-0.1296151,0.18620326,-1.2191465,-1.4068646
0.19622104,0.003342365,-0.1255803,0.18040691,-1.1811956,-1.3630702
0.19011287,0.0032383206,-0.12167112,0.17479104,-1.1444262,-1.3206393
0.1841949,0.0031375154,-0.11788364,0.16935,-1.1088016,-1.2795293
0.17846113,0.0030398488,-0.11421407,0.16407835,-1.074286,-1.2396992
0.1729059,0.0029452224,-0.11065875,0.15897083,-1.040845,-1.2011092
0.16752361,0.0028535423,-0.107214116,0.1540223,-1.0084451,-1.1637205
0.16230887,0.0027647163,-0.10387672,0.14922784,-0.9770539,-1.1274958
0.15725648,0.0026786553,-0.10064322,0.14458264,-0.9466399,-1.0923988
0.15236138,0.0025952738,-0.097510375,0.14008206,-0.91717273,-1.0583944
0.14761865,0.0025144878,-0.09447507,0.13572156,-0.88862294,-1.0254487
0.14302358,0.002436217,-0.09153425,0.13149683,-0.86096185,-0.9935285
0.13857156,0.0023603826,-0.088684976,0.1274036,-0.83416194,-0.962602
0.13425812,0.002286909,-0.0859244,0.12343781,-0.80819625,-0.9326383
0.13007897,0.0022157226,-0.08324977,0.11959546,-0.7830389,-0.90360737
0.12602991,0.002146752,-0.08065839,0.11587273,-0.75866467,-0.8754801
0.122106895,0.0020799288,-0.07814769,0.112265885,-0.73504925,-0.84822845
0.118305996,0.0020151858,-0.07571514,0.10877132,-0.71216893,-0.82182515
0.11462343,0.0019524579,-0.07335831,0.105385534,-0.6900009,-0.7962438
0.111055486,0.0018916827,-0.07107485,0.10210515,-0.6685229,-0.7714587
0.10759861,0.0018327995,-0.068862475,0.09892687,-0.6477135,-0.74744517
