ax,ay,az,gx,gy,gz
-3.8800354,3.9109447,-7.456431,42.780388,1.6645606,-43.8904
-4.2635746,4.088217,-9.359712,55.956898,-19.892502,-52.262688
-4.452118,4.098488,-10.527403,53.278206,-43.346428,-55.295055
-4.4986024,3.5940647,-11.284249,50.634724,-66.93672,-55.295776
-4.0056086,3.0463254,-11.671121,43.317616,-89.833565,-50.467106
-3.458398,2.4518318,-11.860421,35.77531,-108.96593,-45.51927
-2.9920514,1.8014477,-11.978825,26.513838,-126.22052,-41.278664
-2.5847626,0.99964446,-12.048968,20.942345,-142.38898,-37.418255
-2.0892186,0.21967798,-12.043014,19.788712,-159.26997,-33.012505
-1.2996995,-0.6455778,-11.66823,23.250607,-172.32417,-27.336533
-0.46295506,-1.3209302,-11.044943,28.249453,-180.79346,-19.24737
0.24272166,-1.6857948,-10.282234,32.351856,-186.5718,-9.727844
0.8347729,-1.7582016,-9.286869,35.27273,-190.35022,-0.06724303
1.4212602,-1.6021097,-8.058009,37.770355,-191.73079,7.420331
2.2104812,-1.1566526,-6.3652163,40.114082,-189.56769,13.0617
3.108765,-0.588505,-4.518061,40.29691,-182.72476,17.45516
3.9942172,0.02305493,-2.670948,37.160435,-171.86359,20.734434
4.7734313,0.56823754,-0.9405152,31.621922,-156.76869,22.290617
5.3644514,0.9713146,0.43234703,25.50993,-138.98135,22.282799
5.7493515,1.1795473,1.3457165,18.100956,-118.81716,21.53003
6.0189743,1.2699537,1.9332151,11.519995,-97.75582,20.851948
6.1605434,1.2986537,2.2013946,7.1244836,-76.18394,20.387495
6.064262,1.3065081,2.0475485,4.6171217,-57.059246,19.991852
5.7372046,1.2652006,1.6109586,5.317264,-43.96439,18.871672
5.3846173,1.222499,1.1963588,8.177151,-33.01713,17.399069
5.039386,1.2762871,0.79155916,10.985566,-22.91347,15.410224
4.653486,1.3991532,0.34999794,13.412278,-14.010775,12.869513
4.22449,1.5586532,-0.14295472,14.865911,-6.8385706,9.746503
3.7643745,1.7361344,-0.6993422,15.282343,-3.258558,6.03601
3.3185134,1.9530584,-1.2288219,15.17572,-2.0700638,2.025554
2.914324,2.2295005,-1.7078755,14.357621,-2.661756,-2.4263241
2.5735803,2.507346,-2.1317797,13.554882,-4.502988,-7.935248
2.309701,2.7425337,-2.5076225,12.98067,-7.131826,-14.146926
2.1042194,2.8976867,-2.8735847,12.755369,-10.742171,-20.568918
1.9541129,2.9960682,-3.2680109,12.065642,-16.466469,-26.78624
1.8867612,3.0187829,-3.6321003,10.60267,-24.26021,-33.16983
1.9435415,2.938797,-3.8530927,8.172482,-32.389626,-39.113167
2.1177099,2.7413335,-3.9017096,5.5039887,-39.422623,-43.9629
2.3121333,2.4571853,-3.8429272,2.691012,-44.673588,-46.840218
2.425665,2.1062937,-3.6626973,-0.52074057,-49.164093,-48.780933
2.4984505,1.6802511,-3.377625,-3.653082,-52.548412,-49.96269
2.5523126,1.1652774,-3.024237,-6.418629,-55.09915,-50.057724
2.6361518,0.54208004,-2.6073596,-8.291334,-56.50394,-48.653152
2.7543023,-0.15518391,-2.1425884,-8.786801,-55.647682,-44.92432
2.8588746,-0.8056348,-1.7257417,-8.013533,-53.17656,-40.29491
2.8859143,-1.3737737,-1.4306545,-5.6437793,-50.12185,-35.47354
2.8644137,-1.8510681,-1.2192562,-2.1520145,-46.858162,-30.318045
2.8397052,-2.2021384,-1.0390809,2.1022558,-43.672607,-24.312733
2.843227,-2.334761,-0.86107135,5.8116817,-40.187973,-17.748686
2.8673594,-2.2867603,-0.71294004,8.010978,-36.153877,-11.814151
2.8758802,-2.1660583,-0.62562215,10.608351,-32.295444,-6.512216
2.8643055,-1.9210554,-0.5534099,13.361848,-28.941872,-1.7891265
2.8475916,-1.5563475,-0.46346408,15.372463,-25.905397,2.2609956
2.819731,-1.10872,-0.35923663,16.008198,-22.993202,5.3325725
2.7779992,-0.58547795,-0.25842133,16.189598,-20.17516,7.3881574
2.726913,-0.01612219,-0.16824764,15.633175,-17.426632,7.9379554
2.6636813,0.5311917,-0.097408846,14.498925,-14.591642,6.974476
2.5936234,1.040705,-0.04702356,12.8475685,-11.69106,4.851631
2.5110798,1.5085094,-0.015954081,10.419911,-8.884419,1.728078
2.428212,1.8962721,-0.028691543,7.3568325,-6.235162,-1.9326192
2.3407953,2.1666782,-0.08885875,3.9695528,-3.8082104,-5.9796968
2.247594,2.2890217,-0.20659599,0.71468353,-1.7291886,-10.173795
2.1656806,2.2114897,-0.37960833,-1.722809,-0.4621477,-14.40157
2.1577268,1.9368205,-0.5557693,-3.3223698,0.30848587,-17.633131
2.21285,1.508844,-0.7084759,-4.0618515,0.66972315,-18.355986
2.254115,1.0841099,-0.8278422,-3.79031,0.9970521,-16.863138
2.245202,0.73760337,-0.9296638,-3.2091734,0.9475042,-14.689414
2.1733763,0.71400684,-0.89992315,-3.1065094,0.9171928,-14.219488
2.1039648,0.6912035,-0.87118214,-3.0072963,0.8879003,-13.765358
2.036876,0.66916317,-0.84340286,-2.9114032,0.8595879,-13.326424
1.9720223,0.6478572,-0.8165491,-2.8187046,0.8322188,-12.902114
1.9093206,0.6272582,-0.7905864,-2.729082,0.80575794,-12.491883
1.8486916,0.6073401,-0.76548195,-2.6424224,0.7801717,-12.095213
1.7900597,0.588078,-0.74120444,-2.5586169,0.75542825,-11.711609
1.7333523,0.5694483,-0.7177238,-2.4775624,0.73149705,-11.340596
1.6785007,0.5514282,-0.6950115,-2.3991601,0.7083489,-10.981725
1.6254383,0.5339959,-0.6730402,-2.3233159,0.68595594,-10.634561
1.5741023,0.5171308,-0.65178365,-2.249939,0.6642915,-10.298691
1.524432,0.5008129,-0.63121676,-2.1789427,0.6433299,-9.973718
1.4763691,0.48502308,-0.61131555,-2.1102443,0.6230468,-9.659264
1.4298582,0.46974313,-0.59205693,-2.0437639,0.6034186,-9.354962
1.3848457,0.45495546,-0.5734188,-1.9794255,0.58442277,-9.060465
1.3412806,0.4406432,-0.55537987,-1.9171556,0.56603765,-8.775435
1.2991132,0.4267902,-0.53791976,-1.8568839,0.5482425,-8.499552
1.2582964,0.4133809,-0.52101886,-1.7985425,0.5310173,-8.232505
1.2187847,0.40040034,-0.50465834,-1.7420665,0.51434284,-7.973996
1.1805342,0.38783413,-0.4888201,-1.6873933,0.49820065,-7.7237396
1.1435028,0.37566844,-0.47348666,-1.6344627,0.48257297,-7.481459
1.1076502,0.36388996,-0.45864126,-1.5832168,0.46744266,-7.24689
1.072937,0.35248584,-0.4442677,-1.5335996,0.45279324,-7.0197763
1.0393257,0.34144375,-0.43035036,-1.4855574,0.43860888,-6.799872
1.0067801,0.33075172,-0.41687432,-1.4390385,0.42487422,-6.5869403
0.9752653,0.32039833,-0.40382507,-1.3939929,0.41157454,-6.3807516
0.94474757,0.3103725,-0.39118868,-1.3503723,0.39869565,-6.1810865
0.9151943,0.30066353,-0.37895164,-1.3081305,0.3862238,-5.987732
0.8865742,0.29126114,-0.367101,-1.2672224,0.37414575,-5.8004827
0.85885704,0.2821554,-0.35562426,-1.227605,0.36244875,-5.619141
0.8320136,0.27333668,-0.34450927,-1.1892364,0.35112047,-5.443516
0.80601573,0.26479572,-0.3337444,-1.1520764,0.34014902,-5.2734222
0.7808361,0.2565236,-0.3233184,-1.116086,0.3295229,-5.108683
0.75644857,0.2485117,-0.3132203,-1.0812277,0.31923103,-4.9491253
0.73282754,0.24075164,-0.30343962,-1.0474651,0.3092627,-4.794583
0.70994866,0.23323536,-0.29396623,-1.0147631,0.2996075,-4.644896
0.68778807,0.22595508,-0.28479028,-0.983088,0.29025546,-4.4999084
0.66632295,0.21890326,-0.27590227,-0.9524069,0.28119686,-4.3594713
0.64553106,0.21207263,-0.26729304,-0.92268807,0.27242243,-4.2234387
0.625391,0.20545614,-0.25895372,-0.893901,0.26392308,-4.091671
0.6058821,0.19904698,-0.2508757,-0.866016,0.25569007,-3.9640324
0.58698434,0.1928386,-0.24305077,-0.83900446,0.24771497,-3.840392
0.56867826,0.18682462,-0.23547083,-0.81283873,0.23998956,-3.720623
0.5509452,0.18099886,-0.22812817,-0.78749204,0.23250598,-3.604603
0.533767,0.1753554,-0.22101523,-0.7629384,0.22525656,-3.4922132
0.51712614,0.16988848,-0.2141248,-0.7391528,0.2182339,-3.3833392
0.50100565,0.1645925,-0.20744984,-0.716111,0.21143083,-3.2778695
0.48538908,0.1594621,-0.20098355,-0.6937896,0.20484045,-3.175697
0.47026062,0.15449204,-0.19471934,-0.67216575,0.19845605,-3.0767179
0.45560485,0.14967726,-0.18865089,-0.6512176,0.19227113,-2.9808314
0.44140694,0.14501289,-0.18277198,-0.6309238,0.18627942,-2.8879402
0.42765242,0.1404942,-0.1770767,-0.6112638,0.18047483,-2.79795
0.41432738,0.1361166,-0.17155924,-0.59221774,0.17485149,-2.7107701
0.40141836,0.13187566,-0.16621405,-0.57376623,0.16940372,-2.6263118
0.38891226,0.12776712,-0.16103569,-0.5558907,0.164126,-2.5444896
0.37679645,0.123786785,-0.15601893,-0.53857297,0.15901296,-2.465221
0.36505872,0.11993065,-0.15115872,-0.5217957,0.15405948,-2.3884258
0.35368717,0.116194814,-0.14645015,-0.5055418,0.14926055,-2.3140266
0.34267035,0.11257552,-0.14188844,-0.4897949,0.1446113,-2.2419481
0.33199713,0.10906912,-0.13746902,-0.4745392,0.14010707,-2.1721177
0.3216568,0.10567206,-0.13318741,-0.45975924,0.1357433,-2.1044652
0.31163886,0.10238093,-0.12903933,-0.44544017,0.13151562,-2.0389223
0.3019333,0.09919242,-0.12502058,-0.43156755,0.12741974,-1.9754229
0.29253033,0.09610331,-0.12112711,-0.41812742,0.12345157,-1.913903
0.28342044,0.093110494,-0.11735502,-0.40510625,0.11960708,-1.854301
0.27459455,0.09021097,-0.1137005,-0.39249095,0.115882434,-1.7965567
0.2660437,0.087401815,-0.11015988,-0.38026884,0.11227387,-1.7406123
0.25775936,0.0846802,-0.10672961,-0.36842763,0.10877777,-1.6864113
0.24973316,0.08204341,-0.103406236,-0.3569554,0.105390616,-1.6338992
0.24195708,0.07948878,-0.100186415,-0.3458407,0.10210901,-1.5830235
0.23442328,0.07701374,-0.09706692,-0.33507228,0.09892965,-1.5337331
0.22712421,0.074615814,-0.09404461,-0.32463938,0.09584934,-1.4859784
0.22005254,0.072292596,-0.091116466,-0.3145315,0.09286501,-1.4397113
0.21320117,0.07004176,-0.088279545,-0.30473852,0.08997364,-1.3948858
0.20656322,0.067861035,-0.08553099,-0.2952506,0.087172344,-1.3514564
0.20013206,0.06574824,-0.082868055,-0.28605822,0.08445831,-1.30938
0.19390121,0.06370125,-0.08028807,-0.27715215,0.08182881,-1.2686142
0.18786442,0.061718024,-0.077788435,-0.2685235,0.07928121,-1.229118
0.18201567,0.059796564,-0.07536666,-0.2601636,0.07681296,-1.190852
0.17634906,0.057934947,-0.07302031,-0.25206405,0.07442158,-1.1537778
0.17085893,0.056131307,-0.070747025,-0.24421676,0.07210468,-1.1178583
0.16553979,0.05438384,-0.068544544,-0.23661385,0.06985993,-1.0830574
0.1603863,0.05269079,-0.06641065,-0.2292477,0.06768508,-1.0493401
0.15539327,0.05105046,-0.06434321,-0.22211094,0.06557796,-1.016673
0.15055573,0.049461212,-0.062340144,-0.21519643,0.063536465,-0.98502296
0.14586884,0.047921453,-0.060399454,-0.20849721,0.06155853,-0.9543585
0.14132787,0.046429638,-0.058519192,-0.20200661,0.059642185,-0.92464894
0.1369283,0.044984274,-0.056697477,-0.1957181,0.05778551,-0.8958644
0.13266572,0.04358391,-0.054932486,-0.1896254,0.05598665,-0.8679762
0.12853587,0.042227153,-0.053222448,-0.1837224,0.054243796,-0.8409563
0.1245346,0.04091264,-0.051565655,-0.17800319,0.052555207,-0.8147776
0.12065791,0.039639052,-0.049960446,-0.17246206,0.050919194,-0.78941405
0.11690192,0.038405117,-0.04840521,-0.16709344,0.049334116,-0.7648402
0.11326287,0.0372096,-0.046898402,-0.16189197,0.04779839,-0.7410314
0.10973711,0.036051303,-0.045438502,-0.15685244,0.046310477,-0.7179638
0.106321126,0.03492907,-0.044024058,-0.1519698,0.044868886,-0.69561446
0.10301149,0.033841774,-0.042653646,-0.1472392,0.043472175,-0.6739609
0.099804886,0.032788325,-0.041325897,-0.14265583,0.042118948,-0.65298146
0.09669811,0.031767678,-0.040039487,-0.13821518,0.04080785,-0.63265514
0.093688056,0.030778801,-0.03879312,-0.13391277,0.039537568,-0.61296165
0.09077171,0.02982071,-0.03758556,-0.1297443,0.038306832,-0.5938812
0.087946154,0.028892446,-0.03641559,-0.1257056,0.03711441,-0.57539475
0.085208565,0.027993081,-0.035282042,-0.12179262,0.035959113,-0.55748385
0.08255619,0.027121712,-0.034183785,-0.11800147,0.034839775,-0.5401305
0.079986386,0.02627747,-0.033119716,-0.114328325,0.033755288,-0.52331734
0.07749659,0.02545951,-0.032088768,-0.11076953,0.03270456,-0.5070276
0.07508429,0.024667012,-0.031089917,-0.10732152,0.031686537,-0.49124497
0.07274709,0.023899183,-0.030122159,-0.10398085,0.030700209,-0.47595364
0.07048264,0.023155257,-0.029184528,-0.10074417,0.029744584,-0.4611383
0.068288684,0.02243449,-0.028276082,-0.097608246,0.028818706,-0.4467842
0.066163026,0.02173616,-0.027395917,-0.094569944,0.02792165,-0.4328769
0.06410354,0.021059567,-0.026543152,-0.09162622,0.02705252,-0.41940254
0.06210816,0.020404037,-0.02571693,-0.08877413,0.026210444,-0.4063476
