ax,ay,az,gx,gy,gz
-0.5481868,-0.430913,-0.17818344,0.61000556,-29.463903,-11.707379
-0.3327347,-0.67681146,0.13494277,5.8449454,-28.10459,-17.41289
-0.09076917,-0.841687,0.48268777,9.104092,-24.899885,-18.491978
0.10134831,-0.9835072,0.86833626,9.251199,-22.22588,-17.26721
0.36172596,-1.1671008,1.3570014,7.8593497,-18.75585,-14.486509
0.7033425,-1.3666649,1.9006356,7.3768888,-13.995393,-10.533698
1.0796654,-1.4830354,2.479732,7.770118,-8.382587,-6.843671
1.5332348,-1.480015,3.1530824,7.38431,-0.43378255,-3.3068519
1.9714421,-1.4438124,3.7389212,6.032586,8.260938,0.31749684
2.3419003,-1.4566672,4.130214,4.72787,16.920044,3.8540864
2.6309698,-1.5243229,4.322994,4.508872,25.293268,7.331754
2.8379984,-1.5603932,4.380114,4.314952,33.6414,11.0224905
2.9530373,-1.5607625,4.2836647,4.189255,41.278423,14.376133
3.0082881,-1.5599545,4.100362,4.392534,48.246365,17.352016
3.0199325,-1.5491414,3.8510654,5.173676,54.664883,19.896542
3.0032792,-1.5073203,3.5460699,6.305691,60.697212,22.056599
2.9623148,-1.4276321,3.206794,7.6006136,65.53856,23.991602
2.9071524,-1.3044462,2.8520443,8.4873,69.57152,25.812998
2.8222272,-1.1592146,2.488505,9.036566,72.79093,27.564528
2.7051191,-0.9909512,2.1214588,9.397305,75.36642,29.03335
2.5541177,-0.8037415,1.748514,9.581061,77.24964,30.011736
2.388309,-0.61475533,1.3766637,9.739491,78.302284,30.547924
2.2123125,-0.40934783,1.0154251,10.121018,78.30564,30.482016
2.0387347,-0.19370565,0.67788064,10.433928,77.64236,29.882807
1.8698266,0.019977974,0.36122537,10.526612,76.55177,28.946953
1.700925,0.23148522,0.05593159,10.398518,75.061035,27.785679
1.5209099,0.4477287,-0.24651256,10.328792,72.928955,26.092089
1.3190334,0.6811264,-0.5475067,10.218048,70.254395,23.853622
1.1150813,0.90238327,-0.8460038,10.077658,66.96348,21.067965
0.9121178,1.1022041,-1.1418974,9.871294,63.251217,17.868168
0.71025664,1.280901,-1.4410002,9.816365,59.04424,14.226299
0.5166475,1.4392669,-1.7369319,9.856511,54.01925,10.0961
0.34201142,1.6026607,-2.0061936,9.950579,48.474255,5.6249876
0.18636407,1.7795599,-2.2384348,9.950517,42.369774,0.67742634
0.06262109,1.9442381,-2.4345355,9.575932,35.77751,-4.43792
-0.027046053,2.0745182,-2.601198,8.753131,28.893421,-9.52185
-0.080865525,2.1406498,-2.755468,7.7895255,21.953192,-14.545118
-0.08337444,2.1084113,-2.889988,7.0924153,14.866911,-19.503265
-0.03572749,2.036854,-2.9656692,6.8483586,7.7383175,-24.215979
0.091218814,1.9545134,-2.9445462,6.5086865,0.8023695,-28.407839
0.28976268,1.8438865,-2.8330855,5.678611,-5.4981513,-31.829895
0.51540005,1.6792066,-2.6653852,4.7152004,-10.588319,-34.366302
0.7352883,1.4556341,-2.4419487,3.8812065,-14.75664,-36.321697
0.9322988,1.215279,-2.1855345,3.3503792,-18.160603,-37.729385
1.1147132,0.9769479,-1.894483,3.0835888,-21.045568,-38.64766
1.2986196,0.74961585,-1.5662533,2.8724976,-23.436308,-39.035374
1.4929576,0.53991014,-1.2012038,2.720679,-24.790945,-38.941513
1.7018672,0.34283784,-0.8096184,2.6399188,-25.173676,-38.50605
1.9114158,0.15934741,-0.42780843,2.4437766,-24.66084,-37.534492
2.1108959,-0.008796902,-0.07195305,2.1519,-23.458454,-36.150154
2.2921162,-0.16519718,0.2390447,1.8693362,-21.58654,-34.370968
2.4510944,-0.3155809,0.5045169,1.6734583,-19.23354,-32.36525
2.5792747,-0.45339948,0.721546,1.7664152,-16.154383,-30.099367
2.6773238,-0.56102425,0.9036743,2.0669963,-12.650945,-27.675005
2.7564883,-0.6305915,1.0530245,2.3321502,-8.845077,-25.100191
2.8207588,-0.6719887,1.1635454,2.6237786,-4.8127327,-22.515417
2.8699274,-0.68829924,1.2395208,2.8104644,-0.5701366,-19.976713
2.9032269,-0.67373824,1.2743413,2.772367,3.765193,-17.41975
2.9231153,-0.6448343,1.2739707,2.625963,8.108729,-14.950368
2.933893,-0.60682726,1.2394772,2.4410157,12.407273,-12.574723
2.9362028,-0.5585317,1.1746595,2.1594913,16.631554,-10.245168
2.9229457,-0.5019808,1.0784822,1.7336098,20.680288,-7.91808
2.8801258,-0.42700318,0.9426333,1.3126456,24.469877,-5.679784
2.8084114,-0.32885268,0.790196,0.8668853,27.919977,-3.6034136
2.7114248,-0.20434293,0.62680864,0.30483642,31.106295,-1.8300501
2.5911627,-0.07149662,0.44427463,-0.41831923,33.948677,-0.44842646
2.4521332,0.04889162,0.23681907,-1.2929633,36.295532,0.59875596
2.2982213,0.15801564,0.012953386,-2.1087613,37.963673,1.2629882
2.1386242,0.27797106,-0.2060062,-3.0433457,39.09231,1.674882
1.982231,0.38673812,-0.4141317,-4.5168915,39.663555,2.364918
1.8545144,0.45822677,-0.60844564,-6.8663836,40.08946,4.287374
1.7955489,0.44365716,-0.5890997,-6.6480627,38.81479,4.1510544
1.7385328,0.42956918,-0.5703933,-6.4369583,37.582256,4.019241
1.6833944,0.41594523,-0.5523031,-6.2328076,36.39032,3.8917692
1.6300662,0.4027685,-0.53480667,-6.0353584,35.23751,3.7684817
1.578483,0.39002293,-0.51788276,-5.8443704,34.122425,3.6492286
1.5285826,0.37769318,-0.501511,-5.659613,33.043716,3.533866
1.4803056,0.36576453,-0.48567185,-5.480866,32.0001,3.4222562
1.4335948,0.35422292,-0.4703466,-5.307919,30.990345,3.3142679
1.388396,0.34305486,-0.45551735,-5.140569,30.013271,3.2097745
1.3446566,0.3322474,-0.44116694,-4.978623,29.067745,3.1086552
1.3023263,0.32178816,-0.42727885,-4.8218937,28.152683,3.0107937
1.261357,0.31166515,-0.41383725,-4.670204,27.26704,2.9160783
1.2217022,0.30186698,-0.400827,-4.5233817,26.409815,2.8244023
1.1833177,0.29238263,-0.38823342,-4.3812613,25.580046,2.7356625
1.1461604,0.28320155,-0.37604252,-4.2436857,24.776808,2.64976
1.1101891,0.2743135,-0.36424077,-4.1105013,23.99921,2.5665998
1.0753644,0.26570877,-0.35281515,-3.9815621,23.246397,2.48609
1.041648,0.2573779,-0.34175318,-3.8567266,22.517542,2.4081426
1.0090034,0.24931182,-0.33104283,-3.735859,21.811855,2.3326726
0.97739494,0.24150178,-0.32067245,-3.6188278,21.128569,2.2595985
0.94678867,0.23393936,-0.3106309,-3.5055075,20.466946,2.188841
0.91715175,0.22661644,-0.3009073,-3.395776,19.826277,2.1203246
0.8884524,0.21952522,-0.2914914,-3.289516,19.205877,2.0539758
0.86066014,0.2126581,-0.28237307,-3.1866145,18.605085,1.9897242
0.8337455,0.20600782,-0.27354264,-3.0869622,18.023264,1.9275012
0.8076799,0.19956736,-0.26499084,-2.990454,17.459799,1.8672414
0.782436,0.19332992,-0.2567086,-2.896988,16.914097,1.808881
0.75798726,0.18728894,-0.24868722,-2.8064656,16.385582,1.752359
0.73430806,0.18143812,-0.24091834,-2.718793,15.873704,1.6976161
0.7113737,0.17577133,-0.23339382,-2.6338778,15.377926,1.644595
0.6891602,0.17028266,-0.22610582,-2.551632,14.897732,1.5932406
0.66764456,0.16496643,-0.2190468,-2.4719698,14.432624,1.5434996
0.6468045,0.15981711,-0.2122094,-2.394809,13.98212,1.4953203
0.62661844,0.15482938,-0.20558657,-2.3200696,13.545753,1.4486529
0.6070655,0.14999811,-0.19917147,-2.2476742,13.123073,1.4034493
0.5881255,0.1453183,-0.19295748,-2.1775486,12.713643,1.3596629
0.56977916,0.14078513,-0.18693823,-2.1096208,12.317044,1.3172486
0.5520074,0.13639396,-0.18110752,-2.0438204,11.932869,1.2761629
0.5347921,0.1321403,-0.17545938,-1.9800806,11.560723,1.2363636
0.51811576,0.12801977,-0.16998804,-1.9183358,11.200226,1.1978102
0.5019612,0.124028176,-0.1646879,-1.858523,10.851008,1.160463
0.48631188,0.12016144,-0.15955354,-1.8005812,10.512714,1.124284
0.47115195,0.11641562,-0.15457974,-1.7444513,10.1849985,1.0892365
0.45646596,0.1127869,-0.14976142,-1.690076,9.867528,1.0552846
0.44223896,0.109271586,-0.14509371,-1.6374003,9.55998,1.0223938
0.42845652,0.10586612,-0.14057183,-1.5863703,9.262041,0.99053067
0.4151046,0.10256703,-0.13619122,-1.5369345,8.97341,0.9596629
0.40216967,0.09937098,-0.13194741,-1.4890428,8.693793,0.9297592
0.38963866,0.09627472,-0.12783612,-1.4426463,8.422907,0.90078926
0.37749884,0.09327513,-0.123853184,-1.3976984,8.160478,0.87272376
0.36573794,0.090369165,-0.11999457,-1.3541534,7.90624,0.84553427
0.3543441,0.08755389,-0.11625638,-1.3119674,7.659937,0.8191933
0.34330577,0.08482646,-0.11263482,-1.2710978,7.4213185,0.79367423
0.33261183,0.08218412,-0.109126255,-1.2315031,7.1901455,0.76895136
0.32225147,0.07962421,-0.105727136,-1.1931437,6.966183,0.7449997
0.31221426,0.077144146,-0.10243404,-1.1559807,6.749206,0.7217951
0.30249006,0.07474142,-0.09924364,-1.1199766,6.538996,0.6993141
0.2930691,0.072413616,-0.09615272,-1.0850952,6.335341,0.67753416
0.28394184,0.07015839,-0.09315818,-1.0513014,6.1380353,0.6564333
0.27509916,0.06797348,-0.09025699,-1.0185611,5.946881,0.63599026
0.26653212,0.06585668,-0.08744624,-0.9868415,5.7616854,0.6161845
0.25823212,0.063805856,-0.0847231,-0.9561106,5.5822625,0.59699607
0.25019082,0.06181895,-0.082084835,-0.9263374,5.4084315,0.5784057
0.24240012,0.059893966,-0.07952879,-0.8974922,5.2400184,0.5603947
0.2348522,0.05802897,-0.07705241,-0.8695458,5.0768533,0.54294497
0.22753946,0.05622209,-0.07465318,-0.8424702,4.918772,0.52603894
0.22045459,0.054471504,-0.07232871,-0.81623834,4.765617,0.5096597
0.21359044,0.052775465,-0.07007666,-0.7908237,4.6172333,0.4937908
0.20694016,0.05113226,-0.06789477,-0.76620084,4.473472,0.4784163
0.20049705,0.04954025,-0.06578086,-0.74234504,4.33419,0.46352074
0.19425464,0.047997836,-0.063732795,-0.7192324,4.1992464,0.44908917
0.18820669,0.046503462,-0.06174853,-0.6968397,4.0685067,0.43510717
0.18234712,0.04505564,-0.05982607,-0.6751445,3.941839,0.42156067
0.17667006,0.043652907,-0.057963487,-0.65412503,3.8191166,0.4084361
0.1711698,0.04229387,-0.05615892,-0.6337603,3.7002165,0.3957203
0.16584086,0.040977154,-0.05441055,-0.6140297,3.5850196,0.38340056
0.16067788,0.039701447,-0.052716635,-0.59491366,3.4734101,0.37146446
0.1556757,0.03846547,-0.05107547,-0.57639295,3.3652766,0.35990012
0.15082927,0.037267983,-0.049485415,-0.558449,3.2605104,0.34869587
0.14613378,0.036107786,-0.047944874,-0.5410638,3.1590068,0.33784056
0.1415845,0.034983717,-0.046452306,-0.52421993,3.0606642,0.32732326
0.13717687,0.03389465,-0.04500621,-0.5079006,2.9653835,0.3171335
0.1329065,0.032839496,-0.04360515,-0.49208945,2.87307,0.30726096
0.12876908,0.031817194,-0.042247713,-0.4767706,2.7836306,0.29769588
0.12476051,0.030826725,-0.040932544,-0.46192873,2.6969762,0.2884286
0.120876744,0.029867096,-0.03965832,-0.447549,2.61302,0.27944988
0.117113896,0.028937344,-0.038423773,-0.43361697,2.5316777,0.2707507
0.11346821,0.028036542,-0.037227664,-0.42011872,2.452868,0.2623224
0.10993603,0.027163785,-0.036068793,-0.40704075,2.376512,0.2541565
0.10651381,0.0263182,-0.034946002,-0.39436993,2.3025334,0.24624483
0.10319815,0.025498942,-0.03385817,-0.3820936,2.2308578,0.23857948
0.09998571,0.02470519,-0.032804206,-0.37019947,2.161414,0.23115279
0.09687329,0.023936149,-0.03178305,-0.35867563,2.094132,0.2239573
0.09385776,0.023191052,-0.030793693,-0.34751058,2.0289445,0.21698584
0.09093612,0.02246915,-0.029835131,-0.3366931,1.9657866,0.2102314
0.088105425,0.021769721,-0.028906412,-0.3262124,1.9045949,0.20368724
0.08536285,0.021092068,-0.028006608,-0.31605798,1.8453082,0.1973468
0.08270566,0.02043551,-0.027134813,-0.30621967,1.7878671,0.19120376
0.080131195,0.019799393,-0.026290158,-0.29668766,1.7322142,0.18525197
0.077636875,0.019183077,-0.0254718,-0.28745237,1.678294,0.17948544
0.0752202,0.018585948,-0.024678914,-0.27850458,1.6260521,0.17389843
0.072878756,0.018007407,-0.023910712,-0.26983532,1.5754366,0.16848534
0.0706102,0.017446877,-0.023166426,-0.26143596,1.5263968,0.16324078
0.06841227,0.016903795,-0.022445308,-0.25329804,1.4788835,0.15815946
0.06628276,0.01637762,-0.02174664,-0.24541347,1.4328494,0.15323633
0.064219534,0.015867824,-0.021069719,-0.23777434,1.3882482,0.14846645
0.062220536,0.015373898,-0.02041387,-0.23037301,1.3450354,0.14384505
0.06028377,0.014895347,-0.019778436,-0.22320208,1.3031678,0.13936752
0.058407288,0.014431694,-0.019162785,-0.21625437,1.2626036,0.13502936
