ax,ay,az,gx,gy,gz
3.9673088,7.1991563,3.419122,53.7114,-92.9963,-37.343067
4.014808,8.456478,3.935554,35.18665,-101.09085,-51.190594
4.712262,9.289768,4.8690014,14.052034,-101.342,-67.17322
6.044441,9.8306055,5.801963,-4.0309343,-79.4912,-72.274956
7.1206684,10.143614,6.257554,-20.709578,-58.207172,-66.673195
7.550666,10.209542,6.3076057,-35.483757,-39.342453,-57.03338
7.5691257,10.124399,6.1231155,-48.382053,-23.360645,-50.217243
7.5295253,9.94892,5.847893,-60.081146,-8.214332,-47.13576
7.520135,9.66157,5.4852214,-71.55851,7.5582943,-45.514503
7.4765205,9.250158,4.9693265,-82.7415,22.058926,-42.842693
7.339264,8.767631,4.3660846,-93.17327,34.643913,-38.265797
7.0722528,8.260479,3.7186363,-102.10957,44.6737,-32.73952
6.6763706,7.7160306,3.0330822,-109.1018,51.75418,-27.037243
6.229058,7.15726,2.350212,-114.2772,57.367527,-22.281124
5.749105,6.5737953,1.6556892,-117.16677,62.075424,-19.040384
5.2793355,6.009786,0.987927,-118.42167,66.199234,-16.39873
4.770534,5.4855695,0.3491909,-118.498436,69.27428,-14.032748
4.2167015,4.9902143,-0.2711691,-117.48957,70.6702,-12.026246
3.6652277,4.5266476,-0.8543633,-115.21027,70.25594,-10.225217
3.0806305,4.1123424,-1.3982593,-112.19144,68.7337,-8.915901
2.5008512,3.723982,-1.8942183,-108.73417,66.62114,-8.049808
1.9079647,3.366586,-2.3506706,-104.760704,63.486965,-7.9171233
1.3565633,3.0390604,-2.7530365,-100.246,59.71496,-8.249135
0.8256123,2.7435474,-3.1121502,-94.92868,54.70718,-8.941819
0.31806344,2.484289,-3.4097562,-89.27964,48.806515,-9.779039
-0.15571712,2.2552323,-3.6673315,-83.53691,42.00497,-10.744591
-0.5703847,2.043144,-3.9068608,-77.57416,34.493454,-12.01415
-0.9116461,1.860178,-4.1337404,-71.43747,26.403872,-13.494365
-1.1779685,1.7131071,-4.342741,-65.15968,17.98088,-15.376069
-1.3496144,1.5913434,-4.523386,-58.594704,9.06402,-17.63281
-1.4528364,1.4929274,-4.6717596,-52.18174,-0.2596375,-19.440414
-1.5113132,1.4197307,-4.7852106,-45.958317,-9.91969,-20.889498
-1.5027362,1.4069748,-4.8265834,-40.16923,-19.43994,-22.493706
-1.3877256,1.454655,-4.775177,-35.257797,-27.844362,-24.558344
-1.1125114,1.5217367,-4.618354,-30.958866,-35.02594,-26.06261
-0.763036,1.6093597,-4.398331,-27.448685,-41.028408,-26.700933
-0.3515652,1.7296591,-4.1183195,-24.519846,-45.834213,-27.313923
0.14975727,1.8849878,-3.7669783,-22.125422,-49.134895,-28.122496
0.73887956,2.0759642,-3.3329966,-20.549967,-50.75202,-28.398188
1.3699356,2.294007,-2.827585,-19.878876,-50.985203,-27.83514
1.9721104,2.5205455,-2.3090627,-20.069576,-49.954674,-26.803057
2.5220454,2.7358239,-1.8165151,-21.123053,-47.700798,-25.324917
2.9855673,2.9201372,-1.3779008,-22.844007,-44.348537,-23.623486
3.3513017,3.0606852,-1.0130317,-25.049961,-40.112785,-21.87536
3.6024578,3.1444883,-0.7471285,-27.57416,-35.01729,-20.274405
3.8002036,3.2004883,-0.53657436,-30.155863,-29.32097,-18.961157
3.9640093,3.2419596,-0.36891052,-32.772213,-23.092773,-17.927502
4.1,3.264186,-0.24695048,-35.50629,-16.451862,-17.027922
4.1977487,3.2581108,-0.17409247,-38.26827,-9.506568,-16.218454
4.2611585,3.2302375,-0.14903389,-40.832253,-2.4588158,-15.534077
4.3178825,3.2179527,-0.14127548,-43.504257,4.649946,-14.829005
4.3526897,3.188655,-0.19385754,-46.37868,11.681879,-13.589769
4.324471,3.1254601,-0.3262883,-49.417072,18.313974,-11.480082
4.202448,3.0331075,-0.53636587,-52.369698,24.085684,-8.664026
3.947516,2.8795242,-0.85514116,-54.856636,28.979576,-5.7707224
3.6271212,2.6810696,-1.2195048,-56.61552,33.27637,-3.221605
3.3075244,2.4708114,-1.5852164,-57.674053,37.255928,-1.1788738
3.036017,2.2759829,-1.9228026,-58.26629,41.263725,0.7160488
2.7986395,2.0959418,-2.240814,-58.28895,45.464935,2.7066007
2.5338345,1.929008,-2.571825,-56.3625,48.77531,4.348088
2.2121677,1.8309113,-2.920398,-53.07651,49.490757,4.853152
1.8952496,1.7484947,-3.1879241,-49.70981,47.889355,4.832348
1.6439352,1.6932147,-3.3539774,-46.582447,45.872204,5.202832
1.4053004,1.6541927,-3.4670897,-43.47454,43.230003,5.8321095
1.1999544,1.6000371,-3.5278318,-39.954914,40.27399,7.0819483
1.050488,1.5568172,-3.523952,-36.578934,37.385555,9.208246
0.9297155,1.5307039,-3.4745035,-33.697052,34.734077,11.002221
0.84945977,1.5079039,-3.3982534,-31.414316,32.33422,12.05999
0.8223304,1.4597458,-3.289723,-30.411032,31.301558,11.674828
0.79610884,1.4131991,-3.1848238,-29.441319,30.30345,11.302554
0.77076095,1.368203,-3.0834198,-28.503914,29.338594,10.942683
0.74625415,1.3247002,-2.9853806,-27.597614,28.405756,10.594754
0.7225574,1.2826355,-2.890582,-26.721275,27.503754,10.258326
0.6996412,1.2419561,-2.798906,-25.873798,26.63146,9.932979
0.6774773,1.2026122,-2.7102396,-25.054142,25.787802,9.618312
0.6560386,1.1645557,-2.6244743,-24.261307,24.97175,9.313942
0.6352993,1.1277407,-2.5415072,-23.494337,24.182322,9.019501
0.61523473,1.0921234,-2.461239,-22.752317,23.418573,8.734639
0.59582114,1.0576618,-2.3835752,-22.034374,22.679607,8.45902
0.5770359,1.0243154,-2.3084252,-21.339668,21.964558,8.192321
0.5588572,0.9920458,-2.2357016,-20.66739,21.272594,7.9342337
0.5412642,0.96081585,-2.1653209,-20.016775,20.602926,7.684461
0.5242368,0.93059,-2.097203,-19.387075,19.954788,7.442719
0.50775576,0.901334,-2.0312707,-18.777582,19.327446,7.208734
0.4918026,0.873015,-1.9674504,-18.18761,18.720198,6.982243
0.47635955,0.84560144,-1.9056705,-17.6165,18.132366,6.762994
0.46140942,0.819063,-1.8458627,-17.063623,17.563297,6.5507436
0.4469358,0.7933704,-1.7879612,-16.528368,17.012367,6.3452578
0.43292284,0.76849556,-1.7319026,-16.010147,16.478971,6.146312
0.41935527,0.74441135,-1.6776257,-15.508397,15.962529,5.95369
0.40621838,0.7210916,-1.6250718,-15.022575,15.4624815,5.767183
0.393498,0.69851124,-1.5741841,-14.552156,14.978287,5.5865884
0.3811805,0.67664605,-1.524908,-14.096636,14.509428,5.4117136
0.36925268,0.6554726,-1.4771909,-13.655527,14.055402,5.2423716
0.35770184,0.6349683,-1.4309819,-13.228359,13.6157255,5.0783815
0.34651574,0.6151115,-1.386232,-12.81468,13.189933,4.9195695
0.33568254,0.5958811,-1.342894,-12.414052,12.777573,4.765768
0.32519084,0.577257,-1.300922,-12.026053,12.378212,4.6168146
0.31502962,0.5592194,-1.2602721,-11.650275,11.99143,4.4725533
0.30518824,0.54174966,-1.2209018,-11.286325,11.616823,4.332833
0.29565638,0.5248294,-1.1827698,-10.933824,11.253999,4.197507
0.2864242,0.508441,-1.1458365,-10.592402,10.90258,4.066435
0.277482,0.49256742,-1.1100634,-10.261707,10.562201,3.9394805
0.26882058,0.47719225,-1.0754135,-9.941395,10.232509,3.8165123
0.260431,0.4622996,-1.0418509,-9.631135,9.913163,3.697403
0.25230452,0.44787404,-1.0093411,-9.3306055,9.603834,3.5820296
0.24443284,0.43390074,-0.97785056,-9.039498,9.304202,3.4702733
0.23680781,0.42036533,-0.9473468,-8.757514,9.01396,3.362019
0.22942165,0.40725392,-0.9177985,-8.484363,8.73281,3.2571557
0.22226676,0.39455304,-0.8891755,-8.219764,8.460463,3.155576
0.21533582,0.38224968,-0.86144835,-7.963447,8.196641,3.0571759
0.20862176,0.37033135,-0.8345888,-7.7151504,7.9410734,2.9618545
0.20211771,0.35878578,-0.80856943,-7.474621,7.6935,2.869515
0.19581704,0.34760126,-0.7833637,-7.241613,7.453669,2.780063
0.18971336,0.3367664,-0.75894594,-7.0158887,7.221335,2.6934073
0.18380043,0.32627016,-0.73529136,-6.7972198,6.9962626,2.6094599
0.17807224,0.3161019,-0.7123759,-6.585383,6.7782226,2.5281355
0.172523,0.30625126,-0.6901762,-6.3801637,6.566994,2.4493518
0.16714709,0.2967083,-0.6686699,-6.181354,6.3623624,2.3730283
0.16193902,0.28746328,-0.6478351,-5.988752,6.1641207,2.2990882
0.15689355,0.2785069,-0.62765074,-5.8021626,5.9720674,2.2274566
0.15200557,0.2698301,-0.6080965,-5.621398,5.7860093,2.1580606
0.14727014,0.26142406,-0.5891524,-5.4462743,5.605757,2.0908306
0.14268246,0.25328034,-0.57079947,-5.276615,5.43113,2.0256982
0.13823792,0.24539067,-0.5530191,-5.112249,5.261951,1.9625978
0.13393201,0.23774712,-0.53579336,-4.95301,5.098049,1.9014659
0.12976041,0.23034197,-0.51910496,-4.798738,4.939259,1.8422406
0.1257189,0.22316776,-0.50293696,-4.6492767,4.7854214,1.7848623
0.121803425,0.21621726,-0.48727313,-4.504476,4.6363807,1.7292733
0.11801002,0.20948347,-0.47209767,-4.3641906,4.491987,1.6754174
0.11433489,0.20295961,-0.45739532,-4.228278,4.352095,1.6232406
0.110774316,0.19663912,-0.4431513,-4.096603,4.2165637,1.5726902
0.10732472,0.19051564,-0.42935124,-3.9690318,4.085257,1.5237155
0.10398265,0.18458301,-0.41598132,-3.8454368,3.9580426,1.4762672
0.100744724,0.17883527,-0.40302804,-3.7256935,3.8347929,1.4302977
0.09760771,0.17326665,-0.39047843,-3.6096818,3.715384,1.3857607
0.09456844,0.16787155,-0.3783199,-3.497285,3.599696,1.3426114
0.09162387,0.16264454,-0.36654016,-3.3883903,3.4876125,1.3008066
0.088771045,0.15758039,-0.35512748,-3.2828884,3.3790212,1.2603043
0.086007096,0.15267402,-0.34407032,-3.1806734,3.273813,1.2210639
0.083329245,0.14792049,-0.33335763,-3.0816426,3.1718824,1.1830459
0.08073482,0.14331503,-0.32297868,-2.9856968,3.073127,1.1462122
0.07822121,0.13885304,-0.312923,-2.8927395,2.9774477,1.1105258
0.0757859,0.13453004,-0.30318055,-2.8026779,2.8847487,1.0759511
0.07342643,0.13034168,-0.29374155,-2.7154214,2.7949371,1.0424532
0.07114046,0.12628376,-0.28459653,-2.6308825,2.7079227,1.0099987
0.06892568,0.122352235,-0.27573633,-2.5489767,2.6236184,0.97855484
0.066779874,0.11854315,-0.26715207,-2.4696214,2.5419395,0.9480903
0.064700894,0.11485268,-0.25883514,-2.3927376,2.4628043,0.9185746
0.06268666,0.11127715,-0.2507772,-2.3182483,2.3861334,0.889978
0.060735147,0.107812956,-0.24297021,-2.2460783,2.3118503,0.8622719
0.058844406,0.10445664,-0.23540632,-2.1761558,2.23988,0.83542854
0.05701254,0.101204835,-0.22807798,-2.1084106,2.1701512,0.8094211
0.055237714,0.09805428,-0.22097781,-2.042775,2.1025934,0.78422344
0.053518154,0.09500183,-0.21409872,-1.9791828,2.0371392,0.75981045
0.051852133,0.09204443,-0.20743383,-1.917571,1.9737232,0.73615754
0.050237987,0.089179106,-0.20097646,-1.8578774,1.9122815,0.7132411
0.0486741,0.08640299,-0.19472013,-1.8000424,1.852753,0.6910382
0.0471589,0.083713315,-0.18865861,-1.7440081,1.7950778,0.6695266
0.04569088,0.081107385,-0.18278581,-1.6897184,1.7391984,0.6486847
0.044268563,0.078582585,-0.17709585,-1.6371189,1.6850587,0.6284917
0.04289053,0.07613639,-0.17158304,-1.5861572,1.6326046,0.6089274
0.041555397,0.07376635,-0.16624187,-1.5367819,1.5817835,0.58997226
0.04026183,0.071470104,-0.16106696,-1.4889439,1.5325446,0.5716072
0.03900854,0.06924534,-0.15605319,-1.4425952,1.4848387,0.5538139
0.037794262,0.06708984,-0.1511955,-1.3976895,1.438618,0.5365745
0.03661779,0.06500144,-0.14648902,-1.3541816,1.3938361,0.5198718
0.03547794,0.06297806,-0.14192908,-1.3120284,1.3504485,0.5036891
0.034373578,0.06101767,-0.13751109,-1.2711873,1.3084115,0.48801017
0.033303596,0.059118308,-0.13323063,-1.2316177,1.2676831,0.47281936
0.032266922,0.05727807,-0.12908342,-1.1932799,1.2282227,0.45810145
0.03126252,0.055495124,-0.12506533,-1.1561356,1.1899908,0.4438417
0.030289384,0.05376768,-0.12117232,-1.1201476,1.1529489,0.43002588
0.029346542,0.052094012,-0.11740049,-1.08528,1.1170602,0.4166401
0.028433053,0.050472446,-0.113746084,-1.0514976,1.0822886,0.40367106
0.027547998,0.048901357,-0.110205434,-1.018767,1.0485995,0.39110574
0.026690496,0.047379177,-0.106775,-0.9870552,1.0159591,0.37893155
0.025859686,0.04590438,-0.10345136,-0.9563306,0.9843348,0.36713633
0.02505474,0.044475492,-0.10023118,-0.9265624,0.95369494,0.3557083
0.024274848,0.04309108,-0.09711124,-0.89772093,0.92400885,0.34463602
