ax,ay,az,gx,gy,gz
9.540087,14.355585,9.42645,-17.090155,2.108201,-49.716816
9.481441,14.239049,9.205631,-37.50526,8.286929,-42.13917
8.933208,13.5885,8.7358675,-53.492195,15.569819,-41.263336
8.679292,12.911729,8.2350235,-68.69691,30.37583,-43.87731
8.610571,12.293025,7.5769973,-82.684074,45.722073,-45.287605
8.525414,11.673758,6.8061457,-96.828156,61.033684,-41.05543
8.206075,11.054642,5.835437,-110.5535,74.6933,-34.43782
7.5723333,10.435783,4.732917,-121.373505,83.89136,-30.29427
6.9383297,9.808587,3.669833,-128.95192,88.90414,-29.420471
6.5864353,9.232551,2.7378361,-134.87897,91.74183,-27.934334
6.3599224,8.66324,1.876361,-139.10974,94.27464,-23.313446
5.9332123,8.065317,0.98378307,-142.3375,96.595726,-17.0667
5.3144712,7.4812794,0.09627817,-144.89131,98.2269,-10.786007
4.5788703,6.8786473,-0.77961946,-145.98691,98.697235,-6.21894
3.8485293,6.2750072,-1.5861351,-145.60353,98.09723,-3.4578793
3.193823,5.69834,-2.291506,-143.7393,96.8428,-1.3197376
2.5423136,5.1607995,-2.9131114,-141.01106,94.7291,0.8015189
1.8800881,4.652085,-3.4626584,-137.30353,91.73351,2.489398
1.2211397,4.166744,-3.96387,-132.5688,87.64618,3.3764071
0.5814864,3.7119331,-4.4170294,-126.89959,82.33453,3.7396648
-0.04218673,3.2998438,-4.8039727,-120.08721,75.401306,3.3616042
-0.6230834,2.9420917,-5.115133,-112.85446,68.11516,1.9645226
-1.1562464,2.62288,-5.3642025,-105.19498,61.004578,-0.7741833
-1.655672,2.3457997,-5.56851,-97.07511,53.59575,-4.3627944
-2.1071057,2.1214979,-5.7393017,-88.548004,45.032124,-8.066121
-2.494393,1.9431967,-5.8750153,-79.50958,34.776768,-11.3557
-2.8263605,1.8397605,-5.9743896,-70.69959,23.531567,-14.730407
-3.0618424,1.7874528,-6.0275707,-62.128754,12.110685,-18.723074
-3.1696382,1.8077595,-6.016737,-54.24635,0.796909,-22.884464
-3.1406593,1.8606938,-5.96011,-47.235245,-10.421474,-26.740812
-2.9759247,1.9126407,-5.8789325,-40.721455,-21.314281,-30.011438
-2.5991876,2.0155175,-5.7139,-34.66881,-31.332047,-32.957554
-2.0621827,2.165254,-5.4756613,-29.514757,-39.98315,-35.407597
-1.4203587,2.3191965,-5.209538,-25.169855,-46.77719,-37.16059
-0.741739,2.4755392,-4.940506,-21.547121,-51.877174,-38.58318
-0.02682418,2.6296363,-4.6577654,-18.724846,-54.825745,-39.23519
0.6901676,2.804011,-4.331745,-16.599197,-56.332596,-39.168655
1.3682299,2.9882147,-3.9781456,-15.162255,-56.36236,-38.503197
1.9963207,3.193262,-3.6033945,-14.568107,-54.802834,-37.387115
2.5630414,3.4049315,-3.2296414,-14.847795,-51.772305,-35.975384
3.065864,3.6099665,-2.8765771,-16.305695,-47.184208,-33.943615
3.4838743,3.8069358,-2.5607119,-18.531971,-41.76968,-31.469316
3.8413625,4.003371,-2.2834969,-21.488886,-35.667892,-28.635643
4.155151,4.199038,-2.048543,-25.122555,-28.89026,-25.47507
4.438128,4.3972473,-1.856579,-29.571154,-21.427494,-21.91733
4.658056,4.5535784,-1.7438301,-34.97222,-13.053792,-17.282827
4.729329,4.6401935,-1.762095,-40.666622,-4.6462636,-12.041034
4.7187543,4.6723924,-1.8588802,-46.535854,3.9389408,-6.158061
4.617741,4.6522636,-2.029629,-52.45318,12.756909,0.07834883
4.4118476,4.575325,-2.2796197,-58.04379,21.566189,6.3851886
4.064057,4.4510293,-2.6041226,-62.482037,29.153305,11.482961
3.6252682,4.289596,-2.956752,-65.6598,35.395653,14.917943
3.1815786,4.0972176,-3.3094065,-67.55246,40.297596,16.833778
2.7676053,3.885327,-3.6512003,-68.178215,43.945362,17.97922
2.675921,3.7566152,-3.5302446,-65.91963,42.489555,17.383612
2.587612,3.6326418,-3.4137418,-63.74419,41.08734,16.809927
2.5025227,3.5131884,-3.3014865,-61.648067,39.736256,16.257162
2.420508,3.3980513,-3.1932874,-59.627686,38.433983,15.724368
2.341431,3.2870386,-3.0889642,-57.67968,37.178364,15.210661
2.2651641,3.1799705,-2.988348,-55.800888,35.96736,14.715206
2.1915863,3.0766778,-2.8912797,-53.98835,34.799057,14.237223
2.1205842,2.977001,-2.7976093,-52.239258,33.671654,13.775972
2.0520508,2.8807898,-2.7071958,-50.55098,32.583447,13.330757
1.9858848,2.7879019,-2.6199052,-48.92102,31.532831,12.900922
1.9219904,2.698203,-2.5356116,-47.347023,30.518284,12.485845
1.860277,2.6115663,-2.4541955,-45.82675,29.53837,12.084935
1.8006588,2.5278707,-2.3755434,-44.358097,28.591724,11.697637
1.7430544,2.4470022,-2.299548,-42.939045,27.677053,11.323421
1.6873862,2.368852,-2.226107,-41.567696,26.793127,10.961782
1.6335807,2.2933166,-2.1551232,-40.24223,25.938778,10.612246
1.5815679,2.220298,-2.0865047,-38.960926,25.112892,10.274354
1.5312809,2.1497023,-2.0201628,-37.72214,24.314413,9.947675
1.4826564,2.0814402,-1.9560142,-36.524303,23.542328,9.631794
1.4356333,2.0154264,-1.8939785,-35.36592,22.795673,9.326318
1.3901539,1.9515797,-1.8339791,-34.245564,22.073528,9.0308695
1.3461626,1.8898221,-1.775943,-33.161865,21.375015,8.745089
1.3036065,1.8300794,-1.7198004,-32.113525,20.69929,8.468631
1.2624348,1.7722802,-1.6654841,-31.099287,20.045546,8.201167
1.222599,1.7163564,-1.6129302,-30.117958,19.413013,7.942382
1.1840526,1.6622425,-1.5620772,-29.168388,18.800953,7.691972
1.1467507,1.609876,-1.5128661,-28.24948,18.208656,7.449647
1.1106505,1.5591965,-1.4652406,-27.360176,17.63544,7.2151294
1.075711,1.5101464,-1.4191462,-26.499464,17.080656,6.988152
1.0418926,1.4626702,-1.3745309,-25.66637,16.543673,6.7684574
1.0091575,1.4167147,-1.3313446,-24.85996,16.023888,6.5557995
0.97746897,1.3722285,-1.2895391,-24.079332,15.520721,6.3499413
0.946792,1.3291622,-1.249068,-23.323626,15.033617,6.150654
0.9170928,1.2874688,-1.2098869,-22.592003,14.562039,5.9577184
0.8883388,1.2471023,-1.1719528,-21.883667,14.10547,5.7709236
0.8604987,1.2080188,-1.1352245,-21.197844,13.663411,5.590066
0.8335424,1.1701759,-1.0996621,-20.533792,13.235386,5.4149494
0.80744076,1.1335329,-1.065227,-19.890795,12.820931,5.245385
0.78216577,1.0980504,-1.0318826,-19.268162,12.419603,5.081191
0.75769037,1.0636903,-0.9995932,-18.665226,12.030972,4.922191
0.7339886,1.0304164,-0.9683243,-18.081347,11.654623,4.768217
0.7110352,0.998193,-0.9380427,-17.515903,11.290157,4.619105
0.68880594,0.9669863,-0.9087165,-16.9683,10.937191,4.4746966
0.66727746,0.9367633,-0.8803147,-16.43796,10.595351,4.334841
0.64642704,0.9074923,-0.8528076,-15.924323,10.264278,4.19939
0.6262329,0.87914264,-0.8261662,-15.426854,9.943626,4.068203
0.606674,0.8516847,-0.8003628,-14.945032,9.633061,3.9411423
0.58772993,0.8250898,-0.7753706,-14.478356,9.332257,3.8180754
0.569381,0.7993305,-0.7511635,-14.026341,9.040904,3.698875
0.55160815,0.7743799,-0.72771645,-13.588519,8.758698,3.5834172
0.534393,0.7502124,-0.70500517,-13.164435,8.485349,3.4715824
0.5177179,0.72680277,-0.6830062,-12.753654,8.220572,3.3632555
0.5015655,0.70412713,-0.66169703,-12.35575,7.9640975,3.2583249
0.4859193,0.6821621,-0.6410556,-11.970316,7.7156596,3.1566823
0.4707632,0.6608851,-0.62106067,-11.596955,7.475004,3.0582235
0.4560817,0.6402743,-0.6016919,-11.235286,7.2418838,2.962848
0.44185972,0.62030864,-0.5829294,-10.884935,7.0160604,2.8704574
0.42808273,0.6009677,-0.5647539,-10.545548,6.797303,2.780958
0.41473672,0.5822318,-0.547147,-10.216778,6.5853887,2.6942582
0.40180802,0.5640817,-0.53009063,-9.898288,6.3801007,2.6102693
0.38928354,0.5464991,-0.5135675,-9.589754,6.1812305,2.5289063
0.37715045,0.529466,-0.4975608,-9.290864,5.9885755,2.450086
0.36539647,0.5129651,-0.4820542,-9.001312,5.8019404,2.3737285
0.3540097,0.49697962,-0.46703205,-8.720806,5.6211357,2.2997565
0.34297854,0.4814934,-0.45247903,-8.44906,5.4459777,2.2280946
0.3322918,0.4664908,-0.43838045,-8.1858,5.276289,2.1586704
0.32193872,0.45195654,-0.424722,-7.930758,5.1118975,2.0914137
0.3119088,0.43787593,-0.41148987,-7.683677,4.9526377,2.026256
0.3021919,0.42423478,-0.39867073,-7.4443073,4.798348,1.9631321
0.2927782,0.41101924,-0.38625157,-7.212406,4.6488724,1.9019778
0.28365818,0.39821604,-0.37421986,-6.9877405,4.5040607,1.8427314
0.27482265,0.3858122,-0.36256346,-6.770083,4.3637657,1.785333
0.2662627,0.37379524,-0.35127065,-6.559214,4.227847,1.7297249
0.2579697,0.36215305,-0.34033,-6.3549213,4.0961666,1.6758511
0.24993531,0.3508739,-0.3297305,-6.156999,3.9685926,1.6236571
0.24215142,0.33994642,-0.31946152,-5.9652476,3.8449965,1.5730906
0.2346102,0.3293596,-0.30951265,-5.7794743,3.725253,1.5241004
0.22730406,0.3191028,-0.29987392,-5.599492,3.609243,1.4766375
0.22022565,0.30916572,-0.29053563,-5.4251204,3.4968483,1.4306539
0.21336785,0.29953834,-0.28148842,-5.2561827,3.387957,1.3861036
0.20672378,0.290211,-0.27272314,-5.09251,3.2824593,1.3429416
0.20028676,0.28117433,-0.264231,-4.933938,3.1802492,1.3011248
0.19405031,0.27241924,-0.25600347,-4.7803073,3.081224,1.2606109
0.18800819,0.26393694,-0.24803232,-4.631463,2.985284,1.2213594
0.18215431,0.25571892,-0.2403095,-4.4872565,2.8923335,1.1833308
0.1764828,0.24775694,-0.2328273,-4.347543,2.8022785,1.1464869
0.17098798,0.24004298,-0.22557819,-4.212181,2.7150292,1.1107908
0.16566433,0.23256934,-0.2185549,-4.0810366,2.6304977,1.0762068
0.16050652,0.22532849,-0.21175037,-3.9539769,2.5485995,1.0427
0.15550935,0.21831317,-0.2051578,-3.830875,2.469252,1.0102369
0.15066783,0.21151637,-0.19877057,-3.7116072,2.3923762,0.9787849
0.14597711,0.20493126,-0.19258226,-3.5960543,2.3178947,0.9483125
0.14143248,0.19855124,-0.18658671,-3.4841,2.2457328,0.9187892
0.1370294,0.19236991,-0.18077786,-3.3756328,2.1758182,0.8901853
0.13276342,0.18638109,-0.17514992,-3.270543,2.108081,0.86247224
0.1286303,0.18057877,-0.16969724,-3.1687262,2.0424535,0.8356222
0.12462588,0.17495713,-0.16441436,-3.07008,1.9788694,0.8096083
0.12074616,0.16951056,-0.15929599,-2.9745054,1.9172653,0.7844044
0.11698724,0.16423358,-0.15433699,-2.8819072,1.8575796,0.7599853
0.113345385,0.15912092,-0.14953242,-2.792192,1.7997524,0.7363267
0.10981692,0.15416744,-0.14487745,-2.7052705,1.7437257,0.71340466
0.106398314,0.14936821,-0.1403674,-2.6210556,1.6894435,0.6911964
0.10308616,0.14471841,-0.1359978,-2.5394626,1.6368514,0.6696796
0.09987713,0.14021339,-0.13176425,-2.46041,1.585897,0.64883274
0.096768014,0.13584863,-0.1276625,-2.383819,1.5365288,0.6286349
0.09375569,0.13161975,-0.12368846,-2.3096125,1.4886979,0.609066
0.090837166,0.12752256,-0.11983815,-2.2377162,1.442356,0.5901063
0.0880095,0.1235529,-0.11610771,-2.1680584,1.397457,0.57173693
0.08526986,0.11970685,-0.11249341,-2.1005695,1.3539557,0.5539394
0.082615525,0.11598053,-0.10899164,-2.0351813,1.311809,0.536696
0.08004382,0.11237022,-0.10559888,-1.971829,1.2709742,0.51998943
0.07755218,0.10887231,-0.10231175,-1.9104491,1.2314107,0.50380296
0.07513811,0.10548329,-0.09912696,-1.8509799,1.1930789,0.4881204
0.07279919,0.102199785,-0.09604131,-1.7933621,1.1559404,0.47292605
0.07053308,0.09901849,-0.09305172,-1.7375381,1.1199582,0.45820475
0.06833752,0.09593624,-0.0901552,-1.6834519,1.085096,0.4439417
0.066210315,0.092949934,-0.08734885,-1.6310494,1.0513191,0.4301227
0.06414933,0.0900566,-0.084629856,-1.5802783,1.0185938,0.41673386
0.062152497,0.087253325,-0.08199552,-1.5310876,0.9868871,0.40376183
0.060217828,0.08453733,-0.07944318,-1.4834282,0.9561675,0.39119363
0.058343384,0.08190587,-0.076970294,-1.4372525,0.92640424,0.37901667
0.05652729,0.079356335,-0.07457439,-1.3925142,0.89756745,0.3672188
0.05476773,0.07688616,-0.07225306,-1.3491687,0.8696283,0.35578814
0.05306295,0.07449289,-0.07000401,-1.3071723,0.8425589,0.34471333
0.05141123,0.07217411,-0.06782496,-1.2664833,0.81633216,0.33398327
0.04981093,0.06992751,-0.06571374,-1.2270609,0.79092187,0.32358724
