ax,ay,az,gx,gy,gz
9.49645,14.581951,9.622815,-39.451267,-84.118034,-40.672188
10.486811,14.818302,10.299962,-59.855362,-70.735016,-26.643957
10.719551,14.20936,10.291573,-77.31816,-55.88392,-17.461535
10.6104765,13.415851,9.919325,-86.82449,-37.705505,-11.827156
10.275946,12.604156,9.318852,-95.69358,-19.03002,-8.481968
9.821023,11.801172,8.582116,-104.038315,0.017706566,-7.4014897
9.308486,11.019716,7.7370114,-111.26383,16.07899,-7.033326
8.904787,10.321051,6.940918,-117.55367,30.610342,-6.440897
8.53898,9.689552,6.1509147,-123.00892,43.898293,-5.32565
8.176526,9.1270685,5.3751793,-127.52057,55.45558,-3.962352
7.8155947,8.631024,4.6252294,-131.356,65.87055,-2.5907996
7.4048514,8.171481,3.8697324,-134.89413,74.84017,-1.3474543
6.9370923,7.703191,3.101519,-138.01044,82.03197,0.3801681
6.3857493,7.2254868,2.3255255,-140.73601,86.92102,2.3127599
5.7912216,6.6997643,1.5336335,-142.4541,90.36811,3.771639
5.1633625,6.12124,0.7405069,-142.8421,92.619576,4.5686946
4.5137897,5.5047374,-0.030960968,-141.25752,93.21536,4.8641777
3.8724644,4.916193,-0.7408516,-138.494,92.433205,5.098572
3.2581594,4.366317,-1.3943437,-134.6367,90.44295,5.0541058
2.6687684,3.8598156,-1.9831488,-129.78845,87.45063,4.302268
2.1064992,3.38626,-2.5152774,-123.535835,82.93187,2.867425
1.5991013,2.9664204,-2.978732,-116.605545,77.70647,1.1254103
1.1336488,2.598412,-3.3863199,-109.01825,71.75756,-0.82300895
0.700807,2.290307,-3.740692,-101.26236,65.15435,-2.7373648
0.30801058,2.0310125,-4.0561357,-93.33795,57.810055,-4.519282
-0.01670251,1.8255514,-4.3152623,-85.24183,49.65504,-6.290928
-0.25274813,1.6782877,-4.511569,-77.366455,41.224697,-7.936943
-0.43492687,1.5583261,-4.6716228,-69.90953,32.744938,-9.440797
-0.56972003,1.4409199,-4.820123,-62.562073,24.177637,-10.682252
-0.6532962,1.3548689,-4.9176097,-55.321053,15.5298815,-11.730594
-0.6787541,1.3134179,-4.9495983,-48.419296,7.03548,-12.761428
-0.6597216,1.2963929,-4.938832,-41.981415,-1.3866122,-13.630447
-0.58677506,1.2852914,-4.896497,-36.051056,-9.6947975,-13.873916
-0.4646701,1.2946188,-4.8114033,-30.570786,-17.752073,-13.526846
-0.28774986,1.338362,-4.6674647,-25.591076,-25.249706,-13.011004
-0.06920592,1.3996427,-4.476744,-21.496212,-31.89091,-12.152497
0.16707812,1.4122132,-4.289495,-17.938368,-37.81567,-10.690985
0.39025784,1.4231178,-4.089502,-14.505707,-43.019554,-9.349385
0.6451539,1.4861561,-3.8322866,-11.206727,-47.000835,-9.191099
0.9499968,1.5959208,-3.5275006,-8.234856,-49.826164,-9.767811
1.2803011,1.7164161,-3.2086918,-6.0428987,-51.723625,-9.458367
1.5850507,1.8458956,-2.8898451,-4.306708,-52.946518,-8.722818
1.8817608,2.0218854,-2.5348916,-3.0944097,-52.9433,-8.627489
2.1696465,2.2187688,-2.1663194,-2.4492285,-51.754074,-8.902264
2.434196,2.4313726,-1.7954032,-2.5151622,-49.902035,-9.107675
2.6998174,2.6656437,-1.4220711,-3.3418915,-47.328037,-9.3023205
2.9645267,2.9290817,-1.046466,-5.2910805,-43.320217,-9.948206
3.2170093,3.1903255,-0.69626904,-8.031956,-38.560387,-10.758348
3.4481347,3.4142122,-0.40055928,-11.433076,-33.34182,-11.240567
3.6419284,3.5862706,-0.17768589,-15.469746,-27.631865,-11.409902
3.8008876,3.6972241,-0.03175849,-19.97498,-21.296232,-11.412097
3.8809698,3.7130244,0.0044801226,-24.517868,-15.091658,-11.301541
3.9220614,3.6704962,-0.020758329,-28.737198,-9.047478,-11.209454
3.955688,3.621783,-0.05921804,-32.856808,-2.9137878,-11.350239
3.989356,3.5515928,-0.13510627,-36.95666,3.3537247,-11.285599
3.9864073,3.4454408,-0.26598626,-41.002277,9.446913,-10.306857
3.9152672,3.291072,-0.46006402,-44.93449,15.414283,-8.747666
3.797309,3.1063619,-0.6924543,-48.77663,21.524086,-6.784747
3.6377735,2.8949783,-0.96810484,-52.295704,27.628382,-4.5013194
3.4430609,2.692213,-1.2595303,-55.162903,33.428284,-2.303003
3.2247453,2.5059204,-1.562118,-57.068577,38.62716,-0.68775654
2.9832299,2.3121855,-1.8852797,-57.489727,42.19069,0.31529588
2.7742207,2.1103525,-2.1967533,-56.813316,44.985287,1.4215704
2.6847692,2.0423067,-2.1259215,-54.981434,43.534786,1.3757334
2.5983887,1.9765968,-2.0575216,-53.212444,42.134087,1.3314703
2.5149567,1.91313,-1.9914564,-51.50384,40.7812,1.2887179
2.4343574,1.8518181,-1.9276341,-49.85325,39.474243,1.2474171
2.3564804,1.792577,-1.8659676,-48.258404,38.21143,1.2075112
2.2812212,1.7353271,-1.806374,-46.717167,36.991066,1.1689467
2.2084801,1.679993,-1.7487743,-45.2275,35.81154,1.1316726
2.1381626,1.6265024,-1.6930937,-43.787468,34.671307,1.0956404
2.0701783,1.5747868,-1.6392608,-42.395218,33.56891,1.0608039
2.0044415,1.5247806,-1.5872073,-41.048992,32.502956,1.0271189
1.9408698,1.4764216,-1.5368685,-39.74711,31.472113,0.99454343
1.879385,1.4296501,-1.488182,-38.487957,30.475107,0.9630373
1.8199121,1.384409,-1.4410886,-37.27001,29.510725,0.93256205
1.7623794,1.3406438,-1.3955317,-36.0918,28.577806,0.9030811
1.7067183,1.2983024,-1.3514568,-34.951916,27.675236,0.8745592
1.6528634,1.2573348,-1.3088119,-33.84902,26.801952,0.84696275
1.6007513,1.2176931,-1.2675472,-32.781815,25.95693,0.8202594
1.5503219,1.1793314,-1.2276149,-31.74907,25.139194,0.7944183
1.5015172,1.1422057,-1.1889691,-30.749598,24.347803,0.7694097
1.4542817,1.1062735,-1.1515659,-29.782259,23.581858,0.74520516
1.4085617,1.0714943,-1.1153629,-28.84596,22.840487,0.7217773
1.3643062,1.037829,-1.0803193,-27.939651,22.122864,0.69909984
1.3214656,1.0052402,-1.0463963,-27.062319,21.428185,0.67714745
1.2799927,0.9736917,-1.013556,-26.212992,20.75568,0.65589577
1.2398415,0.9431487,-0.9817625,-25.390736,20.10461,0.63532144
1.2009683,0.91357774,-0.9509809,-24.59465,19.474262,0.615402
1.1633306,0.8849467,-0.9211777,-23.823868,18.863949,0.5961156
1.1268876,0.8572245,-0.8923205,-23.07755,18.27301,0.57744145
1.0916001,0.8303813,-0.8643783,-22.354898,17.700806,0.5593594
1.0574301,0.8043882,-0.837321,-21.655132,17.146725,0.54185
1.0243412,0.7792174,-0.81111974,-20.977503,16.610172,0.52489454
0.9922982,0.7548422,-0.7857466,-20.321293,16.09058,0.50847495
0.96126693,0.7312367,-0.76117456,-19.685802,15.587393,0.49257383
0.93121463,0.7083759,-0.7373778,-19.07036,15.1000805,0.4771744
0.9021097,0.6862357,-0.7143312,-18.47432,14.62813,0.4622604
0.87392145,0.66479295,-0.6920105,-17.897053,14.171045,0.44781616
0.84662056,0.6440251,-0.6703924,-17.337957,13.728348,0.43382657
0.82017833,0.6239105,-0.64945424,-16.796446,13.299575,0.42027703
0.79456735,0.6044282,-0.6291743,-16.27196,12.884281,0.4071534
0.7697609,0.5855579,-0.60953146,-15.7639475,12.482033,0.39444202
0.7457333,0.5672801,-0.59050536,-15.271886,12.092415,0.3821298
0.7224598,0.54957587,-0.5720763,-14.795266,11.715023,0.37020394
0.6999162,0.53242695,-0.55422527,-14.333596,11.349469,0.3586521
0.6780794,0.5158157,-0.5369339,-13.8864,10.995375,0.34746248
0.65692693,0.49972495,-0.5201844,-13.4532175,10.652377,0.3366235
0.636437,0.48413825,-0.5039596,-13.033605,10.320124,0.326124
0.61658865,0.46903962,-0.48824278,-12.6271305,9.998274,0.31595328
0.5973616,0.45441356,-0.4730179,-12.233379,9.686498,0.30610093
0.5787362,0.44024518,-0.45826945,-11.851948,9.384478,0.29655686
0.5606933,0.42652,-0.4439823,-11.482449,9.091905,0.28731132
0.5432147,0.41322398,-0.43014196,-11.124503,8.80848,0.27835488
0.5262825,0.40034363,-0.41673425,-10.777748,8.533916,0.26967847
0.50987947,0.3878658,-0.4037456,-10.441831,8.267934,0.2612732
0.49398896,0.3757779,-0.39116278,-10.116409,8.0102625,0.25313058
0.47859487,0.3640676,-0.37897304,-9.801153,7.7606397,0.24524231
0.46368155,0.35272303,-0.36716402,-9.495743,7.5188136,0.2376004
0.44923392,0.34173268,-0.3557237,-9.199869,7.2845383,0.23019712
0.43523732,0.33108547,-0.34464058,-8.913233,7.0575767,0.22302496
0.42167762,0.3207706,-0.33390337,-8.635543,6.8376994,0.21607667
0.40854105,0.3107776,-0.3235013,-8.36652,6.6246843,0.20934522
0.39581442,0.30109644,-0.31342375,-8.10589,6.418316,0.20282383
0.38348484,0.2917173,-0.30366063,-7.853393,6.218386,0.19650587
0.37153986,0.28263074,-0.29420206,-7.6087713,6.0246925,0.19038501
0.35996744,0.2738276,-0.2850385,-7.37178,5.8370404,0.18445507
0.34875593,0.265299,-0.27616072,-7.142179,5.6552405,0.17871004
0.33789402,0.25703633,-0.26755977,-6.919738,5.47911,0.17314416
0.3273708,0.24903129,-0.25922698,-6.704232,5.3084702,0.16775183
0.3171756,0.2412758,-0.25115398,-6.495445,5.143151,0.1625276
0.30729824,0.23376209,-0.24333264,-6.293166,4.982985,0.15746623
0.29772875,0.22648257,-0.23575509,-6.097193,4.8278112,0.15256262
0.28845754,0.21942994,-0.2284137,-5.907327,4.677474,0.14781184
0.27947524,0.2125971,-0.22130112,-5.7233787,4.5318217,0.14320913
0.27077284,0.20597719,-0.21441019,-5.545162,4.3907084,0.13874984
0.26234165,0.19956355,-0.20773397,-5.3724995,4.2539926,0.1344295
0.25417313,0.19334976,-0.20126577,-5.2052164,4.1215363,0.13024378
0.24625912,0.18732956,-0.1949991,-5.043145,3.993207,0.12618847
0.23859167,0.18149693,-0.18892767,-4.886123,3.8688755,0.122259505
0.23116308,0.175846,-0.18304537,-4.733993,3.7484176,0.11845294
0.22396591,0.17037109,-0.17734632,-4.5866017,3.631712,0.11476495
0.21699291,0.16506673,-0.1718248,-4.443802,3.5186417,0.11119184
0.21023713,0.15992759,-0.16647525,-4.30545,3.4090934,0.10773002
0.20369175,0.15494852,-0.16129233,-4.171407,3.302957,0.10437603
0.19735025,0.15012453,-0.15627085,-4.041539,3.2001266,0.101126514
0.19120625,0.14545079,-0.15140574,-3.915716,3.1004987,0.09797819
0.18525358,0.14092259,-0.14669216,-3.7938113,3.0039735,0.09492792
0.1794863,0.1365354,-0.14212537,-3.6757033,2.9104543,0.09197264
0.17389862,0.13228486,-0.13770078,-3.561273,2.8198476,0.0891094
0.16848496,0.12816668,-0.133414,-3.4504063,2.7320623,0.08633531
0.16323985,0.124176726,-0.12926069,-3.3429918,2.6470106,0.083647616
0.1581581,0.12031102,-0.12523672,-3.2389224,2.5646074,0.08104361
0.15323456,0.11656568,-0.12133805,-3.1380932,2.48477,0.078520685
0.14846434,0.11293697,-0.11756077,-3.0404038,2.4074187,0.07607632
0.14384264,0.109421246,-0.1139011,-2.945756,2.3324757,0.073708065
0.13936485,0.10601498,-0.110355385,-2.8540552,2.2598662,0.07141355
0.13502648,0.10271478,-0.10692006,-2.7652097,2.1895175,0.06919047
0.13082318,0.09951732,-0.1035917,-2.6791303,2.121359,0.067036614
0.12675075,0.096419424,-0.10036697,-2.595731,2.0553226,0.06494981
0.12280511,0.09341797,-0.09724264,-2.514928,1.9913424,0.06292798
0.118982315,0.090509966,-0.09421558,-2.436641,1.929354,0.0609691
0.11527854,0.0876925,-0.091282755,-2.3607912,1.8692955,0.0590712
0.11169007,0.08496275,-0.088441245,-2.287303,1.8111067,0.057232395
0.10821331,0.08231798,-0.085688196,-2.2161024,1.7547295,0.05545083
0.1048448,0.079755545,-0.08302085,-2.1471186,1.7001075,0.053724732
0.101581156,0.077272885,-0.08043655,-2.0802822,1.6471859,0.052052367
0.09841911,0.07486752,-0.0779327,-2.0155268,1.5959119,0.050432067
0.0953555,0.07253703,-0.0755068,-1.952787,1.5462341,0.04886221
0.092387274,0.07027909,-0.07315642,-1.8920006,1.4981028,0.047341224
0.08951144,0.068091445,-0.070879206,-1.8331064,1.4514699,0.04586759
0.08672514,0.065971896,-0.06867288,-1.7760456,1.4062886,0.044439826
0.08402557,0.06391834,-0.06653524,-1.7207612,1.3625139,0.04305651
0.08141004,0.0619287,-0.06446415,-1.6671977,1.3201019,0.041716255
0.07887593,0.060001,-0.062457528,-1.6153016,1.2790102,0.040417723
0.07642071,0.05813331,-0.06051337,-1.565021,1.2391976,0.039159615
0.07404192,0.056323763,-0.058629736,-1.5163058,1.2006243,0.03794067
0.07173718,0.05457054,-0.056804735,-1.4691069,1.1632519,0.03675967
0.06950418,0.052871898,-0.05503655,-1.4233773,1.1270428,0.035615433
0.06734069,0.05122613,-0.0533234,-1.3790711,1.0919608,0.034506816
