ax,ay,az,gx,gy,gz
-5.0809555,3.871853,-10.761916,45.610416,117.52107,9.100083
-5.7494597,4.1473207,-11.785407,23.529785,79.09112,10.144459
-6.2017436,4.047359,-12.345322,14.801466,41.48006,6.4123907
-6.344529,3.95963,-12.693359,9.50445,5.730053,-0.38699204
-6.2757616,3.7665386,-12.977017,2.84818,-28.265114,-6.1152353
-5.9696445,3.4607897,-13.1291,-1.2897593,-57.333893,-11.183822
-5.55807,3.0747423,-13.282231,-6.50676,-86.75785,-14.971257
-5.1524124,2.2584505,-13.52348,-9.240271,-116.2227,-18.35917
-4.688275,1.1927209,-13.811797,-8.20143,-148.53398,-21.901335
-3.8373218,-0.0396807,-14.040212,-5.289213,-185.51941,-24.209179
-2.2350092,-1.4553494,-13.905783,-1.032762,-223.31824,-22.816376
0.23112598,-2.8268776,-12.935286,7.779825,-247.57594,-14.135722
2.9047458,-3.809407,-11.013353,18.028313,-254.33661,-0.29549515
4.702388,-4.399976,-9.34483,28.909071,-251.6925,15.974813
5.7897205,-4.7089853,-8.036064,38.834858,-245.68735,31.677818
6.6117907,-4.828334,-6.8848,48.090305,-237.638,46.254726
7.3563447,-4.731287,-5.816642,55.626995,-225.60213,60.67607
7.8828254,-4.458464,-4.961607,62.55317,-211.60892,73.92365
8.189568,-4.0836325,-4.339046,69.34594,-196.31906,85.706825
8.333856,-3.6099715,-3.8967695,75.76705,-180.73643,95.70976
8.352993,-3.0282393,-3.5863018,80.915016,-164.46844,103.61025
8.253511,-2.381155,-3.3969753,83.92811,-147.94846,108.84104
8.032392,-1.7126914,-3.3172,85.54378,-132.1727,112.194725
7.752167,-1.0575937,-3.296622,85.57489,-117.63307,113.83922
7.424079,-0.44542393,-3.326586,84.5943,-104.39538,114.07883
7.056074,0.13493401,-3.3848464,82.80001,-92.665146,113.050514
6.6694226,0.6871047,-3.448747,80.03913,-82.92752,110.93377
6.2824516,1.2689365,-3.4978642,76.2111,-74.9251,108.39439
5.903513,1.8889732,-3.5285745,71.03933,-68.699524,104.54394
5.5620594,2.5021594,-3.5236547,65.60177,-63.741943,97.92417
5.3035865,3.0446055,-3.4803903,60.34954,-59.289677,88.56791
5.138202,3.499973,-3.39155,55.75572,-54.647064,76.12552
5.0579925,3.8943777,-3.24013,50.927795,-49.834175,62.233482
4.9980197,4.2251225,-3.0534275,45.563583,-45.126343,47.73194
4.949785,4.576731,-2.7999337,37.61707,-40.790226,33.751747
4.979215,4.950792,-2.4728913,25.588615,-36.971222,21.031942
5.1843553,5.258371,-2.0981135,6.9077144,-31.821585,11.978974
5.5245724,5.123745,-1.8381906,-11.814951,-24.92764,5.02141
5.9103093,4.478176,-1.7157934,-24.960768,-15.4875765,-0.63815135
6.3895288,3.4722826,-1.7261856,-29.879747,-3.7756577,-6.571486
6.9210086,2.381722,-1.8376199,-30.51274,8.680776,-11.073605
7.3948646,1.4100571,-2.0187106,-32.662895,19.96004,-9.912294
7.6366057,0.59438175,-2.2971194,-34.735294,29.794096,-5.5380588
7.7053266,0.010395748,-2.6083415,-35.725327,38.277725,-0.10080214
7.6503634,-0.38239855,-2.9156728,-35.56228,45.715958,5.7027307
7.5304985,-0.6451287,-3.2129347,-34.16317,52.57938,11.576899
7.379405,-0.81708276,-3.521061,-31.719986,58.319126,17.920832
7.22313,-0.91839576,-3.8394802,-27.929527,63.12446,24.501118
7.062848,-0.9484194,-4.162951,-22.921488,67.1319,30.845057
6.8996367,-0.9063636,-4.4893856,-17.14475,70.20514,36.62818
6.7273026,-0.82334846,-4.820676,-10.823152,72.19319,41.726967
6.541998,-0.71862406,-5.151136,-4.271552,72.48242,46.19535
6.34837,-0.5897517,-5.4792566,1.9453733,71.26198,50.408215
6.1593256,-0.4434374,-5.8028274,7.4779115,68.23384,54.539898
5.9869847,-0.28338325,-6.11738,12.115222,63.490463,58.629147
5.8408885,-0.11453547,-6.4211454,16.17696,57.318363,62.48928
5.701368,0.050359067,-6.7306714,21.00982,49.05316,65.466064
5.523301,0.2264031,-7.0813847,27.028269,38.670258,67.237144
5.3412895,0.5168219,-7.4420433,33.481144,26.166807,67.30173
5.2062654,1.0152893,-7.7666626,38.593407,12.012204,65.04988
5.167246,1.6823686,-7.9545836,40.19867,-2.466066,60.89488
5.1562552,2.3366575,-8.021206,37.500286,-16.289186,56.27234
5.039578,2.8379884,-8.098505,33.059273,-30.570656,51.10827
4.8818545,3.3253872,-8.209537,28.641788,-46.12015,43.644863
4.820857,3.8388443,-8.287188,23.219301,-63.667103,33.880875
4.9981036,4.3292513,-8.134182,15.928088,-80.5602,23.74664
5.3346367,4.7718906,-7.739473,6.5390763,-92.977455,14.676294
5.7732415,5.0755825,-7.163816,-3.2103393,-100.8339,6.2637653
6.226135,5.2102747,-6.6319723,-11.561861,-104.020874,-3.4955804
6.771141,5.052681,-6.1993957,-15.716216,-103.689476,-15.82437
7.493613,4.63403,-5.7931395,-16.869604,-100.72811,-27.25073
8.247817,4.11894,-5.406437,-20.14466,-95.91079,-32.474026
8.761606,3.5550826,-5.139338,-25.507355,-90.954216,-33.295696
9.045852,2.9465246,-4.968001,-31.04184,-85.903465,-30.993074
9.153565,2.3876586,-4.842742,-35.447224,-80.56798,-27.549849
9.116333,1.9164139,-4.744303,-38.56503,-74.92231,-23.950817
8.948553,1.5239269,-4.684039,-40.390606,-69.279434,-20.071732
8.665932,1.4757968,-4.5361037,-39.114956,-67.091385,-19.437809
8.392481,1.4292284,-4.392968,-37.880695,-64.974335,-18.824453
8.12788,1.3841673,-4.254465,-36.68638,-62.925804,-18.230951
7.8718224,1.340561,-4.1204343,-35.53063,-60.943417,-17.65661
7.624015,1.2983598,-3.9907217,-34.41211,-59.024895,-17.100775
7.384174,1.2575152,-3.8651793,-33.329556,-57.168056,-16.562809
7.1520295,1.2179812,-3.7436652,-32.281734,-55.3708,-16.042105
6.92732,1.1797135,-3.6260433,-31.267477,-53.631107,-15.538078
6.7097955,1.1426694,-3.512182,-30.285648,-51.947037,-15.050167
6.4992146,1.1068077,-3.4019554,-29.33516,-50.316727,-14.577831
6.295346,1.0720891,-3.2952418,-28.414967,-48.73838,-14.12055
6.0979652,1.0384755,-3.1919248,-27.524061,-47.210266,-13.677823
5.906858,1.0059302,-3.0918915,-26.66147,-45.73072,-13.249167
5.7218175,0.97441804,-2.9950337,-25.826263,-44.29814,-12.834119
5.542644,0.943905,-2.901247,-25.017536,-42.910984,-12.432229
5.3691444,0.9143583,-2.8104303,-24.234423,-41.56776,-12.043068
5.2011347,0.88574636,-2.722487,-23.476084,-40.26703,-11.666219
5.0384345,0.8580388,-2.637323,-22.741714,-39.00741,-11.30128
4.880872,0.8312061,-2.5548482,-22.03053,-37.787563,-10.9478655
4.72828,0.8052199,-2.4749756,-21.341787,-36.606205,-10.605599
4.5804987,0.7800529,-2.3976207,-20.674753,-35.462082,-10.274123
4.4373717,0.7556786,-2.3227022,-20.028728,-34.354,-9.953089
4.2987504,0.7320715,-2.250142,-19.40304,-33.280796,-9.6421585
4.164489,0.709207,-2.1798642,-18.797031,-32.24135,-9.341008
4.0344477,0.6870612,-2.1117954,-18.210073,-31.234575,-9.049324
3.908492,0.6656111,-2.045865,-17.641554,-30.25943,-8.766804
3.7864912,0.6448345,-1.9820046,-17.090885,-29.314903,-8.493154
3.6683187,0.6247099,-1.9201484,-16.557495,-28.400015,-8.228091
3.553853,0.6052165,-1.8602322,-16.040838,-27.513824,-7.971343
3.4429758,0.5863342,-1.8021946,-15.540377,-26.655416,-7.722644
3.335573,0.5680437,-1.7459756,-15.055599,-25.823908,-7.481738
3.2315347,0.5503261,-1.6915177,-14.586006,-25.018446,-7.2483783
3.130754,0.5331633,-1.638765,-14.131118,-24.238205,-7.022326
3.0331278,0.51653767,-1.5876634,-13.690468,-23.482386,-6.803349
2.9385564,0.5004323,-1.5381608,-13.263606,-22.750216,-6.5912237
2.8469431,0.48483068,-1.4902067,-12.850096,-22.040949,-6.385734
2.7581947,0.46971694,-1.4437522,-12.449517,-21.35386,-6.1866703
2.6722207,0.45507568,-1.3987498,-12.0614605,-20.688253,-5.9938293
2.5889337,0.440892,-1.355154,-11.685533,-20.043447,-5.8070154
2.508249,0.42715153,-1.3129203,-11.321351,-19.41879,-5.6260386
2.430085,0.41384026,-1.272006,-10.968545,-18.813646,-5.450715
2.354362,0.40094477,-1.2323695,-10.626759,-18.2274,-5.2808676
2.2810035,0.3884519,-1.1939707,-10.295644,-17.659462,-5.1163235
2.2099352,0.37634906,-1.1567706,-9.974867,-17.109253,-4.9569163
2.1410851,0.364624,-1.1207317,-9.664103,-16.576218,-4.8024845
2.0743837,0.35326484,-1.0858175,-9.363036,-16.059818,-4.6528726
2.0097637,0.34226015,-1.0519928,-9.071364,-15.559532,-4.507929
1.9471599,0.33159876,-1.0192232,-8.788792,-15.074854,-4.3675075
1.8865087,0.32126996,-0.987476,-8.515035,-14.605295,-4.2314663
1.8277494,0.31126332,-0.9567189,-8.249815,-14.150381,-4.099668
1.7708224,0.30156875,-0.926921,-7.992867,-13.709655,-3.97198
1.7156707,0.29217646,-0.89805233,-7.7439313,-13.282671,-3.8482738
1.6622385,0.28307703,-0.87008375,-7.5027575,-12.869,-3.7284245
1.6104721,0.27426127,-0.84298706,-7.269102,-12.468226,-3.6123118
1.5603193,0.26572034,-0.8167351,-7.0427303,-12.079946,-3.4998186
1.5117298,0.2574456,-0.79130137,-6.823415,-11.703768,-3.3908317
1.4646548,0.2494288,-0.76666033,-6.6109347,-11.339314,-3.2852418
1.4190469,0.24166183,-0.7427873,-6.4050765,-10.986218,-3.1829424
1.3748602,0.2341369,-0.71965814,-6.205633,-10.644127,-3.083831
1.3320503,0.22684643,-0.69724977,-6.012405,-10.312695,-2.987808
1.2905744,0.21978313,-0.67553955,-5.825197,-9.991589,-2.8947768
1.2503908,0.2129399,-0.6545057,-5.643822,-9.680488,-2.8046443
1.2114589,0.20630987,-0.63412726,-5.4680977,-9.379079,-2.7173197
1.1737399,0.19988638,-0.6143836,-5.2978477,-9.08706,-2.6327155
1.137196,0.19366299,-0.59525496,-5.132901,-8.804137,-2.550747
1.1017903,0.18763345,-0.5767222,-4.9730926,-8.530028,-2.4713316
1.0674876,0.18179172,-0.5587667,-4.8182616,-8.264457,-2.3943899
1.0342531,0.17613196,-0.5413705,-4.6682534,-8.007157,-2.3198447
1.0020539,0.17064847,-0.52451605,-4.5229173,-7.7578716,-2.2476213
0.97085744,0.16533574,-0.5081866,-4.3821077,-7.51635,-2.177647
0.9406326,0.1601885,-0.49236563,-4.245683,-7.2823496,-2.1098523
0.911349,0.15520154,-0.4770374,-4.1135073,-7.055637,-2.0441687
0.8829773,0.15036988,-0.46218652,-3.985448,-6.835984,-1.9805307
0.8554892,0.14568868,-0.4477981,-3.861376,-6.623172,-1.9188745
0.828857,0.14115326,-0.4338577,-3.7411678,-6.4169865,-1.8591381
0.8030541,0.13675906,-0.42035145,-3.6247027,-6.2172213,-1.8012619
0.7780547,0.13250169,-0.40726572,-3.5118642,-6.0236764,-1.7451879
0.7538337,0.12837689,-0.39458746,-3.402539,-5.8361583,-1.6908598
0.7303669,0.12438052,-0.38230395,-3.296618,-5.6544785,-1.6382233
0.7076307,0.12050858,-0.3704029,-3.193995,-5.478456,-1.5872258
0.6856024,0.11675719,-0.3588724,-3.0945673,-5.307914,-1.537816
0.66426,0.11312261,-0.34770092,-2.9982352,-5.142681,-1.4899447
0.6435821,0.109601185,-0.33687723,-2.9049022,-4.9825935,-1.4435638
0.623548,0.1061894,-0.32639056,-2.8144753,-4.82749,-1.3986269
0.60413754,0.10288383,-0.31623036,-2.7268636,-4.677215,-1.3550892
0.58533144,0.09968118,-0.30638647,-2.6419795,-4.5316186,-1.3129069
0.56711084,0.09657823,-0.29684907,-2.5597382,-4.3905554,-1.2720377
0.5494575,0.093571894,-0.28760856,-2.4800572,-4.253884,-1.2324411
0.53235376,0.09065914,-0.27865577,-2.4028568,-4.1214666,-1.194077
0.5157824,0.08783707,-0.26998165,-2.3280597,-3.9931724,-1.1569074
0.49972704,0.085102856,-0.2615776,-2.2555914,-3.868872,-1.1208949
0.48417145,0.082453765,-0.25343516,-2.185379,-3.748441,-1.0860034
0.46910012,0.07988714,-0.24554622,-2.1173522,-3.6317592,-1.0521983
0.45449796,0.07740041,-0.23790286,-2.0514433,-3.51871,-1.0194454
0.4403504,0.0749911,-0.23049745,-1.9875863,-3.4091797,-0.98771226
0.42664325,0.07265679,-0.22332256,-1.925717,-3.3030593,-0.9569669
0.4133628,0.07039514,-0.21637101,-1.8657737,-3.2002425,-0.9271786
0.40049574,0.068203904,-0.20963588,-1.8076963,-3.1006262,-0.8983177
0.38802925,0.066080876,-0.20311041,-1.751427,-3.004111,-0.8703552
0.37595084,0.064023934,-0.19678807,-1.6969093,-2.9106002,-0.8432631
0.36424842,0.062031027,-0.19066255,-1.6440887,-2.8200004,-0.8170144
0.35291028,0.060100157,-0.1847277,-1.5929123,-2.732221,-0.7915828
0.34192508,0.058229394,-0.1789776,-1.5433291,-2.647174,-0.76694286
