ax,ay,az,gx,gy,gz
-1.961836,0.63909674,-9.861907,8.8782625,161.35602,-10.931008
-2.7347436,1.0802591,-10.826321,-0.5282738,157.49806,-8.252784
-3.2179596,1.1580583,-11.3419895,-7.557044,149.10638,2.4617126
-3.6238604,1.3068871,-11.666118,-9.442541,140.0374,11.466786
-4.0889425,1.6608797,-11.973895,-8.65123,129.25464,14.94872
-4.605612,2.0195162,-12.34974,-3.5024703,110.652145,12.384004
-5.0860868,2.4272144,-12.745275,0.06378013,88.44747,7.332315
-5.4433436,2.803556,-13.144856,0.70771873,63.38855,0.17511225
-5.6437593,3.0558882,-13.575799,-0.6550686,36.191017,-9.286497
-5.6810684,3.0156608,-14.0729475,-3.2681432,6.881125,-20.147886
-5.624724,2.5589232,-14.671967,-3.9482,-28.699116,-32.20522
-5.2411075,1.7101489,-15.317084,-2.4249086,-66.76864,-42.129612
-4.4990788,0.7191198,-15.799679,0.5878177,-104.84114,-47.774883
-3.505031,-0.39031804,-16.053751,5.616071,-140.18414,-48.39004
-2.4274247,-1.5203555,-16.10792,12.480977,-171.80453,-43.182713
-1.260482,-2.584824,-15.959946,20.718819,-200.97127,-29.873568
0.39750266,-3.3155787,-15.247899,28.299984,-224.96295,-11.993366
2.327856,-3.6459794,-14.109548,33.155334,-242.46605,8.250725
4.2704835,-3.8130252,-12.713044,36.54366,-252.99641,26.73757
6.0746408,-3.9807174,-11.246532,43.79707,-254.57597,38.961037
7.632703,-4.1180787,-9.862078,59.692005,-242.77892,43.90572
8.705428,-3.925754,-8.7391815,76.57737,-225.36563,46.476532
9.403704,-3.578527,-7.8559027,88.38962,-205.98892,49.47999
9.808552,-3.237371,-7.2017694,95.71612,-186.00714,53.91941
9.980478,-2.9046295,-6.768936,100.71294,-166.01874,59.606827
9.946305,-2.5347068,-6.5530486,103.89568,-147.02504,66.76542
9.76132,-2.076254,-6.47623,105.313156,-129.71426,74.68342
9.53034,-1.5425001,-6.4334064,104.2887,-113.79839,83.936554
9.256569,-0.9217556,-6.422192,101.35102,-99.81665,93.387764
8.96466,-0.22265314,-6.3894334,96.34459,-87.2141,102.19988
8.673445,0.5027976,-6.33744,89.74584,-75.47537,108.13647
8.346246,1.1877661,-6.3245234,82.753914,-65.371155,110.52628
8.018546,1.766074,-6.307734,76.378944,-57.12461,109.78649
7.7157817,2.2915666,-6.2373686,70.432724,-50.643177,106.71345
7.4700413,2.8245573,-6.0815473,63.710598,-45.379333,101.42909
7.2898335,3.3520908,-5.8694854,55.52729,-40.99871,92.39239
7.22297,3.7691545,-5.554823,47.914433,-35.939148,80.2295
7.257577,4.161213,-5.1641107,41.032677,-29.60983,64.161224
7.4111347,4.428638,-4.7584305,33.559685,-22.36273,45.126854
7.7026687,4.4623284,-4.3594093,24.054834,-13.361022,25.22961
8.117814,4.1623526,-4.0576205,12.117149,-0.21724665,7.5237575
8.517675,3.201498,-4.0816674,3.137294,14.166119,-5.799314
8.81223,1.8822432,-4.2506247,0.106547475,27.945795,-14.239983
9.122178,0.6455828,-4.415809,1.6893593,41.067,-17.972158
9.398644,-0.31843325,-4.5948806,4.6936517,53.462093,-19.099148
9.541444,-1.0724564,-4.812836,8.486164,64.82851,-17.83734
9.575151,-1.6092328,-5.053349,12.70998,75.49854,-14.605149
9.505075,-1.9825568,-5.347784,15.715569,84.48963,-9.13457
9.347421,-2.2324498,-5.6909513,17.435509,91.1835,-1.6417648
9.133536,-2.391345,-6.060173,18.632288,95.64722,7.2645726
8.946062,-2.4788556,-6.403545,22.783836,99.47388,16.064812
8.786004,-2.4680872,-6.767437,29.237907,103.161545,23.819803
8.629157,-2.3642213,-7.1323624,36.653732,106.399086,31.265734
8.470888,-2.1763797,-7.489924,43.443657,108.77593,39.209373
8.272523,-1.9115114,-7.8462477,48.852818,109.69556,47.62998
7.9744043,-1.518712,-8.203017,52.886547,107.76539,54.51394
7.5785747,-0.99515337,-8.528233,55.699436,103.509224,58.882946
7.182463,-0.4763868,-8.814726,57.096497,97.12847,61.571865
6.8125963,-0.0027641787,-9.074359,57.029766,88.94843,63.135563
6.4803343,0.4011635,-9.322454,55.963406,79.32941,64.04527
6.1717744,0.74329406,-9.572521,54.264538,67.91632,64.04266
5.9118237,1.0240092,-9.816296,52.753662,55.38611,63.45482
5.7028275,1.3186216,-9.996848,51.72337,42.040955,62.015568
5.5607667,1.7289373,-10.104676,50.7641,27.757528,58.309696
5.5205564,2.1976864,-10.132582,49.175976,12.617353,52.3156
5.6241546,2.64199,-10.026186,46.944363,-1.81396,44.944588
5.8838987,3.1112373,-9.6619215,43.114132,-14.157221,38.040947
6.175562,3.661087,-9.13011,37.52905,-23.617462,31.110788
6.4044056,4.195648,-8.576284,30.250635,-31.192492,22.840511
6.597053,4.570426,-8.082315,22.322453,-38.000263,13.050584
6.909145,4.7287197,-7.640465,14.021013,-44.09343,2.286748
7.455675,4.5296884,-7.2446265,5.1372547,-49.148,-7.8831663
8.090039,4.0448747,-6.8247843,-4.4800253,-51.560493,-15.666372
8.607919,3.3635685,-6.454894,-13.06237,-51.051826,-20.823856
8.907922,2.6266968,-6.1768827,-20.179682,-48.765556,-23.267485
9.009884,1.9413415,-5.967492,-26.152441,-45.402954,-22.465525
8.914891,1.3759342,-5.807737,-31.691101,-41.374397,-19.856686
8.694098,0.9161212,-5.6982155,-36.344044,-36.815712,-16.222391
8.370533,0.57330674,-5.6485734,-39.40157,-32.628345,-13.062329
8.106624,0.55523133,-5.470483,-38.159306,-31.599628,-12.6504965
7.8512363,0.5377396,-5.2981434,-36.95715,-30.604128,-12.251961
7.604077,0.5208113,-5.131356,-35.793728,-29.640697,-11.866264
7.3648634,0.5044274,-4.9699306,-34.667706,-28.708244,-11.492969
7.1333256,0.48856908,-4.8136854,-33.57782,-27.80571,-11.131651
6.909204,0.47321877,-4.6624446,-32.52284,-26.932085,-10.781906
6.6922483,0.45835924,-4.516039,-31.50159,-26.086391,-10.443344
6.4822183,0.44397405,-4.374307,-30.512941,-25.267693,-10.115589
6.2788825,0.43004733,-4.237093,-29.555803,-24.47509,-9.798281
6.082018,0.4165639,-4.1042457,-28.629128,-23.707712,-9.491071
5.891411,0.403509,-3.9756207,-27.731907,-22.964725,-9.193625
5.706854,0.3908685,-3.8510787,-26.863165,-22.245323,-8.9056225
5.528149,0.37862882,-3.7304857,-26.021969,-21.54873,-8.626751
5.3551035,0.36677676,-3.6137118,-25.207415,-20.874199,-8.356711
5.187533,0.35529965,-3.5006323,-24.418629,-20.221008,-8.095215
5.025258,0.3441853,-3.3911266,-23.654774,-19.58846,-7.841983
4.8681073,0.3334219,-3.285079,-22.915037,-18.975887,-7.5967474
4.7159147,0.32299805,-3.1823769,-22.19864,-18.38264,-7.3592486
4.5685196,0.31290278,-3.0829122,-21.504826,-17.808094,-7.1292367
4.4257674,0.30312553,-2.9865806,-20.832865,-17.251646,-6.90647
4.2875085,0.29365602,-2.893281,-20.182055,-16.712711,-6.6907144
4.153598,0.28448436,-2.802916,-19.551716,-16.19073,-6.4817457
4.023897,0.275601,-2.7153919,-18.94119,-15.685155,-6.2793455
3.8982708,0.26699674,-2.6306171,-18.349846,-15.195463,-6.0833044
3.776589,0.2586626,-2.5485044,-17.77707,-14.721148,-5.893418
3.6587257,0.25059003,-2.4689682,-17.222265,-14.261716,-5.709491
3.544559,0.24277063,-2.3919268,-16.684862,-13.816695,-5.5313325
3.433972,0.2351964,-2.3173006,-16.164309,-13.385626,-5.3587594
3.32685,0.22785951,-2.245013,-15.660068,-12.968064,-5.191594
3.2230837,0.22075245,-2.17499,-15.171622,-12.563583,-5.0296655
3.1225667,0.21386792,-2.1071591,-14.69847,-12.171767,-4.872807
3.0251956,0.20719889,-2.0414517,-14.2401285,-11.792215,-4.7208586
2.9308715,0.20073852,-1.9778003,-13.796128,-11.4245405,-4.5736647
2.8394978,0.19448024,-1.9161398,-13.366016,-11.068366,-4.4310746
2.7509816,0.18841766,-1.8564075,-12.949354,-10.723329,-4.292944
2.6652324,0.18254462,-1.7985426,-12.545717,-10.389078,-4.159131
2.5821633,0.17685512,-1.7424861,-12.154696,-10.065275,-4.0295005
2.5016897,0.17134339,-1.6881813,-11.775893,-9.751589,-3.9039204
2.42373,0.16600384,-1.6355727,-11.408923,-9.447701,-3.782263
2.3482049,0.16083106,-1.5846072,-11.053413,-9.153305,-3.6644056
2.2750382,0.1558198,-1.5352333,-10.709005,-8.868101,-3.5502279
2.204156,0.15096499,-1.4874005,-10.375349,-8.591802,-3.439615
2.135486,0.1462617,-1.4410609,-10.052108,-8.324126,-3.3324544
2.068959,0.14170521,-1.3961675,-9.738954,-8.064804,-3.2286384
2.004508,0.1372909,-1.352675,-9.435572,-7.813574,-3.1280618
1.9420677,0.13301429,-1.3105392,-9.141654,-7.570182,-3.030623
1.8815752,0.1288711,-1.2697178,-8.856906,-7.334382,-2.9362235
1.8229696,0.12485713,-1.2301698,-8.581038,-7.105937,-2.8447685
1.7661915,0.12096834,-1.191855,-8.313774,-6.884616,-2.7561655
1.7111839,0.117200814,-1.154735,-8.054844,-6.6701965,-2.6703255
1.6578914,0.11355075,-1.1187724,-7.8039865,-6.4624624,-2.587162
1.6062604,0.11001449,-1.0839309,-7.5609503,-6.2612047,-2.506591
1.5562389,0.10658846,-1.0501755,-7.32549,-6.0662208,-2.4285316
1.5077765,0.10326922,-1.0174723,-7.097369,-5.877314,-2.3529055
1.4608245,0.10005343,-0.9857884,-6.876358,-5.6942954,-2.2796364
1.4153359,0.096937865,-0.9550919,-6.662235,-5.5169806,-2.2086506
1.3712647,0.09391938,-0.925352,-6.454784,-5.345191,-2.139877
1.3285668,0.09099496,-0.89653873,-6.2537975,-5.178755,-2.0732465
1.2871994,0.088161655,-0.86862326,-6.059074,-5.017504,-2.008692
1.2471207,0.08541663,-0.8415776,-5.8704166,-4.861278,-1.9461488
1.2082908,0.08275712,-0.81537443,-5.6876373,-4.7099185,-1.8855541
1.1706704,0.080180466,-0.7899876,-5.5105515,-4.5632744,-1.8268471
1.134222,0.077684075,-0.76539165,-5.3389826,-4.421199,-1.7699687
1.098909,0.07526545,-0.74156183,-5.172758,-4.2835484,-1.7148623
1.0646958,0.072922155,-0.71847427,-5.0117106,-4.1501856,-1.6614723
1.0315484,0.07065185,-0.69610584,-4.85568,-4.0209765,-1.6097453
0.99943334,0.068452254,-0.67443407,-4.704509,-3.8957922,-1.5596292
0.9683185,0.066321164,-0.65343726,-4.5580454,-3.7745066,-1.5110741
0.9381727,0.064256445,-0.6330943,-4.416144,-3.656998,-1.4640311
0.90896565,0.062256027,-0.61338496,-4.2786613,-3.543149,-1.4184532
0.8806682,0.060317904,-0.59428936,-4.14546,-3.4328456,-1.3742946
0.85325193,0.058440134,-0.57578844,-4.016407,-3.3259768,-1.3315111
0.8266894,0.05662084,-0.5578636,-3.8913724,-3.2224362,-1.2900599
0.800954,0.054858197,-0.54049695,-3.7702315,-3.1221194,-1.2498995
0.77602,0.053150434,-0.52367103,-3.6528625,-3.0249267,-1.2109896
0.7518623,0.05149585,-0.50736904,-3.539148,-2.93076,-1.1732913
0.72845685,0.049892787,-0.49157465,-3.4289744,-2.8395255,-1.1367667
0.70578015,0.048339635,-0.47627202,-3.322231,-2.7511315,-1.1013794
0.68380946,0.04683484,-0.46144587,-3.2188115,-2.66549,-1.0670938
0.66252285,0.045376897,-0.44708133,-3.1186116,-2.5825148,-1.0338758
0.64189905,0.04396435,-0.433164,-3.0215316,-2.502123,-1.001692
0.6219173,0.042595778,-0.41968,-2.927474,-2.4242342,-0.9705103
0.60255766,0.041269816,-0.4066158,-2.8363447,-2.3487704,-0.94029933
0.58380073,0.039985135,-0.39395833,-2.7480526,-2.2756557,-0.9110289
0.56562775,0.03874045,-0.3816949,-2.6625094,-2.2048175,-0.88266975
0.5480206,0.037534516,-0.3698133,-2.5796292,-2.1361847,-0.8551935
0.5309616,0.036366124,-0.35830158,-2.4993293,-2.0696886,-0.82857263
0.51443356,0.035234105,-0.34714824,-2.4215293,-2.0052626,-0.80278057
0.49842018,0.034137327,-0.33634213,-2.3461514,-1.9428422,-0.7777914
0.48290527,0.033074696,-0.3258724,-2.27312,-1.8823652,-0.75358015
0.46787336,0.032045145,-0.31572863,-2.202362,-1.8237708,-0.7301227
0.4533094,0.031047644,-0.30590063,-2.133807,-1.7670004,-0.70739543
0.43919882,0.030081196,-0.29637858,-2.0673862,-1.7119974,-0.6853757
0.4255275,0.029144833,-0.28715295,-2.0030327,-1.6587067,-0.6640414
0.41228178,0.028237619,-0.2782145,-1.9406829,-1.6070747,-0.6433713
0.3994484,0.027358647,-0.26955435,-1.8802738,-1.5570502,-0.6233446
0.3870145,0.026507037,-0.26116374,-1.8217453,-1.508583,-0.6039413
0.37496766,0.025681935,-0.25303435,-1.7650387,-1.4616244,-0.58514214
0.36329585,0.02488252,-0.245158,-1.7100974,-1.4161276,-0.5669281
0.35198736,0.02410799,-0.23752685,-1.6568664,-1.3720471,-0.549281
0.3410309,0.02335757,-0.23013325,-1.6052924,-1.3293388,-0.5321833
