ax,ay,az,gx,gy,gz
-2.6100237,-0.9827362,-8.700079,-26.74479,117.799255,-9.6546335
-3.6782515,-0.64885855,-9.452383,-30.955904,108.725296,-12.760896
-4.476713,-0.120527975,-10.011659,-33.970104,92.40629,-17.86792
-4.991614,0.23457235,-10.437708,-33.991623,74.07282,-24.311522
-5.340728,0.20348209,-10.876578,-31.43952,53.038853,-30.449469
-5.546477,-0.086039536,-11.27101,-26.94357,26.413536,-34.52127
-5.5942225,-0.3285275,-11.606704,-22.139717,-0.6070933,-37.486675
-5.457721,-0.47121742,-11.839725,-15.744877,-26.240742,-40.0087
-5.216376,-0.6565822,-12.090801,-9.493935,-52.494877,-42.6333
-4.881387,-1.1721916,-12.401935,-3.1111395,-82.469894,-45.179424
-4.194472,-2.0046556,-12.571609,2.6216652,-116.83793,-44.44372
-2.9359918,-2.9483209,-12.290783,7.249239,-145.57872,-40.3992
-1.7899336,-3.7580562,-11.888525,13.660128,-167.64029,-35.01256
-0.83433425,-4.472822,-11.480239,23.416306,-184.93942,-28.83754
0.030430848,-5.098768,-11.011019,34.02379,-198.5052,-20.602734
0.7912411,-5.581993,-10.516101,45.360928,-209.67961,-9.980104
1.6740564,-5.7689238,-9.863302,56.330986,-218.4679,1.3341851
2.803917,-5.6979513,-8.983112,65.92109,-222.26169,13.142389
4.028238,-5.485141,-7.9522038,75.57767,-219.07631,25.697836
5.08967,-5.0852013,-6.9693494,84.947105,-211.60132,37.8703
5.9807196,-4.6226945,-6.08781,94.81325,-200.349,47.993237
6.76844,-4.0877824,-5.3062897,104.49145,-186.42354,56.556847
7.4289365,-3.4600294,-4.6406827,112.429955,-169.95984,63.711533
7.9255986,-2.8099842,-4.1201563,117.481064,-151.49016,69.52779
8.241615,-2.220208,-3.778896,120.8653,-131.5727,74.36864
8.375792,-1.6473825,-3.6241593,121.94059,-110.86175,78.04327
8.320553,-1.0847514,-3.6522942,120.62176,-90.798615,81.00955
8.160142,-0.531703,-3.7939231,117.13506,-72.032196,83.48503
7.9089007,0.013171741,-4.023328,112.49027,-55.41228,84.27667
7.6047816,0.50256455,-4.2776365,107.57014,-40.636993,83.20305
7.2810917,0.9530112,-4.54279,102.39977,-27.895033,80.53071
6.891571,1.3834606,-4.8565927,96.22411,-17.88409,77.3881
6.4700108,1.7785262,-5.1670494,89.36137,-10.297129,73.89037
6.031204,2.170972,-5.474243,81.73233,-4.9658437,69.617516
5.5948052,2.5688784,-5.7648764,73.68963,-1.6986855,63.868065
5.1903834,2.9542344,-6.0281796,65.823135,-0.7638019,55.5197
4.8943334,3.3027585,-6.218419,58.05404,-0.8295446,45.884884
4.6635146,3.6163893,-6.3688984,49.666523,-1.8158704,35.598194
4.458662,3.888205,-6.485417,41.037704,-4.020006,24.86163
4.2887897,4.155274,-6.5488796,32.248077,-7.6648426,13.079246
4.2218533,4.3567123,-6.52278,22.871029,-12.558296,0.020799883
4.3726964,4.336204,-6.3241696,14.111893,-16.92885,-12.928031
4.746584,4.0720935,-6.0062222,6.8449087,-19.539059,-25.08703
5.297629,3.5821486,-5.6021566,0.7372724,-20.350382,-35.549263
5.940084,2.9434114,-5.1282034,-4.5373774,-18.448174,-42.97834
6.508207,2.2616389,-4.662478,-8.485891,-13.524871,-47.459606
6.909379,1.5922832,-4.256278,-11.31931,-7.3784113,-50.2034
7.206454,0.99295306,-3.9171312,-14.018814,-0.65471715,-50.884712
7.424097,0.44993344,-3.6507814,-16.755919,6.3492136,-49.57018
7.565984,-0.034526043,-3.4528544,-18.633823,14.076183,-47.33495
7.63408,-0.4487806,-3.334308,-18.513828,23.151043,-44.937683
7.614276,-0.7778948,-3.3423858,-17.245165,32.733063,-42.36431
7.531116,-1.0461912,-3.4433293,-14.907359,42.087437,-39.782726
7.396498,-1.2552409,-3.6059065,-12.513266,50.706486,-36.687077
7.2247148,-1.4181547,-3.8000045,-10.566079,58.41865,-32.62685
7.0117,-1.5488681,-4.027549,-8.628136,64.324165,-27.892244
6.8055315,-1.6305875,-4.2502494,-6.3072605,69.117195,-22.97102
6.6119905,-1.6658974,-4.469754,-3.8302135,72.86493,-17.84354
6.4192734,-1.6640059,-4.6906404,-1.3202729,75.68281,-12.56475
6.2111244,-1.6123127,-4.9209747,1.1640964,77.50393,-7.497407
5.9824777,-1.5207675,-5.1566997,3.4538019,77.79968,-2.66822
5.7406144,-1.3952345,-5.390522,5.4873695,77.01531,1.855488
5.496463,-1.26492,-5.6278176,7.1839333,75.14964,6.1193404
5.2558117,-1.1488446,-5.871136,8.591639,72.14007,10.291011
5.032657,-1.0513614,-6.12148,9.6643095,67.9024,14.570834
4.88198,-0.9862647,-6.36681,9.84199,62.2376,19.547268
4.768755,-0.9549774,-6.6275907,9.63416,55.88493,25.107813
4.6432953,-0.96239996,-6.9446325,10.231935,48.469852,30.654316
4.4604774,-0.96695423,-7.3274107,11.967497,39.148106,35.821415
4.242579,-0.9166063,-7.743936,14.069273,27.50502,40.745567
4.0534005,-0.7285094,-8.122354,16.567413,12.86261,42.854935
4.089158,-0.15655376,-8.267585,18.693508,-3.197723,39.897118
4.498592,0.5707941,-8.062497,18.937174,-17.523582,34.8528
5.0816607,1.4643186,-7.5616956,13.909516,-28.131317,30.367613
5.503382,2.3650694,-7.0245876,4.319409,-36.10346,25.426395
5.705518,3.1272976,-6.5645475,-6.9404874,-42.470455,17.39817
5.7735324,3.5610802,-6.31874,-17.60922,-49.148758,6.9228253
5.9625072,3.642972,-6.2517295,-26.442722,-57.527832,-4.9505
8.222283,1.7890061,-4.8481517,-43.829735,-55.747234,23.438173
8.610578,2.1378355,-5.346452,-43.67365,-51.462967,-1.7340882
8.408811,0.8827381,-4.9666624,-44.928196,-49.89746,-7.0306873
8.370663,0.24951905,-4.6610303,-46.739883,-49.68703,-10.900042
8.272774,-0.2826504,-4.412475,-48.91191,-49.0264,-9.645095
8.456191,-0.94499993,-4.089182,-49.73245,-45.046257,-5.034093
8.695974,-1.5557846,-3.800279,-44.946323,-35.676487,0.33242524
8.545533,-1.8803203,-3.7936444,-36.459007,-27.022207,2.959166
8.097415,-1.7765545,-3.8662157,-30.901384,-21.074978,4.8661213
7.560785,-1.5878257,-3.9179978,-29.095407,-17.14764,7.53173
6.997402,-1.4808846,-3.9780397,-28.814688,-14.971913,10.59666
6.598751,-1.4692613,-3.9986913,-28.79536,-14.759027,12.626872
6.5741677,-1.4965384,-3.856197,-28.008024,-11.679141,16.701593
6.3766956,-1.4009821,-3.769764,-25.525503,-7.1067424,19.634174
5.9634795,-1.2140749,-3.7876139,-22.433823,-4.7005196,20.060823
5.5344543,-0.98802054,-3.7926326,-20.001453,-3.968995,19.532404
5.1469855,-0.79260343,-3.7961478,-18.57387,-4.921678,18.524277
4.9565387,-0.68460184,-3.7498603,-19.512352,-6.2126646,18.672186
4.8944955,-0.67801774,-3.6465397,-20.768496,-6.0756793,19.63021
4.7638035,-0.6970514,-3.5763872,-20.741257,-5.0845675,20.086868
4.5717344,-0.6981434,-3.538785,-19.90627,-4.393586,20.084778
4.4289155,-0.6763337,-3.4282348,-19.284405,-4.256332,19.457338
4.290589,-0.65521,-3.321162,-18.682102,-4.1233954,18.849634
4.15661,-0.63475037,-3.2174547,-18.098732,-3.9946377,18.261032
4.0268407,-0.61493343,-3.1170056,-17.533688,-3.869925,17.690922
3.9011455,-0.59573865,-3.0197105,-16.986385,-3.7491279,17.138712
3.7793949,-0.5771463,-2.9254684,-16.456259,-3.6321216,16.60383
3.661463,-0.5591371,-2.8341825,-15.9427595,-3.5187852,16.085726
3.5472283,-0.5416925,-2.7457583,-15.445358,-3.409002,15.583865
3.4365735,-0.5247945,-2.6601052,-14.963545,-3.3026593,15.097731
3.3293848,-0.5084259,-2.577135,-14.496823,-3.1996474,14.626824
3.2255526,-0.4925698,-2.4967628,-14.044717,-3.0998611,14.170663
3.1249704,-0.47721002,-2.4189065,-13.606761,-3.0031984,13.72878
3.0275352,-0.46233085,-2.343486,-13.182508,-2.90956,13.300723
2.933148,-0.44791707,-2.2704248,-12.771527,-2.8188508,12.886056
2.8417122,-0.43395406,-2.1996484,-12.373397,-2.730978,12.484356
2.753135,-0.42042753,-2.1310844,-11.987714,-2.6458526,12.095214
2.6673262,-0.40732378,-2.0646634,-11.614084,-2.5633874,11.718234
2.5841985,-0.39462945,-2.0003178,-11.252129,-2.4834988,11.353032
2.5036674,-0.38233167,-1.9379822,-10.901481,-2.406106,10.99924
2.4256516,-0.37041798,-1.8775935,-10.561784,-2.3311303,10.656497
2.350072,-0.35887632,-1.8190905,-10.232694,-2.2584956,10.324456
2.2768517,-0.34769493,-1.7624137,-9.9138775,-2.1881285,10.002781
2.205917,-0.3368626,-1.7075062,-9.605013,-2.119958,9.691147
2.1371958,-0.3263683,-1.6543121,-9.305788,-2.0539148,9.389238
2.070619,-0.31620145,-1.602778,-9.0159,-1.9899324,9.096749
2.0061195,-0.3063518,-1.5528516,-8.735055,-1.9279462,8.813387
1.9436319,-0.2968094,-1.5044826,-8.462971,-1.8678936,8.538863
1.8830932,-0.28756464,-1.4576223,-8.199373,-1.809714,8.272902
1.8244426,-0.27860817,-1.4122232,-7.9439964,-1.7533488,8.015235
1.7676208,-0.269931,-1.36824,-7.696583,-1.6987412,7.765602
1.7125707,-0.26152438,-1.325628,-7.4568834,-1.6458362,7.523753
1.6592368,-0.25337982,-1.2843446,-7.2246566,-1.5945807,7.289444
1.6075655,-0.24548917,-1.2443479,-6.999669,-1.5449228,7.062439
1.5575048,-0.23784445,-1.2055981,-6.7816944,-1.4968128,6.8425097
1.5090044,-0.23043801,-1.1680559,-6.5705137,-1.4502023,6.629435
1.4620154,-0.2232624,-1.1316838,-6.365914,-1.4050444,6.423001
1.4164907,-0.21631038,-1.0964451,-6.1676903,-1.3612937,6.2229996
1.3723845,-0.209575,-1.0623044,-5.9756436,-1.3189063,6.02923
1.3296528,-0.20304948,-1.0292275,-5.7895803,-1.2778397,5.8414984
1.2882524,-0.19672728,-0.99718124,-5.6093144,-1.2380525,5.659616
1.2481416,-0.19060203,-0.9661333,-5.4346642,-1.1995049,5.4834
1.2092806,-0.1846676,-0.93605256,-5.2654552,-1.162158,5.312673
1.17163,-0.17891805,-0.9069089,-5.101517,-1.1259747,5.147265
1.1351523,-0.17334759,-0.8786731,-4.9426856,-1.0909184,4.9870095
1.0998108,-0.16795063,-0.8513167,-4.7888017,-1.056954,4.831745
1.0655701,-0.16272178,-0.8248124,-4.6397104,-1.0240476,4.6813173
1.0323958,-0.15765579,-0.79913366,-4.495263,-0.9921661,4.5355744
1.0002549,-0.15274757,-0.7742546,-4.3553143,-0.9612775,4.3943706
0.9691147,-0.14799221,-0.75015044,-4.219724,-0.9313509,4.2575645
0.93894446,-0.14338495,-0.72679687,-4.0883565,-0.9023562,4.125019
0.9097137,-0.13892116,-0.7041706,-3.9610796,-0.87426454,3.9966009
0.8813932,-0.13459638,-0.68224895,-3.8377664,-0.8470476,3.872182
0.8539546,-0.13040626,-0.6610099,-3.7182932,-0.82067823,3.7516372
0.82737046,-0.12634663,-0.6404322,-3.6025403,-0.79512995,3.6348462
0.80161405,-0.122413404,-0.62049526,-3.4903917,-0.7703772,3.5216918
0.7766596,-0.11860265,-0.6011791,-3.381735,-0.74639523,3.412061
0.75248224,-0.11491055,-0.5824644,-3.2764616,-0.72315997,3.3058434
0.7290576,-0.11133341,-0.5643324,-3.1744661,-0.7006481,3.2029333
0.7063623,-0.10786764,-0.54676497,-3.0756462,-0.67883724,3.1032271
0.6843737,-0.104509786,-0.5297445,-2.9799032,-0.6577054,3.0066254
0.6630696,-0.101256475,-0.5132539,-2.887141,-0.6372315,2.9130313
0.6424289,-0.09810445,-0.4972768,-2.7972667,-0.6173951,2.8223515
0.62243074,-0.09505056,-0.4817971,-2.7101908,-0.59817624,2.7344944
0.6030552,-0.09209175,-0.46679932,-2.6258256,-0.5795557,2.6493728
0.5842829,-0.08922505,-0.45226845,-2.5440872,-0.56151485,2.5669014
0.566095,-0.086447604,-0.43818998,-2.4648933,-0.54403573,2.4869974
0.5484733,-0.08375662,-0.42454982,-2.388165,-0.52710074,2.409581
0.5314002,-0.081149414,-0.41133428,-2.3138254,-0.51069295,2.3345747
0.51485866,-0.07862338,-0.39853016,-2.2418,-0.49479595,2.2619035
0.49883205,-0.07617597,-0.38612464,-2.1720169,-0.47939387,2.1914945
0.48330438,-0.07380476,-0.37410533,-2.104406,-0.46447125,2.1232777
0.46826008,-0.071507365,-0.36246017,-2.0389004,-0.4500132,2.0571842
0.45368412,-0.06928149,-0.35117754,-1.9754336,-0.43600523,1.9931483
0.4395619,-0.06712491,-0.34024614,-1.9139426,-0.42243332,1.931106
0.42587933,-0.06503546,-0.32965505,-1.8543658,-0.4092839,1.8709949
0.4126227,-0.06301106,-0.31939363,-1.7966436,-0.39654386,1.8127551
0.3997787,-0.06104967,-0.30945167,-1.7407184,-0.38420036,1.7563283
0.38733456,-0.05914934,-0.29981917,-1.6865339,-0.37224114,1.701658
0.3752778,-0.057308167,-0.29048654,-1.6340363,-0.36065418,1.6486896
0.36359632,-0.05552431,-0.28144443,-1.5831729,-0.34942794,1.59737
0.3522785,-0.05379598,-0.27268377,-1.5338928,-0.33855113,1.547648
