ax,ay,az,gx,gy,gz
-0.50000453,-1.4836498,-0.4609133,16.868336,-52.76775,-13.37194
-0.34133887,-1.9964951,-0.53528345,7.115373,-51.006847,-8.71641
-0.10725725,-2.5111384,-0.5571671,8.4651165,-45.509846,0.5107563
0.20126334,-2.9566543,-0.58478945,14.565939,-38.806316,14.0126915
0.36359575,-2.8594499,-0.6337634,13.582767,-34.413193,24.362339
0.46097073,-2.7561097,-0.65167546,12.001549,-30.505945,30.865705
0.49894035,-2.704284,-0.7335045,13.285302,-27.64156,34.44863
0.49995318,-2.6567466,-0.89630383,15.427738,-26.561016,37.20666
0.506704,-2.6717277,-1.0601857,19.923878,-26.848036,41.61478
0.53841585,-2.545334,-1.1818002,24.609325,-27.402208,46.235653
0.5779258,-2.336926,-1.2845149,29.031662,-27.920519,49.20445
0.611015,-2.126977,-1.3923343,33.650364,-28.433517,50.507652
0.60997164,-1.8786234,-1.4897898,36.83895,-29.642786,51.459255
0.5875269,-1.5443516,-1.5198349,37.642765,-31.69252,52.73713
0.57342136,-1.1950226,-1.4695823,38.109863,-33.607258,53.49207
0.5737946,-0.81670886,-1.3824413,38.65543,-34.854164,53.01675
0.56350744,-0.40757972,-1.2841797,39.15865,-35.878456,51.61727
0.5580776,0.066482686,-1.1699994,38.756653,-36.738094,49.248695
0.54041606,0.5882076,-1.022819,36.360256,-37.33041,45.204155
0.5348142,1.0959628,-0.83309996,33.01753,-37.53942,40.074207
0.5485266,1.531271,-0.64588225,29.075457,-37.076847,34.27706
0.5637562,1.9042742,-0.48522314,24.722267,-35.878094,27.972092
0.5515608,2.2179916,-0.36660197,19.819206,-34.504955,20.958727
0.532135,2.4235768,-0.27455175,14.6438,-32.924324,13.109913
0.5316548,2.4690373,-0.2132593,9.927111,-30.997004,5.411924
0.5391471,2.4317,-0.19635637,5.2776146,-29.104523,-1.5389802
0.5476055,2.2857807,-0.21336058,0.6565426,-27.423006,-7.4828324
0.5546632,2.0066426,-0.25681853,-2.8878744,-26.006851,-12.729005
0.57487464,1.6603811,-0.30777094,-5.1343513,-25.060356,-17.082851
0.6000759,1.2671905,-0.35192624,-6.777473,-24.577145,-20.315952
0.63684916,0.8792077,-0.36352545,-8.008388,-24.274645,-21.934078
0.67693406,0.5106781,-0.355529,-8.728081,-23.880463,-22.141792
0.7044309,0.18076064,-0.35642833,-8.774501,-23.337564,-21.736872
0.7104428,-0.111097395,-0.37705928,-8.022293,-22.91099,-20.952496
0.6979207,-0.35505617,-0.3993872,-7.006781,-22.64462,-19.441942
0.67263967,-0.5344939,-0.41048202,-6.163146,-22.639923,-17.030003
0.6533639,-0.6595916,-0.40165117,-5.212097,-22.623926,-14.167418
0.6452033,-0.7384981,-0.3830532,-3.7924247,-22.366926,-11.420858
0.63743556,-0.8059938,-0.38216436,-1.5885367,-22.095245,-8.756883
0.6346041,-0.87484735,-0.41682267,0.8731985,-21.896612,-5.9169717
0.63744247,-0.94972616,-0.4771115,3.508818,-21.888298,-2.7327583
0.6410137,-1.0375124,-0.5598979,6.452474,-22.081812,0.73693186
0.654277,-1.1165084,-0.64887244,9.856288,-22.396986,4.5414896
0.6636139,-1.0983967,-0.74428344,12.2512455,-23.092413,8.441359
0.67052263,-1.0375162,-0.82155555,14.048465,-24.078655,12.142905
0.69260544,-0.9357853,-0.8650084,15.734271,-25.078665,15.587458
0.71312153,-0.79876435,-0.8883409,17.112484,-25.94054,18.382233
0.72378397,-0.665834,-0.9059583,18.59801,-26.830208,20.732725
0.72750765,-0.4997318,-0.91959745,19.4622,-27.902777,22.764385
0.7080292,-0.28776982,-0.93269825,19.56594,-29.31996,24.585485
0.68495876,-0.026627209,-0.92721087,18.813385,-30.869257,25.96306
0.66069496,0.25947446,-0.9044489,17.606358,-32.33439,26.1405
0.63461417,0.5548448,-0.86528075,16.178122,-33.552166,24.832926
0.6039588,0.84709597,-0.8068954,14.210729,-34.543457,22.535042
0.56665844,1.1728369,-0.73673445,11.329792,-35.455444,20.083992
0.52710104,1.5188289,-0.66569126,7.4007525,-36.356007,16.961796
0.49480632,1.8314233,-0.5969095,3.462425,-36.94274,12.269551
0.47498506,2.0759604,-0.54283726,-0.2995855,-37.334255,6.186596
0.4899482,2.2238894,-0.49367493,-4.1521516,-37.29302,-0.0074655227
0.55395544,2.278941,-0.46309966,-8.633253,-37.374516,-5.577856
0.6623178,2.2223263,-0.4314262,-13.545151,-37.542366,-11.130253
0.80644417,1.9807273,-0.38349643,-17.371553,-37.20801,-16.620752
0.94261867,1.6133106,-0.34295338,-19.699932,-36.415794,-21.196436
1.0473913,1.2213762,-0.3223188,-21.316128,-35.83793,-23.407932
1.1268493,0.8803166,-0.28839684,-22.690287,-35.49592,-24.159042
1.194219,0.5865404,-0.22291365,-23.3865,-34.779503,-24.247599
1.240297,0.33526665,-0.14997515,-23.417473,-33.549484,-23.896942
1.2552592,0.13470794,-0.09405607,-23.12132,-31.950985,-23.18323
1.2309147,-0.020433389,-0.06476791,-22.462797,-30.236599,-21.900913
1.1696947,-0.1073751,-0.065891355,-21.781572,-28.84816,-20.4669
1.1035095,-0.15773368,-0.06911063,-20.981167,-27.61481,-19.07872
1.0376763,-0.19198602,-0.076356515,-20.15298,-26.558249,-17.969477
0.9785921,-0.22872609,-0.07910781,-19.138973,-25.41061,-16.774803
0.9194875,-0.24500477,-0.0850986,-18.092558,-24.240768,-15.311684
0.869736,-0.23055899,-0.08408175,-17.121103,-22.888906,-13.896592
0.83328944,-0.22430727,-0.06794027,-15.972833,-21.054012,-12.601191
0.80694675,-0.21721627,-0.065792486,-15.467886,-20.388433,-12.20283
0.78146106,-0.21035595,-0.063714564,-14.979365,-19.744509,-11.81743
0.75680226,-0.20371823,-0.061704073,-14.506696,-19.121475,-11.444534
0.73294157,-0.19729532,-0.059758645,-14.049323,-18.518608,-11.083707
0.70985126,-0.19107983,-0.05787603,-13.606719,-17.935205,-10.73453
0.6875049,-0.18506455,-0.056054074,-13.178375,-17.370598,-10.396604
0.665877,-0.17924269,-0.054290693,-12.763803,-16.824144,-10.069541
0.64494306,-0.17360763,-0.052583896,-12.362533,-16.295225,-9.752974
0.6246796,-0.16815306,-0.050931767,-11.974114,-15.783246,-9.446546
0.6050641,-0.1628729,-0.04933246,-11.598116,-15.287637,-9.149915
0.5860747,-0.15776128,-0.0477842,-11.234119,-14.807848,-8.862753
0.56769055,-0.15281259,-0.046285298,-10.881724,-14.343351,-8.5847435
0.54989153,-0.14802139,-0.044834096,-10.540545,-13.893639,-8.315583
0.5326582,-0.14338247,-0.043429017,-10.21021,-13.45822,-8.054976
0.51597196,-0.13889082,-0.042068545,-9.890361,-13.036622,-7.8026433
0.49981472,-0.13454157,-0.040751204,-9.580653,-12.628391,-7.5583105
0.48416921,-0.13033007,-0.039475586,-9.280754,-12.23309,-7.321716
0.4690187,-0.12625182,-0.038240325,-8.990342,-11.850295,-7.092606
0.454347,-0.12230244,-0.037044104,-8.709109,-11.479598,-6.8707376
0.4401386,-0.118477784,-0.035885654,-8.436757,-11.120606,-6.655875
0.42637846,-0.11477379,-0.034763753,-8.1729965,-10.772941,-6.447791
0.41305208,-0.11118656,-0.033677217,-7.917551,-10.4362335,-6.2462664
0.40014547,-0.10771231,-0.032624908,-7.6701517,-10.110133,-6.05109
0.3876451,-0.10434742,-0.03160572,-7.4305396,-9.794297,-5.8620563
0.3755379,-0.101088375,-0.03061859,-7.198464,-9.488395,-5.6789684
0.3638113,-0.09793178,-0.029662488,-6.973684,-9.192109,-5.501636
0.35245308,-0.094874345,-0.028736424,-6.7559648,-8.905131,-5.329875
0.3414515,-0.0919129,-0.027839435,-6.545082,-8.627163,-5.1635065
0.33079517,-0.0890444,-0.026970597,-6.340817,-8.357919,-5.002359
0.32047307,-0.08626587,-0.02612901,-6.1429586,-8.097119,-4.846266
0.31047457,-0.083574444,-0.025313806,-5.9513035,-7.844496,-4.695066
0.30078942,-0.08096736,-0.024524149,-5.765654,-7.5997887,-4.548605
0.29140761,-0.07844195,-0.023759225,-5.58582,-7.362747,-4.4067316
0.2823196,-0.0759956,-0.023018256,-5.4116173,-7.1331277,-4.2693005
0.27351603,-0.07362583,-0.022300478,-5.242867,-6.9106956,-4.136171
0.26498795,-0.07133022,-0.02160516,-5.079397,-6.695224,-4.007207
0.2567266,-0.06910641,-0.020931592,-4.9210405,-6.4864917,-3.8822773
0.2487236,-0.06695214,-0.020279087,-4.767636,-6.2842865,-3.761254
0.24097079,-0.06486522,-0.01964698,-4.6190267,-6.0884027,-3.6440144
0.23346028,-0.06284352,-0.019034628,-4.475062,-5.8986416,-3.530439
0.22618444,-0.060884982,-0.01844141,-4.335596,-5.714809,-3.420412
0.2191359,-0.058987636,-0.017866723,-4.2004867,-5.5367193,-3.3138223
0.21230748,-0.057149544,-0.017309986,-4.069597,-5.364192,-3.2105615
0.20569229,-0.05536885,-0.016770631,-3.942794,-5.1970515,-3.1105251
0.19928363,-0.05364374,-0.016248116,-3.8199499,-5.035129,-3.0136118
0.19307499,-0.051972482,-0.015741909,-3.7009404,-4.8782606,-2.9197233
0.18706012,-0.05035338,-0.015251501,-3.5856447,-4.726288,-2.8287652
0.18123293,-0.048784804,-0.014776395,-3.4739468,-4.579057,-2.740645
0.17558753,-0.04726516,-0.014316112,-3.3657336,-4.43642,-2.6552742
0.17011824,-0.045792922,-0.013870186,-3.2608962,-4.2982326,-2.5725663
0.16481955,-0.0443666,-0.013438169,-3.1593285,-4.164355,-2.4924383
0.15968609,-0.042984765,-0.013019625,-3.0609283,-4.034652,-2.414809
0.1547127,-0.041646015,-0.012614133,-2.9655964,-3.908994,-2.3396003
0.1498944,-0.040349007,-0.012221282,-2.8732371,-3.7872536,-2.2667367
0.1452263,-0.039092436,-0.011840681,-2.783757,-3.6693087,-2.1961446
0.14070372,-0.037875034,-0.011471942,-2.6970663,-3.5550406,-2.1277533
0.1363221,-0.036695577,-0.011114698,-2.6130779,-3.444334,-2.0614934
0.13207705,-0.03555288,-0.010768588,-2.531707,-3.337078,-1.9972988
0.1279643,-0.0344458,-0.010433264,-2.452872,-3.2331645,-1.9351048
0.12397971,-0.033373218,-0.010108391,-2.3764937,-3.1324894,-1.874849
0.12011928,-0.032334056,-0.009793639,-2.3024955,-3.0349512,-1.8164707
0.116379134,-0.031327274,-0.009488696,-2.2308028,-2.940452,-1.7599114
0.11275552,-0.030351857,-0.009193253,-2.161344,-2.8488975,-1.7051144
0.1092448,-0.02940683,-0.0089070145,-2.094049,-2.760195,-1.6520244
0.10584345,-0.028491244,-0.008629694,-2.0288503,-2.6742558,-1.6005883
0.10254805,-0.02760418,-0.008361011,-1.9656829,-2.590994,-1.5507545
0.0993553,-0.026744748,-0.008100698,-1.9044831,-2.5103254,-1.5024731
0.096262,-0.025912084,-0.007848493,-1.8451895,-2.4321697,-1.4556956
0.09326505,-0.025105355,-0.007604144,-1.7877426,-2.3564484,-1.410375
0.090361446,-0.024323754,-0.007367405,-1.7320851,-2.2830853,-1.366466
0.08754826,-0.023566496,-0.0071380395,-1.6781609,-2.2120073,-1.3239245
0.0848227,-0.02283282,-0.006915817,-1.6259162,-2.1431427,-1.2827079
0.08218202,-0.022121992,-0.006700515,-1.5752984,-2.0764227,-1.2427748
0.079623565,-0.021433301,-0.006491918,-1.526257,-2.0117805,-1.2040855
0.07714479,-0.020766057,-0.0062898165,-1.4787428,-1.9491514,-1.1666008
0.074743204,-0.02011959,-0.0060940087,-1.4327083,-1.8884726,-1.1302835
0.072416395,-0.019493254,-0.0059042983,-1.3881071,-1.8296831,-1.095097
0.07016204,-0.01888642,-0.005720495,-1.3448946,-1.7727243,-1.0610061
0.06797788,-0.018298483,-0.0055424147,-1.3030279,-1.7175391,-1.0279768
0.06586173,-0.01772885,-0.0053698793,-1.2624645,-1.664072,-0.99597585
0.063811466,-0.017176956,-0.005202716,-1.2231643,-1.6122699,-0.96497136
0.061825044,-0.016642245,-0.005040758,-1.1850877,-1.5620805,-0.9349322
0.059900466,-0.01612418,-0.0048838416,-1.1481966,-1.5134538,-0.9058283
0.058035806,-0.015622246,-0.004731811,-1.112454,-1.4663411,-0.87763053
0.056229204,-0.01513594,-0.004584514,-1.0778244,-1.4206952,-0.8503106
0.054478846,-0.014664774,-0.0044418033,-1.0442728,-1.3764704,-0.8238414
0.052782986,-0.014208277,-0.004303535,-1.0117658,-1.3336226,-0.79819614
0.05113992,-0.013765992,-0.0041695717,-0.98027086,-1.2921087,-0.77334934
0.049548008,-0.013337475,-0.004039779,-0.94975644,-1.2518871,-0.7492761
0.04800565,-0.012922301,-0.0039140265,-0.920192,-1.2129178,-0.72595227
0.046511315,-0.012520051,-0.0037921893,-0.8915479,-1.1751617,-0.70335454
0.0450635,-0.012130323,-0.003674145,-0.8637956,-1.1385809,-0.6814604
0.043660756,-0.011752728,-0.0035597759,-0.8369072,-1.103139,-0.66024774
0.04230168,-0.011386889,-0.003448967,-0.8108559,-1.0688004,-0.6396955
0.040984914,-0.011032438,-0.0033416073,-0.78561556,-1.0355308,-0.6197831
0.03970914,-0.010689021,-0.0032375902,-0.761161,-1.0032969,-0.6004905
0.03847308,-0.010356295,-0.0031368108,-0.7374677,-0.9720664,-0.58179855
0.037275497,-0.010033926,-0.003039169,-0.714512,-0.94180816,-0.56368846
0.036115196,-0.009721593,-0.0029445665,-0.6922709,-0.9124918,-0.5461421
0.034991015,-0.009418983,-0.0028529093,-0.6707221,-0.8840881,-0.529142
0.03390183,-0.009125792,-0.0027641049,-0.6498441,-0.8565686,-0.5126711
0.032846548,-0.008841729,-0.002678065,-0.6296161,-0.8299057,-0.4967129
0.03182412,-0.008566508,-0.0025947038,-0.6100177,-0.8040728,-0.48125148
0.030833514,-0.008299855,-0.0025139372,-0.5910294,-0.7790441,-0.46627134
