ax,ay,az,gx,gy,gz
-0.18727443,-0.07363703,0.030000273,12.318294,-11.818289,0.38818532
-0.08422681,-0.12050374,0.18914011,4.0061874,-10.520255,-3.8100536
-0.010471683,-0.389215,0.26859364,-0.010502349,-7.19932,-7.1153774
-0.07596465,-0.53066117,0.17003565,-2.8170989,-4.301209,-9.407663
-0.18370171,-0.48357144,0.014747338,-5.958418,-3.5729043,-10.164801
-0.2704678,-0.4621287,-0.13895097,-9.1743145,-5.6582584,-10.654352
-0.14722739,-0.63723665,-0.13624614,-9.014843,-5.625965,-10.08325
-0.0151242,-0.8963295,-0.17441759,-7.007605,-4.9956307,-8.509382
0.09472924,-1.2431244,-0.28387284,-2.5212073,-4.749686,-5.295101
0.22596611,-1.6443799,-0.4382197,3.7419176,-3.488662,1.1386462
0.26197353,-2.1498032,-0.7740835,10.913395,-3.2771451,8.9799595
0.25008667,-2.699219,-1.2202636,18.218288,-5.092897,18.360233
0.2250678,-3.1921446,-1.6878531,25.937008,-8.80942,29.536695
0.22866622,-3.403314,-2.1018167,32.77368,-14.828742,42.21565
0.29337576,-3.3213563,-2.4386914,37.727303,-23.035816,55.17902
0.49337777,-2.6429796,-2.587361,41.099514,-30.15927,61.854774
0.69446236,-1.7033719,-2.5819972,42.646484,-35.618942,60.681133
0.81782454,-0.8424081,-2.4773521,42.58828,-39.523087,55.19311
0.85396194,-0.006929128,-2.2945468,40.596794,-42.14451,48.679817
0.85301566,0.98567224,-2.0498936,32.227024,-43.88953,39.797813
0.8714459,1.784835,-1.7661791,21.184183,-44.25001,28.9746
0.87142277,2.2618573,-1.5131325,10.858269,-43.090794,17.332153
0.83291984,2.5112417,-1.3145382,2.0431378,-41.064034,5.7940235
0.7937369,2.5488572,-1.1891531,-5.9249134,-38.94063,-4.266718
0.7896744,2.4058619,-1.1441319,-13.721609,-37.760666,-12.168045
0.8854972,1.9169995,-1.1399262,-20.009172,-36.834866,-18.64282
1.0165038,1.2211503,-1.1469988,-23.497147,-35.74517,-23.09376
1.1402148,0.48565266,-1.1687357,-25.07905,-34.76854,-24.776665
1.2277545,-0.22846101,-1.2202084,-24.96368,-33.88631,-23.273361
1.2638072,-0.9331253,-1.3139352,-21.426895,-33.45822,-18.174782
1.2564434,-1.5811807,-1.4489919,-15.294387,-33.38445,-10.703292
1.2238333,-2.0579274,-1.5934793,-7.194353,-33.93833,-0.9622295
1.190743,-2.2433062,-1.7271291,0.6853705,-35.572365,10.612998
1.1992644,-2.2052689,-1.8346188,6.9836173,-38.343414,23.081022
1.2768079,-2.0311604,-1.8940127,12.815976,-41.540466,35.432316
1.4187123,-1.4633365,-1.8588444,18.977194,-43.736977,42.64679
1.4872195,-0.51046515,-1.7572216,22.488577,-45.995655,40.892975
1.5174822,0.34375277,-1.6024953,23.618895,-48.060856,33.739845
1.5528289,1.0758486,-1.4410639,20.95074,-49.89357,25.717607
1.6024183,1.8015013,-1.3007222,12.777319,-51.204834,16.74724
1.6393329,2.287218,-1.208589,2.8124993,-51.341988,6.6873107
1.6224257,2.4585304,-1.2071329,-5.0257006,-50.735123,-5.018427
1.5720577,2.4083722,-1.2532139,-10.016901,-50.493664,-16.623104
1.5689167,2.3001492,-1.3146827,-15.392047,-51.38859,-25.982428
1.6426315,1.9516748,-1.363625,-21.046412,-52.790115,-31.15716
1.8216758,1.3321301,-1.3230503,-23.859192,-52.629116,-33.89006
2.0050702,0.75381064,-1.2436963,-24.364983,-50.825203,-34.68165
2.1292946,0.28746942,-1.1721615,-24.067312,-48.142075,-33.34353
2.1635494,-0.06705997,-1.1253444,-23.34457,-45.63085,-30.56482
2.1461718,-0.31981617,-1.0670847,-21.66119,-43.388447,-26.890083
2.1102464,-0.4413755,-0.98009914,-19.709892,-41.015175,-23.34821
2.0733202,-0.52499884,-0.8738057,-17.317444,-38.182186,-19.85657
2.0537663,-0.5579718,-0.74693173,-14.967001,-34.781967,-15.8839035
2.0427642,-0.5373498,-0.6012767,-13.634764,-30.908627,-11.461665
2.0437326,-0.47263995,-0.4581892,-13.844237,-26.311913,-7.52737
2.0031166,-0.38628718,-0.31531993,-14.825526,-21.817951,-4.313979
1.9372476,-0.37358478,-0.30495116,-14.338014,-21.100504,-4.172121
1.8737584,-0.36134136,-0.29495704,-13.868116,-20.40898,-4.035389
1.8125436,-0.3495365,-0.28532094,-13.415051,-19.74223,-3.9035547
1.753504,-0.33815113,-0.27602723,-12.9780855,-19.099169,-3.7764049
1.6965462,-0.32716718,-0.26706126,-12.556527,-18.478785,-3.6537387
1.6415823,-0.31656778,-0.2584091,-12.149727,-17.880117,-3.5353665
1.5885293,-0.30633688,-0.25005782,-11.75707,-17.302263,-3.42111
1.5373089,-0.2964594,-0.24199498,-11.377976,-16.744371,-3.3108
1.4878472,-0.28692102,-0.23420896,-11.011898,-16.205633,-3.2042773
1.4400737,-0.27770826,-0.22668871,-10.658316,-15.685286,-3.1013908
1.3939222,-0.26880825,-0.2194238,-10.316738,-15.182603,-3.0019975
1.3493296,-0.26020887,-0.21240427,-9.986697,-14.6969,-2.9059613
1.3062359,-0.25189853,-0.20562068,-9.667751,-14.227523,-2.8131533
1.2645841,-0.24386628,-0.19906408,-9.359476,-13.773851,-2.7234504
1.2243199,-0.23610164,-0.19272591,-9.061473,-13.335296,-2.6367364
1.185392,-0.22859465,-0.18659808,-8.773357,-12.911291,-2.5528998
1.1477509,-0.2213358,-0.1806728,-8.494767,-12.501304,-2.4718344
1.1113495,-0.21431604,-0.17494269,-8.225352,-12.104819,-2.3934393
1.076143,-0.20752673,-0.16940068,-7.964781,-11.721351,-2.3176174
1.0420885,-0.20095956,-0.16404001,-7.712736,-11.3504305,-2.2442768
1.0091451,-0.19460665,-0.15885423,-7.4689145,-10.991611,-2.1733286
0.9772734,-0.18846041,-0.15383716,-7.2330246,-10.644464,-2.1046886
0.9464358,-0.1825136,-0.14898287,-7.0047884,-10.30858,-2.0382757
0.9165963,-0.17675924,-0.1442857,-6.783939,-9.983568,-1.9740124
0.8877202,-0.1711907,-0.13974017,-6.570221,-9.66905,-1.9118239
0.8597745,-0.16580155,-0.13534111,-6.363388,-9.364665,-1.851639
0.8327272,-0.16058567,-0.13108347,-6.1632047,-9.0700655,-1.7933891
0.8065478,-0.15553716,-0.12696245,-5.969445,-8.78492,-1.7370083
0.7812069,-0.15065034,-0.12297342,-5.7818913,-8.508906,-1.6824332
0.75667626,-0.14591977,-0.11911193,-5.600334,-8.241719,-1.6296033
0.73292863,-0.14134021,-0.115373716,-5.424573,-7.98306,-1.5784596
0.70993793,-0.13690662,-0.11175464,-5.2544136,-7.732645,-1.528946
0.687679,-0.13261414,-0.10825075,-5.0896697,-7.4902005,-1.4810084
0.6661275,-0.12845807,-0.104858235,-4.930162,-7.2554617,-1.4345944
0.6452601,-0.12443394,-0.1015734,-4.775718,-7.028174,-1.3896537
0.62505436,-0.12053741,-0.09839272,-4.6261706,-6.808093,-1.346138
0.60548854,-0.11676427,-0.095312774,-4.4813595,-6.594982,-1.3040004
0.5865417,-0.113110505,-0.09233026,-4.34113,-6.388613,-1.2631959
0.56819373,-0.109572224,-0.08944202,-4.205332,-6.188767,-1.223681
0.55042505,-0.106145665,-0.08664498,-4.073822,-5.9952307,-1.1854138
0.533217,-0.10282721,-0.08393618,-3.9464614,-5.807801,-1.148354
0.51655143,-0.09961337,-0.08131277,-3.8231153,-5.626279,-1.1124624
0.50041074,-0.09650075,-0.078771986,-3.7036548,-5.4504747,-1.0777013
0.48477814,-0.09348611,-0.076311186,-3.587954,-5.2802043,-1.0440344
0.46963722,-0.090566285,-0.07392778,-3.4758928,-5.115289,-1.0114264
0.45497227,-0.08773825,-0.0716193,-3.367354,-4.955559,-0.9798435
0.440768,-0.08499906,-0.069383346,-3.2622252,-4.8008456,-0.9492527
0.42700973,-0.08234587,-0.06721759,-3.1603968,-4.6509905,-0.9196224
0.4136832,-0.079775944,-0.0651198,-3.0617642,-4.505838,-0.890922
0.4007747,-0.07728662,-0.06308781,-2.9662251,-4.365238,-0.86312175
0.38827085,-0.07487535,-0.061119523,-2.8736815,-4.229047,-0.8361931
0.37615883,-0.07253963,-0.059212916,-2.7840378,-4.0971227,-0.81010824
0.36442623,-0.07027708,-0.057366032,-2.6972022,-3.9693313,-0.7848405
0.35306102,-0.06808537,-0.05557698,-2.6130855,-3.845541,-0.760364
0.34205154,-0.06596227,-0.053843923,-2.5316017,-3.7256258,-0.73665357
0.33138654,-0.0639056,-0.0521651,-2.4526677,-3.6094625,-0.7136851
0.3210551,-0.06191326,-0.050538782,-2.3762026,-3.496933,-0.69143504
0.3110468,-0.05998322,-0.048963327,-2.3021286,-3.3879223,-0.6698808
0.30135134,-0.058113523,-0.04743712,-2.2303705,-3.2823193,-0.64900035
0.29195893,-0.056302257,-0.045958612,-2.1608548,-3.180017,-0.6287725
0.28285995,-0.054547586,-0.044526305,-2.0935113,-3.0809112,-0.6091767
0.27404523,-0.052847728,-0.04313874,-2.0282717,-2.9849012,-0.590193
0.26550582,-0.05120096,-0.04179451,-1.9650694,-2.8918898,-0.5718022
0.25723305,-0.04960561,-0.04049225,-1.9038408,-2.8017828,-0.5539857
0.24921854,-0.04806007,-0.039230652,-1.8445235,-2.7144887,-0.5367254
0.2414542,-0.046562772,-0.03800843,-1.7870579,-2.6299195,-0.52000386
0.23393217,-0.0451122,-0.036824353,-1.7313856,-2.5479896,-0.50380415
0.22664484,-0.04370689,-0.03567722,-1.6774504,-2.468616,-0.48810992
0.21958488,-0.042345423,-0.034565877,-1.625198,-2.3917189,-0.47290534
0.21274513,-0.04102643,-0.033489205,-1.5745755,-2.3172204,-0.45817503
0.20611873,-0.03974857,-0.03244611,-1.525532,-2.2450454,-0.4439042
0.19969897,-0.038510565,-0.031435546,-1.4780179,-2.1751215,-0.4300784
0.1934794,-0.037311163,-0.030456495,-1.4319854,-2.107378,-0.4166837
0.18745375,-0.03614916,-0.029507969,-1.3873882,-2.0417466,-0.40370667
0.18161596,-0.03502338,-0.028589014,-1.3441813,-1.9781613,-0.3911342
0.17596014,-0.033932697,-0.027698707,-1.3023213,-1.9165581,-0.37895364
0.17048062,-0.032876007,-0.02683615,-1.2617662,-1.8568752,-0.36715275
0.16517188,-0.031852253,-0.026000476,-1.2224749,-1.7990524,-0.3557197
0.16002858,-0.030860405,-0.025190845,-1.1844082,-1.7430316,-0.3446429
0.15504557,-0.029899465,-0.024406446,-1.1475278,-1.6887566,-0.3339113
0.15021782,-0.028968466,-0.023646487,-1.1117965,-1.6361728,-0.32351413
0.1455405,-0.028066479,-0.02291021,-1.0771786,-1.5852274,-0.3134409
0.14100891,-0.027192593,-0.02219687,-1.0436393,-1.5358692,-0.3036815
0.1366185,-0.026345931,-0.021505754,-1.0111449,-1.4880489,-0.29422617
0.13236485,-0.025525646,-0.020836169,-0.97966266,-1.4417182,-0.28506538
0.12824373,-0.024730915,-0.020187443,-0.94916123,-1.3968309,-0.27618998
0.12425097,-0.023960939,-0.019558923,-0.9196099,-1.3533417,-0.26759103
0.12038258,-0.023214946,-0.018949982,-0.89097905,-1.3112072,-0.25925994
0.116634674,-0.022492189,-0.018360008,-0.86323994,-1.270385,-0.25118834
0.1130035,-0.021791942,-0.017788408,-0.8363648,-1.2308342,-0.24336812
0.10948542,-0.021113506,-0.01723461,-0.8103267,-1.1925154,-0.23579146
0.1060769,-0.020456197,-0.01669806,-0.7850995,-1.1553898,-0.22845076
0.10277454,-0.019819358,-0.016178219,-0.7606579,-1.1194204,-0.22133867
0.09957501,-0.019202352,-0.015674567,-0.7369775,-1.0845712,-0.21444808
0.096475124,-0.01860456,-0.0151865985,-0.7140345,-1.0508071,-0.20777205
0.09347176,-0.018025381,-0.014713826,-0.69180596,-1.0180945,-0.20130391
0.09056192,-0.01746424,-0.014255774,-0.67026955,-0.9864006,-0.19503719
0.08774269,-0.01692057,-0.013811986,-0.64940375,-0.95569354,-0.18896559
0.085011244,-0.01639383,-0.013382016,-0.6291877,-0.9259426,-0.18308306
0.08236484,-0.01588349,-0.012965434,-0.6096011,-0.897118,-0.17738368
0.079800844,-0.01538904,-0.012561822,-0.59062433,-0.86919093,-0.17186177
0.07731667,-0.0149099855,-0.012170778,-0.57223845,-0.84213334,-0.16651177
0.07490985,-0.014445846,-0.011791908,-0.554425,-0.8159182,-0.16132836
0.07257796,-0.013996158,-0.011424835,-0.5371661,-0.7905193,-0.15630633
0.07031868,-0.013560469,-0.011069191,-0.52044463,-0.7659111,-0.15144065
0.068129726,-0.013138346,-0.010724618,-0.50424373,-0.74206907,-0.14672646
0.066008925,-0.012729365,-0.010390773,-0.4885472,-0.71896935,-0.14215903
0.06395416,-0.0123331165,-0.010067322,-0.47333938,-0.69658875,-0.13773382
0.061963353,-0.011949204,-0.009753941,-0.458605,-0.67490494,-0.13344635
0.060034532,-0.011577244,-0.0094503155,-0.44432932,-0.6538962,-0.12929237
0.058165755,-0.011216863,-0.009156142,-0.4304981,-0.63354146,-0.12526771
0.056355156,-0.010867702,-0.008871128,-0.41709742,-0.61382043,-0.12136835
0.054600924,-0.01052941,-0.008594986,-0.40411395,-0.59471333,-0.117590375
0.0529013,-0.01020165,-0.00832744,-0.39153466,-0.5762011,-0.11393001
0.05125459,-0.009884093,-0.008068224,-0.37934697,-0.5582651,-0.1103836
0.04965914,-0.009576422,-0.007817077,-0.3675387,-0.5408875,-0.106947586
0.04811336,-0.009278328,-0.0075737485,-0.356098,-0.5240508,-0.10361854
0.046615697,-0.008989515,-0.0073379944,-0.34501347,-0.50773823,-0.100393124
0.04516466,-0.008709691,-0.007109579,-0.334274,-0.49193352,-0.09726812
0.043758787,-0.00843858,-0.006888275,-0.3238688,-0.4766208,-0.09424039
0.042396683,-0.008175907,-0.0066738594,-0.31378758,-0.46178472,-0.09130691
0.041076977,-0.007921411,-0.0064661186,-0.30402014,-0.44741052,-0.08846475
0.039798357,-0.0076748375,-0.0062648444,-0.29455674,-0.43348375,-0.08571107
0.038559534,-0.0074359393,-0.0060698357,-0.28538796,-0.4199905,-0.0830431
