ax,ay,az,gx,gy,gz
0.9827362,0.17000155,-4.5809507,15.536505,9.820999,-52.379566
1.528893,-0.8229564,-4.701044,15.433348,7.729786,-43.44602
1.62717,-1.7940841,-4.8364363,18.118744,6.711236,-32.206623
1.8310531,-2.806343,-4.9903135,23.380457,5.591183,-22.275116
2.254268,-4.2495823,-5.0612826,33.495552,4.5842853,-9.943944
2.839396,-5.5126705,-5.0931754,44.497395,3.643759,5.761866
3.3417394,-6.3075657,-5.1298313,54.889736,3.637656,25.733566
3.5604305,-6.6803446,-5.253633,63.70019,2.359805,47.611385
3.6905704,-6.5808096,-5.384987,70.72911,1.1132557,68.834755
3.7211754,-6.13759,-5.549102,74.9769,-2.2457483,87.83731
3.7324452,-5.523131,-5.6501093,77.97478,-6.8867764,103.378716
3.711041,-4.5336504,-5.6799088,78.91843,-12.624511,113.260506
3.5236087,-3.0676754,-5.603197,75.796715,-21.241796,111.329414
3.3359556,-1.6446909,-5.353189,71.875145,-29.109163,103.42059
3.1556156,-0.18033603,-4.962586,65.29237,-35.012257,91.85909
3.01783,1.3353437,-4.4794707,55.873543,-38.22311,77.233086
2.8980532,2.7196841,-4.030682,41.311413,-39.1341,57.408905
2.7187881,3.4295917,-3.7420628,26.69031,-39.311172,36.579437
2.5303235,3.5533304,-3.550562,14.253195,-39.459793,18.183016
2.4444504,3.3347971,-3.4280238,2.5044253,-39.78833,3.4944863
2.4725296,2.8100333,-3.3499994,-8.951713,-40.178967,-7.4737425
2.5933123,1.9602082,-3.2777107,-16.503822,-40.070354,-14.71931
2.7207484,0.8462888,-3.1935778,-19.43085,-39.64563,-18.057957
2.806689,-0.21674211,-3.1339896,-18.257689,-38.915134,-16.208036
2.816749,-1.1723758,-3.1460254,-14.026254,-38.427555,-10.413703
2.7633648,-1.9223448,-3.2267408,-7.4355364,-38.659668,-1.7813277
2.6800933,-2.444464,-3.3182476,0.33873707,-39.92823,9.42648
2.6354272,-2.5813773,-3.421729,7.513339,-42.40658,23.616308
2.601905,-2.5513885,-3.546583,13.28772,-46.281403,38.285667
2.6112363,-2.4164453,-3.6267464,19.475882,-51.115753,51.84986
2.7198992,-2.063489,-3.612676,26.667131,-55.50272,61.50211
2.8234165,-1.3477073,-3.5168662,34.269234,-58.784958,60.88709
2.850974,-0.3868227,-3.3303351,38.36446,-61.21998,55.269985
2.832928,0.49086112,-3.098034,36.92248,-63.247368,49.828453
2.8554163,1.4725031,-2.8240504,29.020008,-64.06693,44.062927
2.8835192,2.3303015,-2.6124673,17.080053,-64.18929,35.762493
2.896813,2.8041286,-2.4577184,6.096627,-63.76064,23.710003
2.9046307,2.824865,-2.3506594,-1.8682733,-63.07257,10.572797
2.9574878,2.6327856,-2.2804234,-8.658107,-62.248447,-1.1583942
3.0545886,2.2544477,-2.2360537,-15.327037,-61.581398,-9.375909
3.165248,1.7178637,-2.1781225,-21.478918,-60.282143,-13.942242
3.2195837,1.0601013,-2.1188593,-25.205458,-58.25112,-15.695
3.1758955,0.49931777,-2.0855446,-25.149113,-55.9106,-15.356114
3.0785527,0.12237148,-2.0482798,-24.137236,-53.994583,-13.766119
2.9590752,-0.097797394,-1.9881384,-23.110826,-52.591793,-11.167226
2.837274,-0.21995033,-1.9052551,-22.169874,-51.56595,-7.979505
2.7286084,-0.2510164,-1.8031482,-21.72276,-50.458126,-4.7736797
2.649634,-0.23829135,-1.6886225,-21.34405,-48.802876,-1.83831
2.5780482,-0.21451764,-1.5889435,-20.479006,-46.862194,0.35942447
2.5117292,-0.20026019,-1.4966233,-18.892782,-44.51182,2.1496706
2.457505,-0.15235867,-1.4082031,-17.388924,-41.839245,3.7322335
2.3983185,-0.08525663,-1.3073095,-17.370703,-38.79015,5.3850427
2.3511372,-0.02150718,-1.2231799,-18.847744,-35.300297,6.767029
2.3042986,0.011506282,-1.1536882,-20.752474,-31.73253,7.7092934
2.247475,0.017783763,-1.0970834,-21.72704,-28.451086,8.00793
2.1666718,0.039307807,-1.0635512,-20.816662,-25.48987,8.305637
2.0568852,0.06948457,-1.0479465,-19.97759,-23.15243,8.917641
1.9361537,0.084937476,-1.0490297,-18.99881,-21.353514,9.795571
1.8274245,0.09248618,-1.0454024,-18.519684,-20.021822,10.470571
1.7370538,0.07621651,-1.0386142,-18.005924,-18.868652,10.7239685
1.6554565,0.051815283,-1.0300514,-17.625267,-18.00993,10.819727
1.5883464,0.027037147,-1.0143692,-17.048323,-17.206959,10.813256
1.5314552,0.03589113,-0.99057114,-16.65516,-16.595629,10.676833
1.4868472,0.048308536,-0.95956635,-16.198809,-16.011316,10.541188
1.4464091,0.06924407,-0.9243816,-15.742422,-15.441178,10.266832
1.409342,0.08224042,-0.8845541,-15.1840315,-14.810165,9.782344
1.3747512,0.09018062,-0.846239,-14.540923,-14.169264,9.275205
1.3370421,0.112568386,-0.8209906,-14.134323,-13.673015,8.93552
1.2964805,0.11385965,-0.7976768,-13.844707,-13.236338,8.65599
1.2511859,0.12059227,-0.7757489,-13.518066,-12.853206,8.292384
1.2067635,0.1266548,-0.7578948,-13.371379,-12.438136,7.58139
1.1554528,0.11092695,-0.74460757,-13.078179,-12.223129,7.022061
1.1037109,0.10695999,-0.7305212,-12.769491,-12.15479,6.5006227
1.0541489,0.10068161,-0.71585214,-12.575504,-12.129361,5.992491
1.0068157,0.07778777,-0.69377655,-12.179057,-12.203352,5.8123164
0.9772336,0.062003694,-0.66365767,-11.600492,-12.043155,5.69405
0.9640436,0.06459583,-0.6257331,-11.123785,-11.475287,5.5294714
0.94190264,0.057407703,-0.5926742,-10.649101,-10.873845,5.4396663
0.91038257,0.055596218,-0.5680718,-10.270694,-10.359319,5.3411946
0.8676496,0.057752874,-0.5515171,-9.994988,-10.075049,5.24014
0.8382048,0.053066626,-0.5239037,-9.622427,-9.821097,5.2904153
0.8413464,0.050199818,-0.48166013,-9.26571,-8.891322,5.6272736
0.8350438,0.048306018,-0.45159644,-9.1431875,-7.878157,5.9725227
0.8099862,0.049805425,-0.43152013,-8.905636,-7.0010915,6.1800294
0.7759599,0.054115936,-0.42292643,-8.652661,-6.4033427,6.156527
0.7388138,0.055713747,-0.41715094,-8.38479,-6.037448,5.93639
0.70134705,0.056224875,-0.4132232,-8.223169,-5.796247,5.738595
0.6617808,0.053112365,-0.4127143,-8.034139,-5.7178187,5.526025
0.6291801,0.04364011,-0.4108734,-7.803279,-5.6992946,5.373803
0.6045103,0.035534468,-0.40370065,-7.486052,-5.694741,5.285714
0.5830357,0.037867203,-0.3964423,-7.2362537,-5.669312,5.13733
0.5587975,0.041472487,-0.39000905,-6.9676023,-5.7593617,4.9592676
0.5367981,0.043022826,-0.38005456,-6.785809,-5.886689,4.794482
0.51834226,0.046620667,-0.36590895,-6.5887394,-5.987052,4.6005206
0.5073517,0.04979198,-0.34892586,-6.4666553,-6.057528,4.4145975
0.50180554,0.04704654,-0.32919547,-6.3331337,-6.0475044,4.2727284
0.493902,0.049014665,-0.31127554,-6.25344,-5.953855,4.106698
0.47412077,0.043450847,-0.3011091,-6.1514726,-5.920386,3.9592783
0.45930594,0.042093143,-0.29170036,-5.959258,-5.7353916,3.835563
0.4449574,0.040778168,-0.28258777,-5.773093,-5.5562205,3.7157416
0.4310602,0.039504558,-0.27376178,-5.592784,-5.3826847,3.5996892
0.41759986,0.038270984,-0.26521325,-5.4181433,-5.2146044,3.4872847
0.40456235,0.03707616,-0.2569333,-5.248988,-5.051804,3.3784115
0.39193422,0.035918854,-0.24891329,-5.0851445,-4.8941154,3.2729566
0.37970236,0.034797866,-0.24114497,-4.9264426,-4.7413754,3.1708112
0.36785418,0.033712037,-0.23362032,-4.7727184,-4.5934258,3.0718696
0.35637742,0.03266025,-0.22633155,-4.6238136,-4.4501147,2.9760296
0.34526032,0.03164142,-0.2192712,-4.479575,-4.3112946,2.8831933
0.33449146,0.030654507,-0.21243201,-4.3398547,-4.176823,2.7932649
0.3240598,0.029698497,-0.20580697,-4.2045093,-4.046562,2.7061524
0.31395468,0.02877241,-0.1993893,-4.0734,-3.9203782,2.6217666
0.30416572,0.027875299,-0.19317244,-3.9463935,-3.7981427,2.5400212
0.29468295,0.027006252,-0.18715005,-3.8233597,-3.679731,2.4608328
0.28549674,0.026164379,-0.18131597,-3.704173,-3.5650218,2.3841207
0.2765977,0.025348825,-0.17566428,-3.5887127,-3.4538987,2.3098066
0.2679768,0.02455876,-0.17018923,-3.4768608,-3.3462484,2.2378154
0.25962523,0.023793383,-0.16488525,-3.3685036,-3.241962,2.1680734
0.25153458,0.023051912,-0.15974696,-3.2635314,-3.1409333,2.1005101
0.2436966,0.022333601,-0.15476914,-3.1618378,-3.0430598,2.0350568
0.23610337,0.02163772,-0.14994676,-3.0633197,-2.9482424,1.9716474
0.22874719,0.02096356,-0.14527492,-2.967877,-2.8563852,1.9102176
0.22162062,0.020310447,-0.14074892,-2.8754134,-2.7673953,1.8507053
0.21471646,0.019677714,-0.13636416,-2.7858355,-2.6811826,1.7930502
0.20802775,0.019064724,-0.13211623,-2.6990528,-2.5976598,1.7371941
0.2015477,0.018470861,-0.12800081,-2.6149776,-2.516743,1.6830806
0.1952698,0.017895522,-0.12401378,-2.533525,-2.4383502,1.6306552
0.18918769,0.017338127,-0.12015111,-2.4546127,-2.3624024,1.5798649
0.18329526,0.016798114,-0.11640889,-2.3781617,-2.2888234,1.5306586
0.17758659,0.016274942,-0.112783365,-2.3040946,-2.2175386,1.4829866
0.1720559,0.015768081,-0.109270886,-2.2323365,-2.1484764,1.4368011
0.16669762,0.015277022,-0.10586791,-2.1628158,-2.0815673,1.3920553
0.1615064,0.014801271,-0.10257101,-2.0954623,-2.016744,1.3487045
0.15647697,0.014340349,-0.09937687,-2.030208,-1.9539411,1.3067049
0.1516043,0.013893792,-0.096282296,-1.9669877,-1.8930956,1.2660142
0.14688349,0.013461153,-0.09328415,-1.9057376,-1.8341464,1.2265918
0.14230978,0.0130419955,-0.09037945,-1.8463962,-1.7770343,1.1883978
0.1378786,0.0126359,-0.08756525,-1.7889038,-1.7217017,1.151394
0.13358548,0.012242457,-0.08483873,-1.7332029,-1.6680932,1.1155431
0.12942614,0.011861272,-0.082197174,-1.6792374,-1.616155,1.0808092
0.12539636,0.011491963,-0.07963791,-1.6269531,-1.5658349,1.0471575
0.121492125,0.011134159,-0.07715837,-1.5762978,-1.5170823,1.014554
0.11770951,0.010787501,-0.07475607,-1.5272202,-1.4698485,0.9829663
0.114044726,0.010451641,-0.0724286,-1.4796716,-1.424086,0.9523625
0.11049409,0.010126242,-0.07017363,-1.4336039,-1.379749,0.9227119
0.10705405,0.0098109795,-0.067988895,-1.3889711,-1.3367928,0.89398485
0.10372115,0.0095055355,-0.06587221,-1.3457285,-1.2951747,0.8661525
0.100492045,0.009209605,-0.06382144,-1.3038325,-1.2548527,0.839187
0.09736352,0.00892289,-0.061834544,-1.2632415,-1.2157863,0.81306136
0.09433241,0.008645104,-0.059909523,-1.2239145,-1.1779368,0.7877493
0.091395706,0.008375969,-0.05804445,-1.1858122,-1.1412659,0.7632255
0.08855045,0.008115215,-0.056237455,-1.1488965,-1.1057369,0.73946536
0.085793786,0.007862581,-0.05448673,-1.1131302,-1.0713142,0.7164451
0.08312297,0.0076178135,-0.052790523,-1.0784777,-1.0379635,0.6941417
0.080535315,0.0073806676,-0.05114713,-1.0449042,-1.0056512,0.67253274
0.07802823,0.007150906,-0.04955491,-1.0123762,-0.9743451,0.65159667
0.075599216,0.006928298,-0.048012264,-0.9808609,-0.9440138,0.6313125
0.07324583,0.006712622,-0.04651765,-0.9503269,-0.9146268,0.6116598
0.070965715,0.0065036607,-0.045069575,-0.9207436,-0.88615483,0.5926191
0.068756595,0.006301205,-0.043666586,-0.8920814,-0.8585693,0.57417125
0.06661625,0.0061050532,-0.04230728,-0.8643115,-0.8318427,0.55629766
0.06454255,0.0059150085,-0.04099029,-0.8374063,-0.8059482,0.53898066
0.0625334,0.0057308804,-0.039714307,-0.8113387,-0.7808598,0.52220273
0.06058681,0.005552485,-0.038478047,-0.7860827,-0.7565526,0.5059472
0.058700822,0.0053796433,-0.037280273,-0.76161295,-0.7330021,0.4901977
0.05687355,0.0052121826,-0.036119793,-0.737905,-0.7101848,0.47493854
0.055103164,0.0050499355,-0.03499544,-0.7149352,-0.6880778,0.46015444
0.05338789,0.004892739,-0.033906087,-0.6926804,-0.6666591,0.44583058
0.05172602,0.0047404366,-0.03285065,-0.6711185,-0.64590716,0.43195266
0.050115883,0.0045928755,-0.031828072,-0.6502278,-0.62580127,0.41850677
0.048555873,0.004449908,-0.030837324,-0.6299875,-0.6063213,0.40547946
0.047044426,0.0043113916,-0.02987742,-0.6103772,-0.5874477,0.3928577
0.045580033,0.004177187,-0.028947398,-0.59137744,-0.5691617,0.38062885
0.044161223,0.00404716,-0.028046329,-0.57296914,-0.5514449,0.3687807
0.042786583,0.003921181,-0.027173309,-0.5551339,-0.53427964,0.35730138
0.041454736,0.0037991237,-0.026327465,-0.53785384,-0.51764876,0.3461794
0.040164348,0.003680866,-0.025507953,-0.5211117,-0.5015356,0.33540365
0.038914125,0.0035662893,-0.024713952,-0.50489074,-0.48592398,0.32496333
0.037702825,0.0034552796,-0.023944667,-0.48917475,-0.47079834,0.31484804
0.03652923,0.0033477254,-0.02319933,-0.47394797,-0.4561436,0.3050476
0.03539217,0.0032435192,-0.022477195,-0.45919517,-0.441945,0.29555225
