ax,ay,az,gx,gy,gz
4.2500386,-0.84818953,4.802771,16.312876,-44.888588,-11.263739
5.2734714,-0.71516496,5.790596,17.700884,-24.547457,-14.330405
5.88895,-0.6233325,6.1041975,20.856636,-2.9061806,-15.9519205
6.1587405,-0.5725759,6.024832,25.119316,16.318363,-19.174099
6.231401,-0.750434,5.6829305,29.785189,30.127079,-19.497467
6.4822173,-1.0308676,5.5493913,33.795143,42.11052,-14.887006
6.8642673,-1.225281,5.4552784,37.543713,56.746128,-5.7670183
7.1826706,-1.3094417,5.309094,41.600235,74.10544,6.631537
7.312896,-1.2261974,5.1533747,47.202473,92.50806,14.813336
7.2678795,-1.1851233,4.956013,54.089382,108.781876,16.562319
7.2112727,-1.1508799,4.6981993,59.01279,121.76049,16.110556
7.074783,-1.0731801,4.3705416,61.400803,131.97261,14.133637
6.8847256,-0.9361612,3.978324,62.71218,140.0155,10.451383
6.6915083,-0.7785709,3.5442276,62.82455,146.10501,6.294337
6.5168557,-0.60815555,3.1147392,61.459675,150.99039,2.7254162
6.3696213,-0.47207314,2.7078786,59.626537,155.28252,-0.87041765
6.211073,-0.3392465,2.3011549,57.48469,159.248,-4.676386
6.0076017,-0.20692372,1.8582387,54.937923,162.18007,-8.402638
5.776806,-0.07705621,1.3945541,51.640656,163.71808,-12.42747
5.5210366,0.03535629,0.9168811,48.08904,165.055,-16.824575
5.2310276,0.13297342,0.41709936,44.09143,166.03152,-21.354984
4.9029493,0.22244082,-0.09920359,39.969433,165.79314,-26.081118
4.547022,0.32450062,-0.6153803,35.652634,164.43372,-30.845102
4.1786933,0.43277624,-1.0921841,30.633661,161.6133,-35.88339
3.7959,0.5149964,-1.5487584,25.575773,157.828,-41.037224
3.419781,0.55727017,-1.9730742,20.88854,153.02298,-46.143036
3.0604742,0.5793663,-2.3425186,16.493464,147.48491,-50.891956
2.7000782,0.6075554,-2.6565368,12.048068,141.25311,-54.99883
2.32684,0.64383435,-2.9182131,7.4998717,134.061,-59.017387
1.924514,0.66030097,-3.1543367,3.0824463,126.13881,-63.37601
1.5340743,0.64206594,-3.3768451,-1.2438157,117.530106,-67.98073
1.1780417,0.5402185,-3.5823312,-5.4448905,108.40932,-72.27267
0.87716466,0.34470877,-3.7446017,-9.399056,98.713936,-75.51135
0.6516081,0.07771686,-3.8329225,-13.045133,88.996765,-76.44167
0.53096247,-0.25198272,-3.7991002,-16.425844,79.911095,-75.511505
0.47323206,-0.6014392,-3.69298,-19.659294,71.72677,-72.92505
0.43071094,-0.96671087,-3.5639687,-22.246899,64.3715,-69.751335
0.3822509,-1.3447344,-3.4327586,-23.468391,57.536198,-66.975815
0.3679406,-1.7317957,-3.2758627,-22.862782,50.939686,-64.42188
0.4549327,-2.0936577,-3.0668578,-21.571507,44.823235,-61.24495
0.6039214,-2.4114833,-2.8328297,-19.513233,39.5166,-57.345856
0.76247424,-2.6646798,-2.6043732,-16.961037,34.815,-53.23952
0.9160762,-2.8460822,-2.3882267,-13.8207035,30.892204,-49.30181
1.0656906,-2.9436727,-2.1792767,-9.92975,27.962036,-45.64484
1.2097653,-2.9337788,-1.9723765,-6.3264832,25.552011,-41.970764
1.3255254,-2.8788817,-1.7897527,-2.823398,23.849613,-38.41464
1.4104166,-2.7900763,-1.634819,0.6510612,22.497637,-35.209568
1.4820162,-2.663686,-1.4971881,3.8629832,21.437124,-32.153507
1.5370439,-2.4973161,-1.37451,6.6841574,20.92683,-29.367504
1.564912,-2.2974722,-1.2633537,9.160131,20.732597,-26.935684
1.5739539,-2.080556,-1.1673203,11.14029,20.679726,-24.728277
1.5693239,-1.8496324,-1.0888084,12.605924,20.702625,-22.818804
1.560527,-1.6124871,-1.0275127,13.648798,20.8368,-21.287794
1.5425143,-1.3797984,-0.987913,14.228174,21.091799,-20.161493
1.514405,-1.1319771,-0.9713521,14.399802,21.276657,-19.400568
1.4867035,-0.8757551,-0.96804035,14.073656,21.495007,-19.03628
1.46284,-0.63058513,-0.9786932,13.345927,21.859945,-19.092697
1.4243044,-0.4046299,-1.0113778,12.354452,22.247683,-19.629133
1.3598047,-0.18957856,-1.0654008,10.858141,22.422148,-20.539171
1.280138,0.0033364273,-1.1223576,9.015395,22.242504,-21.683287
1.1925613,0.17762543,-1.177436,6.918423,21.823336,-22.983347
1.0982662,0.3379082,-1.2318497,4.6279035,21.179586,-24.560188
1.0018525,0.47729954,-1.2829819,2.1546922,20.33729,-26.273563
0.90074044,0.60710377,-1.3341858,-0.7565983,19.2525,-28.0714
0.7882997,0.7061328,-1.4018102,-3.8900003,17.798464,-30.039232
0.6709634,0.75891596,-1.4806441,-7.116322,15.85511,-32.06338
0.561745,0.76266825,-1.5546544,-10.248748,13.500476,-34.03836
0.46418127,0.7388777,-1.621718,-13.34959,10.92661,-35.86854
0.38334256,0.6995351,-1.6841004,-16.560629,7.940244,-37.588467
0.31480673,0.61084056,-1.7347654,-19.689508,4.721,-39.256676
0.25161093,0.4769594,-1.7672813,-22.562553,1.4224635,-40.950912
0.18532945,0.3021802,-1.8013254,-25.196676,-2.0810144,-42.579235
0.12854245,0.07862483,-1.8441198,-27.472383,-5.8718,-44.045193
0.08910301,-0.19157848,-1.8818573,-28.997564,-9.891955,-45.189922
0.0946119,-0.5126269,-1.8799927,-29.919659,-13.766616,-45.682217
0.11826291,-0.8410493,-1.8503417,-30.284315,-17.429523,-45.412846
0.1499307,-1.1570818,-1.8021213,-30.112236,-20.832066,-44.612034
0.18492672,-1.4696549,-1.7399307,-29.213253,-23.977402,-43.567398
0.2363317,-1.772686,-1.6648011,-27.505661,-26.695198,-41.934555
0.31911466,-2.064995,-1.5733752,-25.072031,-28.86513,-39.835003
0.4218127,-2.3237655,-1.4623133,-21.980553,-30.401619,-37.351387
0.53325903,-2.5371153,-1.3418596,-18.529469,-31.304487,-34.628826
0.6320937,-2.7034333,-1.2359744,-14.811083,-31.694464,-31.772991
0.7078881,-2.8261855,-1.1533558,-10.534646,-31.619091,-28.989586
0.7762907,-2.8850274,-1.0685449,-6.0768404,-31.488605,-26.06905
0.8652091,-2.876768,-0.96032006,-1.9129823,-31.185976,-22.860497
0.9648157,-2.8199701,-0.8463857,2.0681527,-30.352823,-19.781199
1.064102,-2.7460673,-0.74552464,6.0774827,-28.939312,-17.135092
1.1503206,-2.6626651,-0.66888046,10.1505575,-27.01389,-14.64591
1.2180352,-2.5196736,-0.6027893,13.868466,-25.149664,-11.920225
1.2768651,-2.3103297,-0.53024393,16.890947,-23.33315,-9.108988
1.3299468,-2.0809433,-0.44950852,19.450628,-21.262688,-6.7137084
1.3741477,-1.8624218,-0.37806007,21.736261,-18.793549,-4.8146195
1.404058,-1.6599506,-0.331496,23.405264,-15.8830185,-3.059631
1.3852873,-1.4848374,-0.34402442,24.817215,-13.026315,-1.5567781
1.3280503,-1.3333603,-0.39221403,26.230396,-10.559464,-0.41632146
1.2500157,-1.1742505,-0.44801214,27.236465,-8.647487,0.54503226
1.168315,-1.0132804,-0.49758193,27.693834,-7.1773067,1.354
1.0906878,-0.87472254,-0.53737235,27.686716,-5.881204,1.8952911
1.0044451,-0.75502115,-0.5770975,27.515844,-4.7250524,2.286058
0.90342474,-0.6441446,-0.61451113,27.18069,-3.8359194,2.592105
0.79243374,-0.53856444,-0.6461273,26.72074,-3.340675,2.7322445
0.6871774,-0.43673822,-0.6661354,26.10565,-3.156362,2.7841558
0.60180074,-0.3403566,-0.6743093,25.231722,-3.0502222,2.739171
0.54285324,-0.26538154,-0.6649057,24.270933,-2.8597782,2.548916
0.4972377,-0.21769008,-0.6426603,23.233624,-2.5724597,2.3532078
0.45648417,-0.19192925,-0.61902195,22.204062,-2.0999339,2.3750095
0.41641504,-0.18325932,-0.6046405,21.037315,-1.668856,2.66459
0.40342683,-0.17754336,-0.5857814,20.38115,-1.6168035,2.5814798
0.3908453,-0.17200638,-0.56751287,19.745531,-1.5663809,2.500972
0.37865758,-0.16664271,-0.54981613,19.129807,-1.5175365,2.4229844
0.36685124,-0.16144687,-0.5326731,18.533348,-1.4702204,2.347437
0.35541418,-0.15641356,-0.5160664,17.955547,-1.4243845,2.2742527
0.34433478,-0.15153764,-0.4999789,17.395815,-1.3799818,2.2033567
0.3336017,-0.14681415,-0.48439437,16.85358,-1.3369672,2.1346774
0.32320413,-0.14223829,-0.4692969,16.328293,-1.295297,2.0681443
0.3131314,-0.13780542,-0.45467117,15.819419,-1.2549288,2.0036902
0.30337334,-0.133511,-0.44050235,15.326441,-1.2158216,1.9412495
0.29392004,-0.12935072,-0.42677602,14.84886,-1.177936,1.880759
0.2847619,-0.12532033,-0.41347829,14.38619,-1.1412331,1.8221573
0.2758897,-0.12141578,-0.40059572,13.937965,-1.1056762,1.765385
0.26729444,-0.117633104,-0.38811526,13.503732,-1.0712291,1.7103848
0.2589674,-0.11396848,-0.37602428,13.08305,-1.037857,1.6571012
0.25090018,-0.11041819,-0.3643106,12.675494,-1.0055263,1.6054802
0.24308467,-0.10697868,-0.35296234,12.280653,-0.9742043,1.5554695
0.23551294,-0.10364645,-0.3419681,11.898129,-0.9438593,1.507019
0.22817738,-0.10041816,-0.33131677,11.527536,-0.9144607,1.4600797
0.22107059,-0.097290546,-0.3209976,11.168501,-0.88597906,1.4146042
0.21418542,-0.094260454,-0.31100023,10.820661,-0.85838544,1.3705467
0.2075149,-0.09132484,-0.30131453,10.483666,-0.8316522,1.3278629
0.20105235,-0.08848075,-0.29193082,10.157178,-0.8057524,1.2865098
0.19479126,-0.085725315,-0.28283963,9.840867,-0.78066,1.2464458
0.18872531,-0.08305577,-0.2740318,9.534415,-0.7563497,1.2076306
0.18284844,-0.08046942,-0.2654985,9.2375145,-0.7327971,1.1700251
0.1771547,-0.07796369,-0.25723112,8.949867,-0.70997846,1.1335917
0.17163841,-0.07553603,-0.24922138,8.671184,-0.6878709,1.0982935
0.16629401,-0.07318402,-0.24146123,8.401184,-0.6664523,1.0640954
0.16111612,-0.07090529,-0.23394287,8.139597,-0.64570105,1.0309627
0.15609957,-0.068697564,-0.22665876,7.8861604,-0.6255963,0.9988624
0.15123929,-0.06655862,-0.21960157,7.6406193,-0.6061179,0.9677621
0.14653043,-0.0644863,-0.21276425,7.402727,-0.58724636,0.93763065
0.14196827,-0.06247855,-0.2061399,7.172246,-0.56896263,0.90843785
0.13754821,-0.06053333,-0.19972192,6.948944,-0.5512485,0.88015443
0.13326582,-0.058648705,-0.19350384,6.732598,-0.53408605,0.852752
0.12911682,-0.056822777,-0.18747942,6.52299,-0.5174582,0.826203
0.12509704,-0.055053722,-0.18164265,6.3199105,-0.50134826,0.8004809
0.12120246,-0.05333976,-0.17598766,6.123156,-0.48574004,0.77555996
0.11742917,-0.051679183,-0.17050879,5.932529,-0.4706179,0.75141513
0.11377338,-0.050070316,-0.16520055,5.747839,-0.4559667,0.7280222
0.110231444,-0.04851155,-0.1600576,5.5689,-0.44177178,0.7053578
0.10679981,-0.04700133,-0.15507482,5.3955336,-0.4280189,0.68339914
0.103475034,-0.04553813,-0.1502472,5.2275653,-0.41469428,0.6621243
0.10025378,-0.0441205,-0.1455699,5.064828,-0.40178457,0.6415119
0.09713284,-0.04274701,-0.14103824,4.9071574,-0.38927683,0.6215414
0.09410907,-0.041416287,-0.1366477,4.7543964,-0.37715855,0.60219264
0.09117946,-0.040126998,-0.13239385,4.6063924,-0.36541763,0.5834464
0.088341065,-0.038877852,-0.12827246,4.4629965,-0.35404226,0.56528383
0.08559104,-0.037667602,-0.12427939,4.3240647,-0.34302106,0.54768676
0.08292664,-0.03649503,-0.12041064,4.1894593,-0.332343,0.5306376
0.0803452,-0.035358965,-0.116662346,4.0590444,-0.3219974,0.51411927
0.07784412,-0.034258272,-0.113030754,3.9326901,-0.31197393,0.49811518
0.075420916,-0.03319185,-0.109512225,3.8102696,-0.30226249,0.48260936
0.07307315,-0.032158624,-0.106103234,3.6916604,-0.29285342,0.4675863
0.07079848,-0.03115757,-0.102800384,3.5767436,-0.28373727,0.45303094
0.06859462,-0.03018768,-0.09960035,3.4654047,-0.27490494,0.43892875
0.06645938,-0.029247982,-0.09649995,3.357532,-0.26634756,0.42526555
0.06439061,-0.02833754,-0.09349606,3.2530177,-0.2580566,0.41202775
0.062386237,-0.027455444,-0.09058569,3.1517568,-0.25002375,0.39920205
0.06044427,-0.026600806,-0.087765925,3.0536485,-0.24224097,0.3867756
0.058562756,-0.025772773,-0.08503394,2.9585943,-0.23470047,0.37473604
0.056739815,-0.024970518,-0.08238701,2.8664992,-0.22739471,0.36307126
0.05497362,-0.024193238,-0.07982247,2.777271,-0.2203164,0.3517696
0.053262413,-0.023440154,-0.07733777,2.6908205,-0.21345842,0.34081978
0.051604472,-0.022710515,-0.074930415,2.6070614,-0.20681393,0.3302108
0.04999814,-0.02200359,-0.072598,2.5259094,-0.20037629,0.3199321
0.04844182,-0.021318668,-0.0703382,2.4472837,-0.19413905,0.30997336
0.04693394,-0.02065507,-0.06814874,2.3711057,-0.18809597,0.30032465
0.045473002,-0.02001213,-0.06602744,2.2972991,-0.18224101,0.2909763
0.04405754,-0.019389201,-0.06397217,2.2257898,-0.1765683,0.2819189
0.042686142,-0.018785665,-0.061980877,2.1565068,-0.17107219,0.2731435
