ax,ay,az,gx,gy,gz
0.56091416,-1.1481923,-10.149182,25.080227,-29.352993,27.688435
0.30747464,-1.294376,-11.02246,30.75341,-47.38584,29.094757
0.14638463,-1.5489093,-11.445335,38.90223,-68.48378,27.582096
0.18790777,-1.7273962,-11.581367,43.34935,-85.23308,28.509893
0.32840917,-1.8851644,-11.578335,45.18898,-98.98029,31.627773
0.53305244,-2.0713134,-11.685516,49.114403,-112.93253,38.96911
0.699465,-2.2729423,-11.958623,52.131172,-129.18552,46.343525
0.9224631,-2.4761508,-12.1936655,54.530987,-146.4464,52.89152
1.2458586,-2.7185228,-12.226306,57.265846,-162.45256,58.58299
1.6756648,-2.9972892,-12.132656,61.80949,-176.0841,63.0111
2.1982243,-3.2345545,-11.953506,67.7605,-188.5009,67.318634
2.8757994,-3.3743334,-11.628235,75.01085,-200.0462,72.67197
3.6215236,-3.3670115,-11.061198,82.66355,-209.41356,78.329956
4.3900065,-3.1724215,-10.175848,91.17543,-215.6038,83.27239
5.1506844,-2.7499182,-8.939544,98.76176,-217.7895,87.473625
5.808387,-2.1978085,-7.519783,104.820724,-213.90125,90.24948
6.30983,-1.5907435,-6.0078263,109.4683,-206.99919,92.42019
6.6913557,-0.94996697,-4.5391045,113.12455,-197.4706,93.9486
6.980004,-0.24165569,-3.106732,114.172386,-185.9443,94.92261
7.2035394,0.5027373,-1.7438879,112.03547,-172.62253,95.419014
7.364124,1.198027,-0.5314202,106.85814,-156.89548,94.84067
7.464222,1.773068,0.42262912,100.92639,-140.39473,93.596306
7.5277104,2.240019,1.1514385,95.40234,-123.14647,91.488335
7.5538006,2.6087353,1.6737137,90.61855,-105.48886,88.4393
7.5427694,2.9025228,2.017728,86.212,-87.678764,84.740425
7.484862,3.136711,2.1891887,82.13191,-70.159706,80.50571
7.3844123,3.3173728,2.1976902,78.20289,-53.262165,75.641304
7.2689776,3.4687226,2.108556,74.10381,-37.307613,70.55384
7.1457295,3.5808299,1.9295586,70.187164,-22.49322,65.446945
7.0125866,3.6522467,1.6641549,66.1096,-8.939835,60.363873
6.8620605,3.6721985,1.3076904,61.966213,2.5803812,55.353832
6.68681,3.643708,0.853572,57.5326,12.004448,50.565914
6.501162,3.5909724,0.36077464,52.587143,19.272182,45.974987
6.316074,3.515081,-0.14914723,46.75349,24.518185,41.736702
6.134905,3.4177957,-0.65605694,40.088154,28.036411,37.999176
5.9596443,3.305213,-1.1498977,33.15584,29.698053,34.65421
5.7899866,3.177857,-1.6363348,27.407192,30.18615,31.56597
5.62402,3.0530043,-2.1041389,23.581911,29.721802,28.401836
5.465895,2.942476,-2.545211,21.648136,28.49717,24.977283
5.320989,2.8499472,-2.9550323,20.974846,26.680723,21.300991
5.1832633,2.7727587,-3.3407662,21.086111,24.265093,17.453707
5.048845,2.71193,-3.714264,21.406902,20.83309,13.569815
4.919839,2.6517296,-4.0810905,21.717842,16.521946,9.933678
4.7979503,2.585713,-4.440599,22.099262,11.347423,6.5630355
4.6829386,2.5307014,-4.789152,22.554125,5.2848263,3.372419
4.5807414,2.49346,-5.1112785,22.77572,-1.9255639,0.17770717
4.5048842,2.4670048,-5.385084,22.720608,-9.712829,-2.954744
4.4500117,2.438366,-5.6211877,22.648905,-18.073483,-5.98092
4.4147916,2.425534,-5.8119392,22.565514,-26.996374,-8.971272
4.3960495,2.4419258,-5.944881,22.30538,-36.49,-12.207789
4.411259,2.4654362,-6.0093713,21.853624,-46.184032,-15.917258
4.482099,2.469885,-5.9276695,21.753153,-55.900467,-19.623343
4.600591,2.4962473,-5.720055,21.55658,-64.91317,-23.053947
4.738046,2.5451684,-5.4128056,21.503407,-73.02677,-26.850985
4.901927,2.560236,-5.0604,22.406586,-79.55269,-31.711905
5.1134686,2.4711576,-4.704368,24.902,-84.73052,-37.19354
5.3846416,2.2660592,-4.2519474,27.914572,-89.139534,-40.953957
5.647426,2.0790224,-3.6783586,28.599964,-92.74515,-42.13814
5.8565626,1.941385,-3.0524642,26.70252,-95.22061,-41.583015
5.9953046,1.8151854,-2.4556828,22.906273,-96.54051,-40.166912
6.077247,1.6740113,-1.9134988,18.93066,-96.33488,-38.43993
6.111354,1.5489241,-1.396353,15.6004305,-94.967804,-36.668594
6.1170626,1.450453,-0.88742703,12.890956,-92.39964,-34.915443
6.0958767,1.3845642,-0.39669362,10.341982,-88.67642,-33.108707
6.046622,1.3551066,0.0503904,7.3895736,-84.085396,-31.25403
5.979526,1.35125,0.44531968,3.7638288,-78.633965,-29.43717
5.787894,1.3079451,0.43104807,3.6432054,-76.11391,-28.493767
5.6027346,1.266103,0.4172585,3.5266564,-73.67896,-27.58223
5.4237995,1.2256672,0.40393245,3.414025,-71.32587,-26.701332
5.250851,1.1865846,0.3910523,3.3051624,-69.051506,-25.849909
5.0836654,1.148804,0.3786013,3.1999269,-66.85292,-25.026854
4.922027,1.112277,0.36656344,3.0981832,-64.727295,-24.23111
4.765732,1.0769576,0.35492352,2.9998028,-62.67193,-23.46167
4.614585,1.0428014,0.34366697,2.9046628,-60.68426,-22.717573
4.4683995,1.0097665,0.33277994,2.8126462,-58.761845,-21.997904
4.3269973,0.9778126,0.32224914,2.7236402,-56.902332,-21.301783
4.1902084,0.9469011,0.31206194,2.6375382,-55.103485,-20.628372
4.05787,0.9169952,0.30220613,2.5542371,-53.36316,-19.976868
3.9298248,0.8880597,0.29267007,2.4736388,-51.6793,-19.346504
3.805924,0.86006063,0.28344268,2.3956492,-50.04994,-18.73654
3.6860237,0.8329657,0.2745132,2.3201776,-48.473186,-18.146273
3.5699863,0.8067436,0.26587144,2.2471375,-46.94723,-17.575022
3.4576797,0.7813646,0.2575075,2.1764457,-45.47034,-17.022137
3.3489766,0.75679994,0.24941196,2.1080225,-44.040836,-16.486992
3.2437553,0.7330221,0.24157569,2.0417905,-42.65712,-15.968987
3.1418982,0.7100045,0.23398998,1.9776764,-41.317646,-15.467546
3.0432925,0.68772167,0.22664642,1.9156088,-40.020927,-14.982111
2.9478297,0.666149,0.21953692,1.8555194,-38.76554,-14.512148
2.8554053,0.64526296,0.21265368,1.7973425,-37.55011,-14.057143
2.7659185,0.62504077,0.20598923,1.7410148,-36.37331,-13.6166
2.6792722,0.60546046,0.19953632,1.6864752,-35.233864,-13.190041
2.5953732,0.586501,0.19328803,1.6336646,-34.130547,-12.777006
2.514131,0.568142,0.1872376,1.5825267,-33.062172,-12.377052
2.4354596,0.55036384,0.1813786,1.5330065,-32.027596,-11.989753
2.3592744,0.5331476,0.17570478,1.4850516,-31.02572,-11.614693
2.2854948,0.5164749,0.17021012,1.4386108,-30.05548,-11.251477
2.214043,0.50032824,0.1648888,1.3936353,-29.115849,-10.899719
2.1448433,0.48469055,0.15973523,1.3500774,-28.20584,-10.559051
2.0778234,0.46954545,0.154744,1.3078916,-27.324492,-10.229113
2.0129132,0.45487705,0.14990985,1.2670336,-26.470886,-9.909559
1.9500445,0.44067,0.14522777,1.2274609,-25.64413,-9.600058
1.8891522,0.4269096,0.14069287,1.189132,-24.843363,-9.300284
1.8301728,0.41358146,0.13630043,1.1520072,-24.06775,-9.00993
1.7730451,0.40067178,0.13204591,1.1160481,-23.316492,-8.72869
1.7177103,0.38816723,0.12792489,1.0812174,-22.58881,-8.456277
1.664111,0.3760549,0.12393314,1.0474792,-21.883951,-8.192409
1.6121922,0.3643223,0.12006652,1.0147986,-21.201189,-7.936812
1.5619003,0.35295737,0.11632108,0.9831423,-20.539824,-7.689225
1.5131837,0.34194845,0.11269297,0.9524776,-19.899176,-7.449394
1.4659926,0.33128422,0.109178446,0.922773,-19.278587,-7.2170725
1.4202785,0.3209538,0.10577394,0.8939982,-18.677423,-6.992023
1.375995,0.3109466,0.10247596,0.8661238,-18.095072,-6.774015
1.3330966,0.30125245,0.09928114,0.8391213,-17.530933,-6.5628266
1.2915397,0.29186144,0.09618623,0.8129631,-16.984438,-6.358242
1.2512819,0.28276402,0.09318807,0.78762275,-16.455027,-6.1600533
1.2122823,0.2739509,0.09028361,0.76307434,-15.942162,-5.968058
1.1745013,0.26541317,0.0874699,0.739293,-15.445321,-5.7820625
1.1379005,0.25714216,0.08474409,0.71625453,-14.964001,-5.601877
1.1024427,0.24912943,0.08210342,0.6939356,-14.497713,-5.427319
1.0680922,0.24136692,0.07954519,0.6723136,-14.045985,-5.2582116
1.0348141,0.23384675,0.07706683,0.6513666,-13.60836,-5.0943837
1.0025748,0.22656131,0.07466584,0.6310734,-13.184395,-4.9356694
0.9713415,0.21950324,0.072339766,0.61141354,-12.773662,-4.7819085
0.94108284,0.2126654,0.07008628,0.5923671,-12.375743,-4.632945
0.9117682,0.20604089,0.067903094,0.57391495,-11.99024,-4.4886293
0.88336796,0.19962302,0.065788016,0.5560384,-11.616762,-4.3488154
0.85585356,0.19340533,0.063738905,0.53871936,-11.254933,-4.213362
0.8291972,0.18738155,0.0617537,0.52194047,-10.904387,-4.082133
0.80337214,0.1815456,0.0598304,0.50568473,-10.564774,-3.954996
0.7783522,0.17589161,0.057967063,0.4899359,-10.235748,-3.831823
0.7541123,0.1704139,0.05616182,0.474678,-9.916981,-3.7124903
0.730628,0.16510692,0.05441285,0.4598958,-9.60815,-3.5968773
0.7078757,0.15996538,0.052718394,0.44557428,-9.308945,-3.484868
0.6858326,0.15498409,0.05107675,0.4316992,-9.019066,-3.3763497
0.6644764,0.15015803,0.04948627,0.4182565,-8.738221,-3.2712133
0.6437858,0.14548236,0.047945354,0.4052327,-8.466127,-3.1693535
0.62373984,0.1409524,0.04645245,0.39261472,-8.202513,-3.0706675
0.6043185,0.13656357,0.045006063,0.3803899,-7.9471116,-2.9750562
0.58550227,0.1323115,0.043604743,0.36854598,-7.6996684,-2.882424
0.56727225,0.12819187,0.042247076,0.35707104,-7.4599338,-2.7926776
0.54961014,0.124200605,0.04093171,0.34595358,-7.2276673,-2.7057273
0.5324982,0.12033366,0.039657313,0.33518243,-7.0026364,-2.6214855
0.5159193,0.11658718,0.038422618,0.32474682,-6.7846155,-2.5398676
0.49985686,0.11295738,0.03722638,0.31463623,-6.5733852,-2.4607923
0.48429465,0.10944065,0.0360674,0.3048406,-6.3687344,-2.3841798
0.46921718,0.10603345,0.03494452,0.29535002,-6.1704574,-2.3099535
0.45460927,0.10273236,0.033856608,0.28615505,-5.9783554,-2.2380388
0.44045633,0.09953409,0.032802578,0.27724642,-5.7922363,-2.1683638
0.42674413,0.096435405,0.031781375,0.26861525,-5.6119137,-2.1008587
0.41345894,0.09343323,0.030791974,0.26025283,-5.4372063,-2.035456
0.40058747,0.09052454,0.029833382,0.25215086,-5.2679396,-1.9720896
0.3881168,0.087706424,0.028904641,0.24430117,-5.103944,-1.9106966
0.37603447,0.08497607,0.028004821,0.23669592,-4.9450545,-1.8512154
0.36432835,0.082330726,0.027133018,0.22932746,-4.791113,-1.7935863
0.35298672,0.079767756,0.026288362,0.22218846,-4.6419644,-1.7377515
0.34199825,0.07728458,0.025470005,0.21527173,-4.4974604,-1.6836554
0.3313519,0.07487873,0.02467713,0.20857036,-4.3574553,-1.6312435
0.32103705,0.072547786,0.023908941,0.20207764,-4.2218094,-1.5804635
0.31104335,0.07028941,0.023164669,0.19578709,-4.090387,-1.5312647
0.30136082,0.068101354,0.02244357,0.18969238,-3.963056,-1.4835975
0.29197973,0.06598142,0.021744922,0.18378742,-3.8396897,-1.4374144
0.2828907,0.06392749,0.021068024,0.17806631,-3.720164,-1.3926692
0.27408463,0.0619375,0.020412201,0.17252332,-3.6043599,-1.3493171
0.26555273,0.06000947,0.019776797,0.1671529,-3.4921608,-1.3073145
0.25728646,0.05814146,0.019161172,0.16194966,-3.3834548,-1.2666197
0.24927753,0.056331605,0.018564714,0.15690842,-3.2781332,-1.2271918
0.24151793,0.054578092,0.017986827,0.15202412,-3.1760902,-1.1889913
0.2339999,0.052879173,0.017426927,0.14729187,-3.077224,-1.15198
0.22671591,0.051233143,0.01688446,0.14270695,-2.9814358,-1.116121
0.21965869,0.049638353,0.016358878,0.13826475,-2.8886294,-1.0813783
0.21282116,0.04809321,0.01584966,0.13396084,-2.798712,-1.0477172
0.20619647,0.04659617,0.015356292,0.12979093,-2.711594,-1.0151039
0.19977802,0.04514573,0.014878284,0.12575081,-2.627188,-0.98350596
0.19355938,0.043740444,0.014415156,0.12183647,-2.5454094,-0.95289165
0.18753432,0.042378902,0.013966446,0.11804398,-2.4661767,-0.9232303
0.18169682,0.041059747,0.013531703,0.11436955,-2.3894103,-0.8944923
0.17604102,0.039781656,0.013110493,0.1108095,-2.3150337,-0.8666489
0.1705613,0.03854335,0.012702396,0.10736027,-2.2429724,-0.83967227
0.16525216,0.037343595,0.012307002,0.10401842,-2.1731544,-0.8135354
0.16010828,0.03618118,0.011923917,0.10078059,-2.1055095,-0.78821206
