ax,ay,az,gx,gy,gz
-2.1791108,0.82637113,-8.504622,126.01114,160.91237,-50.049545
-2.625031,0.6904012,-9.928963,142.3091,143.10329,-61.914265
-2.9905217,0.29568595,-10.89104,155.65097,111.29559,-71.255615
-3.215372,-0.08711629,-11.521165,159.15956,73.73975,-74.67053
-3.2701504,-0.4702652,-11.914169,152.27518,37.019627,-70.896324
-3.1724865,-0.8882488,-12.109916,137.54953,4.0051146,-61.82014
-2.9457662,-1.351506,-12.118919,121.40201,-23.336592,-51.951385
-2.6550052,-1.868431,-12.022293,105.639755,-47.04963,-41.281067
-2.3441486,-2.4819996,-11.902639,93.440636,-67.51276,-30.670137
-2.0361788,-3.1685054,-11.82444,88.80892,-84.65413,-21.371582
-1.7069937,-3.8170013,-11.769926,93.87546,-99.888954,-12.796918
-1.2264318,-4.331594,-11.627005,102.65666,-114.03617,-3.8278637
-0.6025423,-4.674819,-11.33095,110.842964,-126.34018,7.00381
0.12165262,-4.9029794,-10.885545,115.72722,-136.16437,19.72487
0.90427107,-5.0715885,-10.336206,119.39027,-142.98224,33.454063
1.6546558,-5.1017203,-9.737582,124.13865,-146.85873,46.805573
2.3876464,-4.758779,-8.897569,127.27083,-149.42339,59.181694
3.0866368,-4.1696253,-7.8460484,127.15157,-150.38548,70.15762
3.7275374,-3.471382,-6.649667,123.79352,-149.12373,79.31641
4.2955794,-2.7761521,-5.4119554,118.09626,-144.71011,86.090454
4.7821712,-2.16362,-4.269769,113.37381,-136.17653,89.30619
5.178169,-1.6510264,-3.2972791,110.90795,-125.77446,90.30334
5.532935,-1.1810563,-2.414799,109.34075,-113.76805,90.31703
5.846336,-0.69482446,-1.6018275,106.32294,-100.324814,90.39511
6.0871677,-0.2165956,-0.9205621,102.0225,-86.19225,90.684235
6.2616076,0.23353446,-0.37854856,96.607124,-70.9248,90.476456
6.3616757,0.62592185,-0.023665057,91.74324,-55.254242,89.29371
6.4171762,0.96412355,0.19654948,87.42168,-39.174416,87.02169
6.4326286,1.2454977,0.28739062,83.465065,-23.094208,83.93394
6.4113736,1.4762915,0.2647527,79.56641,-7.271796,80.322014
6.3539157,1.6686103,0.14221619,75.46482,7.963418,76.53797
6.251342,1.8022492,-0.10326988,72.22785,21.847292,72.663765
6.121421,1.8936864,-0.41550034,70.008995,34.13891,68.734665
5.965994,1.9591494,-0.77303505,68.5755,44.684246,64.823685
5.788556,2.012231,-1.1654242,67.77307,53.27399,60.964645
5.591013,2.0684218,-1.5840117,66.37858,59.08947,56.8942
5.3549256,2.1259336,-2.0491507,64.11039,62.02791,52.39689
5.109734,2.1639802,-2.5251458,61.00966,61.970284,47.41187
4.8738694,2.1706696,-2.9930832,57.52366,59.808826,42.43002
4.6562715,2.1647947,-3.4327102,53.65714,55.90562,37.58886
4.461511,2.1835928,-3.8124092,49.166508,50.356865,32.937527
4.284469,2.2462025,-4.108223,44.606995,44.725655,28.28801
4.1071153,2.3130124,-4.372034,40.477066,39.163383,23.429636
3.9185555,2.362073,-4.6384306,37.247597,33.704777,18.041632
3.7167556,2.3959513,-4.9244432,35.510235,27.917103,11.9284525
3.5052762,2.4297647,-5.214242,34.93164,20.794064,5.0746794
3.305005,2.4760587,-5.4742765,34.40218,12.7092495,-1.9387802
3.1287827,2.5284982,-5.681872,33.31016,3.761689,-8.903924
2.9800022,2.5755656,-5.846757,31.052837,-5.6642714,-15.561162
2.8562505,2.5940242,-5.998149,28.286573,-15.79629,-21.955616
2.7775226,2.581106,-6.132176,25.990366,-26.579367,-28.350054
2.7957628,2.5327063,-6.217518,24.921444,-37.42904,-34.789383
2.926159,2.4603896,-6.243057,24.63737,-48.51467,-40.800423
3.2113147,2.3540359,-6.149853,23.87268,-59.44753,-45.499363
3.605225,2.2099624,-5.9282007,21.931345,-69.122574,-48.549545
4.0296483,2.0346932,-5.615704,19.465271,-76.41514,-50.540764
4.4184394,1.8118532,-5.236405,17.787556,-81.547165,-52.54567
4.751168,1.5653733,-4.817784,16.920565,-84.835526,-54.2441
5.0261745,1.3289971,-4.3736815,16.309952,-86.57441,-55.14989
5.241833,1.1162968,-3.9285192,15.2101,-87.17793,-55.001625
5.4087,0.90485996,-3.4978197,13.591928,-86.54486,-53.585796
5.5322094,0.71679676,-3.0853076,11.666576,-85.37631,-51.38112
5.641535,0.57874006,-2.6777008,9.121694,-83.52053,-48.582424
5.7350574,0.47443944,-2.276919,6.0999036,-80.53428,-45.435635
5.5505357,0.4591747,-2.2036607,5.9036436,-77.943146,-43.973774
5.372313,0.444431,-2.132903,5.7140827,-75.44046,-42.561817
5.2001414,0.43018788,-2.0645478,5.5309577,-73.02274,-41.197796
5.033785,0.41642585,-1.9985013,5.354018,-70.68669,-39.879845
4.87302,0.4031264,-1.9346749,5.1830263,-68.42916,-38.606197
4.7176347,0.39027196,-1.8729842,5.0177555,-66.24717,-37.375168
4.567426,0.37784576,-1.8133488,4.8579917,-64.13787,-36.18515
4.422202,0.36583194,-1.7556922,4.703529,-62.098568,-35.034622
4.2817783,0.35421523,-1.6999415,4.5541716,-60.12668,-33.922123
4.1459804,0.34298116,-1.6460272,4.4097342,-58.219738,-32.84627
4.01464,0.33211586,-1.5938827,4.2700386,-56.375393,-31.805733
3.8875968,0.3216061,-1.5434445,4.1349134,-54.5914,-30.799244
3.7646987,0.3114392,-1.4946518,4.004197,-52.86561,-29.82559
3.6457987,0.30160305,-1.4474463,3.877733,-51.19596,-28.883614
3.5307565,0.29208604,-1.4017726,3.755372,-49.580486,-27.972198
3.4194376,0.28287706,-1.357577,3.6369715,-48.017296,-27.09028
3.311713,0.27396542,-1.3148085,3.522394,-46.504578,-26.236841
3.2074592,0.2653409,-1.2734178,3.4115076,-45.040596,-25.410896
3.1065571,0.25699365,-1.2333579,3.3041866,-43.623684,-24.611506
3.0088928,0.24891424,-1.1945835,3.200309,-42.25224,-23.837765
2.9143565,0.24109362,-1.1570508,3.0997586,-40.924717,-23.088808
2.8228428,0.23352304,-1.1207184,3.0024233,-39.63964,-22.363796
2.7342505,0.22619413,-1.0855457,2.9081948,-38.395588,-21.661928
2.6484818,0.2190988,-1.051494,2.8169699,-37.191185,-20.982431
2.5654428,0.21222931,-1.0185261,2.7286482,-36.025112,-20.32456
2.4850433,0.20557816,-0.986606,2.6431339,-34.896107,-19.6876
2.4071958,0.19913813,-0.95569915,2.560334,-33.802937,-19.070858
2.3318167,0.19290231,-0.9257723,2.4801595,-32.744427,-18.473671
2.2588246,0.18686396,-0.8967932,2.402524,-31.71944,-17.895397
2.188142,0.18101665,-0.86873096,2.3273447,-30.726883,-17.335419
2.1196933,0.17535415,-0.8415556,2.2545414,-29.765696,-16.793139
2.053406,0.16987045,-0.81523836,2.1840372,-28.834858,-16.26798
1.9892099,0.16455975,-0.7897514,2.1157572,-27.933388,-15.759391
1.9270375,0.15941647,-0.7650679,2.0496294,-27.060335,-15.266834
1.8668233,0.15443519,-0.7411618,1.9855849,-26.21478,-14.789792
1.8085046,0.1496107,-0.7180082,1.923556,-25.395844,-14.327765
1.7520202,0.14493796,-0.6955829,1.8634782,-24.602663,-13.880271
1.6973114,0.1404121,-0.6738625,1.8052889,-23.834417,-13.446843
1.6443212,0.13602844,-0.6528245,1.7489277,-23.090305,-13.027032
1.5929948,0.1317824,-0.63244706,1.6943362,-22.369556,-12.620402
1.5432792,0.1276696,-0.61270905,1.6414577,-21.671427,-12.226533
1.4951228,0.12368582,-0.59359014,1.5902379,-20.995193,-11.845017
1.4484762,0.11982692,-0.5750706,1.5406238,-20.34016,-11.475463
1.4032915,0.11608896,-0.5571314,1.4925644,-19.705656,-11.117489
1.359522,0.11246808,-0.5397542,1.4460105,-19.091024,-10.770728
1.317123,0.10896058,-0.5229211,1.4009143,-18.49564,-10.434825
1.2760513,0.105562866,-0.50661486,1.3572296,-17.918892,-10.109437
1.2362646,0.10227147,-0.49081886,1.3149118,-17.36019,-9.7942295
1.1977224,0.09908302,-0.47551695,1.2739178,-16.818962,-9.488882
1.1603856,0.09599428,-0.46069354,1.2342057,-16.29466,-9.193083
1.124216,0.0930021,-0.44633356,1.195735,-15.786751,-8.90653
1.0891767,0.09010344,-0.43242234,1.1584667,-15.294714,-8.628935
1.0552323,0.08729535,-0.41894582,1.1223629,-14.818051,-8.360012
1.0223483,0.08457498,-0.4058903,1.0873868,-14.356278,-8.09949
0.9904913,0.08193957,-0.3932425,1.0535032,-13.908928,-7.847105
0.959629,0.07938645,-0.38098964,1.0206776,-13.475546,-7.602601
0.92973024,0.076913044,-0.3691193,0.9888767,-13.055694,-7.36573
0.9007647,0.07451683,-0.35761946,0.9580685,-12.648947,-7.136252
0.87270314,0.07219541,-0.34647852,0.92822176,-12.254893,-6.913936
0.84551716,0.069946416,-0.33568522,0.8993063,-11.8731365,-6.6985574
0.8191794,0.06776759,-0.32522866,0.871293,-11.503289,-6.4898977
0.7936632,0.06565674,-0.3150983,0.8441535,-11.144979,-6.2877474
0.76894283,0.063611716,-0.30528387,0.81786054,-10.797844,-6.091902
0.7449934,0.06163047,-0.29577553,0.79238755,-10.461535,-5.902164
0.7217908,0.059711006,-0.28656366,0.76770884,-10.135714,-5.718343
0.6993116,0.057851385,-0.27763903,0.7437996,-9.820051,-5.5402527
0.6775332,0.056049746,-0.26899263,0.7206358,-9.514229,-5.367715
0.65643376,0.054304264,-0.26061577,0.69819397,-9.21794,-5.2005553
0.63599193,0.05261319,-0.25250003,0.67645174,-8.930887,-5.0386066
0.6161872,0.050974824,-0.2446372,0.65538716,-8.6527815,-4.881705
0.59699976,0.04938752,-0.23701943,0.634979,-8.383342,-4.7296934
0.5784102,0.047849674,-0.22963905,0.61520684,-8.122299,-4.582419
0.5603999,0.04635975,-0.22248864,0.5960508,-7.86939,-4.4397335
0.5429508,0.04491625,-0.21556103,0.5774916,-7.6243615,-4.3014936
0.5260453,0.043517727,-0.20884927,0.55951065,-7.386967,-4.167561
0.5096665,0.042162772,-0.2023466,0.5420899,-7.1569686,-4.0378013
0.49379796,0.040850025,-0.1960465,0.5252119,-6.9341354,-3.9120836
0.47842374,0.039578177,-0.18994266,0.5088596,-6.7182436,-3.7902822
0.46352842,0.03834594,-0.18402895,0.49301666,-6.5090766,-3.672275
0.44909707,0.037152093,-0.17829946,0.4776672,-6.306425,-3.5579436
0.43511522,0.035995424,-0.17274842,0.46279588,-6.1100855,-3.447173
0.4215688,0.034874786,-0.16737026,0.4483877,-5.919861,-3.3398528
0.40844434,0.033789046,-0.1621596,0.43442827,-5.735561,-3.235875
0.3957286,0.03273712,-0.15711123,0.4209036,-5.5570006,-3.1351352
0.38340884,0.031717952,-0.15222007,0.4078001,-5.3840013,-3.0375326
0.37147275,0.030730527,-0.14748123,0.39510468,-5.216389,-2.9429698
0.35990834,0.029773848,-0.14288996,0.3828046,-5.0539966,-2.8513515
0.34870407,0.02884696,-0.13844167,0.37088752,-4.896661,-2.7625864
0.3378487,0.027948935,-0.13413188,0.35934156,-4.7442245,-2.6765852
0.3273313,0.027078873,-0.1299563,0.34815508,-4.5965347,-2.593262
0.3171414,0.026235903,-0.12591073,0.33731696,-4.4534435,-2.5125332
0.3072688,0.025419177,-0.121991135,0.3268163,-4.314808,-2.434318
0.2977036,0.024627885,-0.118193574,0.31664255,-4.180489,-2.3585382
0.2884362,0.023861228,-0.114514254,0.3067856,-4.050352,-2.2851179
0.27945733,0.023118442,-0.110949494,0.29723555,-3.9242668,-2.2139833
0.27075803,0.022398781,-0.10749572,0.28798282,-3.8021073,-2.1450636
0.26232958,0.021701528,-0.10414947,0.27901816,-3.683751,-2.0782897
0.25416353,0.021025982,-0.10090741,0.27033263,-3.5690799,-2.0135949
0.24625172,0.020371467,-0.09776628,0.26191747,-3.4579785,-1.9509139
0.23858623,0.019737331,-0.09472294,0.25376433,-3.350336,-1.8901845
0.23115937,0.019122936,-0.09177435,0.24586502,-3.2460449,-1.8313458
0.22396374,0.018527668,-0.08891755,0.23821162,-3.1450005,-1.7743388
0.21699212,0.017950932,-0.0861497,0.23079647,-3.047102,-1.7191066
0.21023753,0.017392151,-0.083468005,0.22361219,-2.952251,-1.6655937
0.20369323,0.016850766,-0.0808698,0.21665154,-2.8603528,-1.6137469
0.19735265,0.016326234,-0.07835248,0.2099076,-2.7713156,-1.563514
0.19120945,0.01581803,-0.075913526,0.2033736,-2.68505,-1.514845
0.18525751,0.015325648,-0.07355049,0.197043,-2.60147,-1.4676911
0.17949083,0.014848594,-0.071261026,0.19090948,-2.5204918,-1.4220049
0.17390369,0.01438639,-0.06904283,0.18496689,-2.4420345,-1.3777411
0.16849047,0.013938574,-0.06689368,0.17920929,-2.3660195,-1.3348552
0.16324575,0.0135047,-0.06481144,0.17363094,-2.292371,-1.2933043
0.15816431,0.013084331,-0.062794015,0.16822621,-2.221015,-1.2530469
0.15324104,0.012677047,-0.060839396,0.16298975,-2.1518803,-1.2140425
0.14847103,0.012282443,-0.058945615,0.15791629,-2.0848975,-1.1762525
0.1438495,0.011900122,-0.05711079,0.15300076,-2.02,-1.1396388
