ax,ay,az,gx,gy,gz
1.5227411,-2.6054783,-5.8073254,-8.322803,-65.974236,16.36833
1.5952874,-3.1469934,-6.4947124,7.333331,-85.6646,14.385593
1.8049291,-3.5402884,-6.967597,17.823835,-102.341064,16.580992
2.0578327,-3.7700922,-7.1735787,19.8854,-115.68771,22.981243
2.2731287,-4.030718,-7.186684,20.200817,-125.64195,29.791079
2.4798043,-4.340065,-7.077513,20.312222,-132.79808,37.34535
2.7590067,-4.697302,-6.873911,19.852324,-138.96773,47.582413
3.080333,-5.0125594,-6.6625524,19.25977,-144.29184,57.5949
3.341347,-5.2909737,-6.419764,19.852951,-149.9318,66.68944
3.5785682,-5.539235,-6.0675197,22.164297,-155.26361,76.26074
3.797339,-5.617564,-5.591301,24.970177,-159.55711,86.63093
3.9978743,-5.52895,-4.9896674,26.03708,-163.59984,97.156265
4.178018,-5.3093786,-4.1845827,26.582207,-166.0345,107.006775
4.3234334,-4.905382,-3.203335,27.230446,-167.05486,115.91345
4.4680448,-4.3035283,-2.0584054,27.229849,-166.59734,123.28274
4.625655,-3.619989,-0.8056999,25.808329,-163.51642,128.57103
4.7769375,-2.998543,0.4229955,24.40023,-155.61124,131.46405
4.8662386,-2.4442246,1.510031,23.949362,-146.03798,133.23053
4.9301734,-1.878955,2.4890058,23.288597,-135.25854,134.24141
4.980539,-1.3061997,3.3589368,22.639769,-122.76222,134.35236
5.0093656,-0.7158576,4.085597,21.898777,-108.69114,133.47592
5.017079,-0.12743388,4.633208,21.028416,-93.26977,131.00258
4.992911,0.4160034,4.936027,20.278656,-77.74197,127.57346
4.9548006,0.8845885,5.05344,19.68892,-62.568077,123.28326
4.9159083,1.2628195,5.001061,19.036507,-48.182766,118.46837
4.8758545,1.5412979,4.8161807,17.977705,-34.768032,113.384125
4.83277,1.7240046,4.5353384,16.533384,-22.641052,108.130356
4.7803736,1.8025037,4.1507034,15.080777,-11.895843,102.99105
4.715891,1.8268993,3.7195172,13.868839,-2.7255645,97.993355
4.6433043,1.8215014,3.2672772,13.031093,5.1662254,93.27031
4.5526757,1.8180017,2.8051581,12.885722,11.64326,88.64918
4.443764,1.8435137,2.3493118,13.506283,16.50649,83.79541
4.3300753,1.9066458,1.9103928,14.275029,20.25981,78.75887
4.219031,1.9776268,1.4908005,14.871766,22.864637,73.60634
4.111495,2.041331,1.079272,15.133291,24.43231,68.467575
4.0011077,2.095832,0.6669022,15.039883,25.069954,63.335743
3.8836272,2.13003,0.25672242,14.775773,24.234875,58.200043
3.7647624,2.166653,-0.13682655,14.225861,22.455585,53.146442
3.6518042,2.2114165,-0.50489026,13.300955,19.936441,48.06993
3.5413828,2.2523184,-0.85055023,12.0982,16.781496,42.91541
3.43134,2.2792437,-1.184274,10.950835,12.982925,37.72647
3.3240376,2.2977445,-1.509471,9.879301,8.243503,32.39505
3.226602,2.3223965,-1.8223104,8.807408,2.7196784,27.012947
3.1477513,2.3626614,-2.10605,7.713164,-3.5890265,21.442585
3.1002288,2.4181497,-2.3344646,6.4797254,-10.446933,15.688901
3.0819423,2.4784703,-2.4990933,4.9819794,-17.645134,9.769189
3.091022,2.5316777,-2.6024308,2.9498186,-25.03731,3.8429651
3.137152,2.5740123,-2.6354449,0.65896916,-32.06431,-2.049814
3.2158706,2.588059,-2.61886,-1.2634073,-38.770527,-8.077127
3.328472,2.568121,-2.5425456,-3.0126295,-45.25339,-13.94308
3.4532807,2.5239341,-2.3999956,-5.0436654,-51.201725,-19.403492
3.5686567,2.4475832,-2.1970813,-6.9576716,-55.999424,-24.569874
3.6775422,2.3408947,-1.9046656,-8.853973,-59.597263,-29.421602
3.7559242,2.2348568,-1.589679,-10.84142,-62.178772,-33.91637
3.8063471,2.1273623,-1.2572206,-13.280662,-64.0759,-37.43319
3.8219123,2.0378835,-0.91409785,-16.143742,-65.58895,-40.33308
3.819449,1.9400266,-0.5688527,-19.269703,-66.52501,-42.838226
3.8330677,1.7475507,-0.22700383,-20.762484,-66.12905,-45.704926
3.8472767,1.5255435,0.092275456,-20.881777,-64.28371,-48.75208
3.83932,1.3084606,0.36454257,-19.9988,-61.484055,-51.861935
3.7980895,1.1041645,0.5701378,-19.085503,-58.23394,-54.570698
3.7227948,0.90313244,0.69382715,-18.530453,-55.160873,-56.468815
3.6168623,0.70320785,0.7253753,-18.278744,-52.52604,-57.768368
3.507947,0.49461547,0.7110791,-18.019995,-50.450596,-58.59596
3.426966,0.2867176,0.69421726,-18.147179,-48.72526,-58.67247
3.3676295,0.08636593,0.68374276,-18.614939,-46.98828,-58.08592
3.3092499,-0.10670301,0.6771811,-19.008139,-45.233997,-56.922707
3.2479155,-0.2843893,0.68366945,-19.307983,-43.41788,-55.38873
3.1935613,-0.45029032,0.71440357,-19.416473,-41.44254,-53.522297
3.1449797,-0.5902007,0.7734133,-19.480455,-39.2297,-51.309624
3.1016781,-0.7010604,0.8555786,-19.72306,-36.859333,-48.78589
3.0637562,-0.8023275,0.9491665,-19.806236,-34.43176,-45.72102
3.0497286,-0.8874819,1.0752255,-20.070772,-31.911943,-42.212845
3.04831,-0.97195643,1.2042682,-19.621975,-28.898285,-38.64017
3.0472548,-1.0401628,1.310733,-18.478333,-24.931715,-35.39361
3.037595,-1.0887009,1.4000748,-16.910477,-20.434353,-32.47732
3.0196202,-1.1010393,1.4785041,-16.177137,-15.512594,-29.565512
2.9901338,-1.1031542,1.5398537,-15.677775,-10.43866,-26.831303
2.8957808,-1.0683444,1.491264,-15.183067,-10.109271,-25.984648
2.8044817,-1.0346613,1.4442469,-14.7043705,-9.790543,-25.165396
2.7161305,-1.0020658,1.398748,-14.241131,-9.482105,-24.372597
2.6306257,-0.9705204,1.3547149,-13.792814,-9.183605,-23.605337
2.54787,-0.9399892,1.3120975,-13.358912,-8.894702,-22.862747
2.4677699,-0.9104377,1.2708477,-12.938933,-8.615069,-22.143986
2.390235,-0.88183266,1.2309189,-12.532405,-8.344393,-21.448244
2.3151793,-0.85414225,1.1922668,-12.138876,-8.082371,-20.77475
2.2425194,-0.8273358,1.1548487,-11.757908,-7.828713,-20.122753
2.1721756,-0.8013837,1.118623,-11.389083,-7.58314,-19.491537
2.1040704,-0.7762576,1.0835505,-11.031996,-7.3453827,-18.880411
2.03813,-0.7519301,1.0495925,-10.686259,-7.115182,-18.288708
1.9742827,-0.72837484,1.0167125,-10.351498,-6.892289,-17.71579
1.9124599,-0.7055664,0.9848751,-10.027349,-6.676463,-17.161036
1.8525949,-0.6834803,0.95404595,-9.713468,-6.4674726,-16.62385
1.7946239,-0.66209304,0.92419213,-9.409515,-6.265094,-16.103659
1.738485,-0.6413817,0.89528185,-9.1151705,-6.0691113,-15.599911
1.6841189,-0.6213243,0.8672845,-8.830119,-5.8793173,-15.112068
1.6314679,-0.6018997,0.8401704,-8.554062,-5.695511,-14.639616
1.5804766,-0.58308744,0.813911,-8.286706,-5.5174985,-14.182057
1.5310916,-0.56486773,0.7884788,-8.027771,-5.3450937,-13.738912
1.4832609,-0.5472215,0.76384705,-7.776987,-5.178115,-13.309713
1.4369347,-0.5301303,0.73999006,-7.534091,-5.016389,-12.894015
1.3920648,-0.5135764,0.716883,-7.2988305,-4.8597465,-12.491385
1.3486044,-0.4975425,0.6945019,-7.0709605,-4.7080245,-12.101403
1.3065087,-0.48201203,0.6728235,-6.8502455,-4.561067,-11.723666
1.265734,-0.46696895,0.65182537,-6.6364565,-4.4187207,-11.357783
1.2262381,-0.4523977,0.6314859,-6.4293733,-4.2808394,-11.003376
1.1879805,-0.43828326,0.61178404,-6.228782,-4.1472807,-10.66008
1.1509217,-0.42461115,0.5926996,-6.0344768,-4.0179076,-10.327541
1.1150239,-0.4113673,0.57421297,-5.846258,-3.892587,-10.00542
1.08025,-0.3985381,0.5563052,-5.6639333,-3.7711902,-9.693384
1.0465646,-0.3861105,0.53895795,-5.4873147,-3.6535933,-9.391116
1.0139333,-0.37407178,0.5221535,-5.316223,-3.539676,-9.098306
0.9823226,-0.36240962,0.5058747,-5.150483,-3.429322,-8.814654
0.9517004,-0.35111213,0.49010497,-4.989926,-3.322419,-8.539873
0.9220356,-0.34016785,0.4748282,-4.834388,-3.218858,-8.273682
0.8932978,-0.32956558,0.4600289,-4.683711,-3.1185336,-8.01581
0.865458,-0.3192946,0.445692,-4.537742,-3.0213437,-7.765996
0.83848786,-0.3093445,0.431803,-4.396333,-2.92719,-7.5239854
0.8123601,-0.29970512,0.41834775,-4.259341,-2.835977,-7.2895336
0.7870481,-0.29036674,0.40531263,-4.126626,-2.7476122,-7.0624022
0.7625264,-0.28131992,0.39268446,-3.9980545,-2.662006,-6.842362
0.73877007,-0.27255544,0.3804505,-3.873496,-2.5790718,-6.6291895
0.7157551,-0.26406452,0.36859828,-3.7528248,-2.498726,-6.4226704
0.6934583,-0.25583854,0.35711592,-3.635919,-2.420887,-6.2225947
0.6718572,-0.24786918,0.3459918,-3.5226605,-2.3454766,-6.0287614
0.6509298,-0.24014843,0.33521467,-3.4129348,-2.2724185,-5.840975
0.6306552,-0.23266849,0.32477367,-3.3066316,-2.2016392,-5.6590447
0.6110129,-0.22542182,0.3146583,-3.2036436,-2.1330671,-5.4827886
0.591983,-0.21840112,0.30485836,-3.103867,-2.0666332,-5.312029
0.5735465,-0.2115993,0.29536396,-3.0072012,-2.0022707,-5.146593
0.5556848,-0.20500956,0.28616557,-2.9135492,-1.9399148,-4.986315
0.5383799,-0.19862524,0.2772539,-2.8228166,-1.8795028,-4.8310328
0.5216144,-0.1924399,0.26862,-2.7349122,-1.8209738,-4.680591
0.5053714,-0.18644735,0.26025525,-2.6497474,-1.7642689,-4.534838
0.48963457,-0.18064156,0.25215113,-2.5672367,-1.7093313,-4.3936276
0.4743882,-0.17501669,0.24429958,-2.4872973,-1.6561056,-4.2568173
0.4596169,-0.1695671,0.23669268,-2.409849,-1.6045384,-4.1242704
0.44530585,-0.1642873,0.2293228,-2.3348136,-1.5545781,-3.9958534
0.43144068,-0.159172,0.22218254,-2.2621162,-1.5061743,-3.8714373
0.41800746,-0.15421607,0.21526474,-2.1916835,-1.4592785,-3.7508974
0.40499273,-0.14941452,0.20856243,-2.1234453,-1.4138436,-3.6341126
0.39238343,-0.14476256,0.20206891,-2.0573325,-1.369824,-3.5209658
0.38016692,-0.1402555,0.19577767,-1.9932792,-1.3271757,-3.4113436
0.3683309,-0.13588883,0.18968238,-1.931221,-1.2858559,-3.3051357
0.35686356,-0.13165817,0.18377694,-1.8710958,-1.245823,-3.2022362
0.34575337,-0.12755926,0.17805545,-1.8128432,-1.207037,-3.1025414
0.3349892,-0.123588026,0.17251214,-1.7564049,-1.1694589,-3.0059514
0.32456028,-0.119740464,0.16714147,-1.7017243,-1.1330512,-2.9123697
0.31445614,-0.11601273,0.16193804,-1.6487465,-1.0977771,-2.8217025
0.30466664,-0.112401076,0.15689668,-1.5974185,-1.0636017,-2.7338586
0.295182,-0.108901896,0.15201229,-1.547689,-1.0304905,-2.6487503
0.2859927,-0.10551168,0.14728001,-1.499508,-0.9984104,-2.5662923
0.27708957,-0.10222703,0.14269508,-1.4528273,-0.9673292,-2.4864018
0.26846364,-0.09904466,0.13825293,-1.4076002,-0.93721586,-2.408999
0.26010633,-0.09596138,0.13394909,-1.3637812,-0.9080401,-2.3340063
0.2520092,-0.092974104,0.12977925,-1.3213267,-0.87977284,-2.2613487
0.24416421,-0.09007984,0.12573925,-1.2801942,-0.8523857,-2.1909535
0.23656347,-0.087275684,0.12182503,-1.2403423,-0.82585126,-2.12275
0.2291994,-0.084558845,0.11803269,-1.2017311,-0.800143,-2.05667
0.22206458,-0.08192659,0.11435842,-1.164322,-0.7752351,-1.9926474
0.2151519,-0.07937629,0.110798545,-1.1280777,-0.75110275,-1.930618
0.20845445,-0.076905385,0.1073495,-1.0929619,-0.7277217,-1.8705199
0.20196551,-0.074511416,0.10400783,-1.0589392,-0.7050686,-1.8122928
0.19567859,-0.07219197,0.100770205,-1.0259758,-0.6831207,-1.7558784
0.18958738,-0.06994474,0.09763338,-0.9940387,-0.6618561,-1.7012205
0.18368582,-0.06776746,0.094594195,-0.9630958,-0.6412536,-1.6482642
0.177968,-0.06565797,0.09164964,-0.9331162,-0.6212924,-1.5969564
0.17242816,-0.06361416,0.08879674,-0.9040699,-0.6019527,-1.5472459
0.16706078,-0.061633963,0.08603266,-0.87592787,-0.58321494,-1.4990829
0.1618605,-0.059715416,0.08335463,-0.8486619,-0.5650606,-1.4524194
0.15682212,-0.057856597,0.080759965,-0.82224476,-0.5474714,-1.4072084
0.15194057,-0.056055643,0.07824608,-0.79665,-0.5304298,-1.363405
0.14721099,-0.05431075,0.07581045,-0.771852,-0.51391864,-1.3209652
0.14262864,-0.052620176,0.07345064,-0.747826,-0.4979215,-1.2798464
0.13818893,-0.050982233,0.07116429,-0.72454786,-0.48242232,-1.2400078
0.13388744,-0.049395274,0.06894911,-0.7019944,-0.46740565,-1.2014092
0.12971984,-0.047857717,0.06680289,-0.680143,-0.45285645,-1.1640123
0.12568198,-0.046368025,0.06472348,-0.65897185,-0.43876013,-1.1277795
0.121769816,-0.044924706,0.0627088,-0.6384597,-0.42510262,-1.0926745
0.11797943,-0.043526314,0.060756836,-0.61858606,-0.41187027,-1.0586623
