ax,ay,az,gx,gy,gz
-3.6145785,0.39182174,-5.8073254,16.312876,-26.689333,-14.981046
-3.7643898,0.18464354,-5.988228,30.176695,-33.224396,-15.84057
-3.9830472,0.2438981,-5.857595,30.977276,-36.76778,-12.772895
-4.159542,0.4032928,-5.776663,27.39812,-41.33399,-9.870236
-4.117803,0.58909905,-5.5819864,21.293787,-45.967766,-6.1525154
-3.9803135,0.7696321,-5.4097137,16.477072,-51.117683,-3.104106
-3.7694607,0.9383882,-5.235199,11.241826,-55.0246,-2.18193
-3.5717306,0.92991984,-5.166058,5.8560686,-57.82021,-2.536693
-3.4714775,0.69844526,-5.182915,1.1765848,-60.85095,-2.8690567
-3.4127514,0.46501446,-5.1014276,-1.9712751,-64.84285,-1.6255169
-3.2819095,0.43544486,-4.874635,-5.4822245,-69.5431,0.95135415
-3.0597281,0.5120828,-4.5606384,-9.274495,-73.6899,3.4407194
-2.792956,0.5454254,-4.256436,-12.646014,-76.86378,4.6425967
-2.544468,0.44734815,-3.9893687,-14.661273,-78.97455,4.624009
-2.3433075,0.29327908,-3.7465758,-15.160926,-80.7785,4.1935463
-2.1276724,0.20836595,-3.4821537,-15.833062,-82.82223,4.435616
-1.8737482,0.1668239,-3.202639,-17.084917,-84.81321,5.084936
-1.5635287,0.109992556,-2.902375,-18.358923,-86.21065,5.7169356
-1.2779074,0.016596708,-2.605669,-18.82405,-86.92154,5.859938
-1.0258702,-0.07777118,-2.3089602,-18.672812,-86.93813,5.679473
-0.82469374,-0.14479087,-2.0226629,-18.059706,-86.61217,5.341509
-0.6448435,-0.15367568,-1.720032,-17.645136,-86.13058,5.2321925
-0.46701175,-0.12766911,-1.4016272,-17.534456,-85.54137,5.328086
-0.27351385,-0.11189352,-1.0748931,-17.694252,-84.567085,5.5711474
-0.06851042,-0.122464985,-0.7369149,-17.610657,-82.888115,5.4922476
0.127236,-0.15082589,-0.39683825,-17.068316,-80.505005,5.1035595
0.31327745,-0.17744476,-0.067832276,-16.140383,-77.69081,4.6044536
0.5197219,-0.2014502,0.27203065,-15.204578,-74.55696,4.213873
0.74134076,-0.22800124,0.61064076,-14.662853,-70.80218,4.016646
0.96066165,-0.26400137,0.9156658,-14.471632,-66.38955,3.9192536
0.92087597,-0.2530678,0.87774354,-13.872291,-63.640034,3.756938
0.88340634,-0.24277069,0.842029,-13.307839,-61.05058,3.6040716
0.84805185,-0.23305483,0.8083304,-12.775251,-58.607296,3.4598343
0.814635,-0.22387148,0.77647877,-12.271852,-56.297916,3.323502
0.7829985,-0.21517739,0.74632406,-11.795272,-54.111576,3.1944332
0.75300246,-0.20693414,0.717733,-11.343406,-52.03861,3.0720572
0.7245222,-0.1991074,0.6905867,-10.9143715,-50.07039,2.955865
0.6974457,-0.19166645,0.6647784,-10.506485,-48.19918,2.8453996
0.6716726,-0.18458371,0.6402125,-10.118233,-46.418053,2.740252
0.64711237,-0.17783426,0.61680263,-9.748252,-44.72074,2.6400528
0.6236833,-0.17139566,0.5944709,-9.39531,-43.101597,2.544468
0.6013111,-0.16524751,0.57314664,-9.0582905,-41.555496,2.453195
0.5799285,-0.15937133,0.55276555,-8.736178,-40.07779,2.36596
0.5594742,-0.15375023,0.5332693,-8.42805,-38.664227,2.2825115
0.5398921,-0.14836884,0.5146044,-8.13306,-37.310944,2.2026215
0.52113086,-0.14321303,0.49672192,-7.850437,-36.014393,2.1260805
0.50314355,-0.13826989,0.4795771,-7.579472,-34.77132,2.0526967
0.4858868,-0.13352753,0.46312863,-7.3195124,-33.57874,1.9822937
0.4693208,-0.12897499,0.44733855,-7.069958,-32.43389,1.9147086
0.4534087,-0.12460216,0.43217173,-6.8302546,-31.334236,1.8497913
0.43811646,-0.12039967,0.41759577,-6.599889,-30.277418,1.7874029
0.42341247,-0.11635884,0.40358052,-6.3783846,-29.261253,1.7274145
0.4092675,-0.11247162,0.39009804,-6.165301,-28.283718,1.6697065
0.39565414,-0.10873051,0.3771223,-5.9602265,-27.342926,1.6141676
0.38254705,-0.10512853,0.36462915,-5.762778,-26.437119,1.560694
0.36992246,-0.10165914,0.35259587,-5.5725985,-25.564657,1.5091889
0.3577582,-0.09831625,0.34100136,-5.389353,-24.724007,1.4595617
0.34603342,-0.095094144,0.32982576,-5.2127285,-23.91373,1.4117278
0.3347287,-0.09198747,0.31905052,-5.042431,-23.13248,1.3656073
0.32382563,-0.08899117,0.30865815,-4.878185,-22.37899,1.3211256
0.31330702,-0.08610054,0.29863223,-4.7197304,-21.65207,1.2782124
0.30315664,-0.083311096,0.28895727,-4.5668225,-20.950596,1.2368015
0.2933592,-0.08061863,0.27961868,-4.4192314,-20.27351,1.1968303
0.28390014,-0.07801917,0.2706027,-4.276738,-19.619814,1.1582398
0.27476585,-0.07550896,0.26189625,-4.1391373,-18.98856,1.1209743
0.26594338,-0.07308444,0.253487,-4.006233,-18.378855,1.0849808
0.25742042,-0.07074223,0.24536325,-3.8778412,-17.789848,1.0502094
0.24918534,-0.06847913,0.23751388,-3.753786,-17.220737,1.0166123
0.24122708,-0.0662921,0.22992837,-3.633901,-16.670757,0.9841446
0.2335351,-0.06417825,0.22259668,-3.518027,-16.13918,0.9527633
0.22609939,-0.06213483,0.21550925,-3.406014,-15.625311,0.9224276
0.21891041,-0.060159214,0.208657,-3.2977176,-15.128494,0.8930984
0.2119591,-0.058248907,0.20203125,-3.1930013,-14.648101,0.86473876
0.20523672,-0.056401517,0.19562376,-3.091734,-14.183531,0.83731323
0.19873503,-0.054614775,0.18942659,-2.9937909,-13.73421,0.810788
0.19244608,-0.052886497,0.1834322,-2.8990526,-13.299593,0.7851307
0.1863623,-0.0512146,0.17763339,-2.8074052,-12.879154,0.7603105
0.18047644,-0.049597096,0.1720232,-2.7187393,-12.472393,0.73629767
0.17478156,-0.048032075,0.16659507,-2.6329503,-12.078831,0.713064
0.16927099,-0.046517704,0.1613426,-2.5499377,-11.698005,0.6905823
0.16393834,-0.045052227,0.15625973,-2.4696054,-11.329476,0.66882646
0.1587775,-0.043633968,0.15134062,-2.3918614,-10.97282,0.64777154
0.15378259,-0.042261306,0.14657965,-2.316617,-10.627631,0.6273936
0.14894795,-0.04093269,0.14197147,-2.2437868,-10.293518,0.60766953
0.14426817,-0.039646626,0.13751087,-2.1732893,-9.970106,0.58857715
0.13973801,-0.038401686,0.1331929,-2.105046,-9.657036,0.5700953
0.13535246,-0.037196483,0.12901276,-2.038981,-9.353958,0.55220336
0.13110669,-0.036029693,0.124965854,-1.9750217,-9.06054,0.5348817
0.12699604,-0.03490004,0.12104775,-1.9130981,-8.776462,0.51811135
0.12301605,-0.03380629,0.117254175,-1.8531426,-8.501412,0.50187397
0.1191624,-0.03274726,0.113581024,-1.7950903,-8.235093,0.48615208
0.115430936,-0.031721808,0.11002433,-1.7388786,-7.9772186,0.47092867
0.11181765,-0.030728834,0.10658029,-1.6844472,-7.727511,0.45618737
0.10831868,-0.029767275,0.1032452,-1.6317378,-7.4857035,0.44191244
0.10493029,-0.028836105,0.10001552,-1.5806944,-7.2515383,0.4280887
0.1016489,-0.027934337,0.09688782,-1.5312626,-7.024767,0.41470146
0.09847102,-0.027061021,0.09385879,-1.4833905,-6.8051505,0.40173656
0.09539333,-0.026215233,0.090925254,-1.4370273,-6.5924563,0.38918033
0.092412576,-0.025396086,0.08808412,-1.3921247,-6.386462,0.37701964
0.08952565,-0.024602724,0.08533241,-1.3486353,-6.186952,0.3652417
0.08672952,-0.023834316,0.08266725,-1.3065138,-5.993717,0.35383424
0.08402129,-0.02309006,0.080085866,-1.2657164,-5.806556,0.34278536
0.081398144,-0.02236919,0.077585585,-1.2262007,-5.625275,0.33208358
0.078857355,-0.021670949,0.075163804,-1.1879257,-5.449686,0.32171783
0.0763963,-0.020994622,0.07281802,-1.1508517,-5.2796073,0.31167734
0.074012436,-0.020339508,0.070545815,-1.1149406,-5.114863,0.3019518
0.071703315,-0.019704932,0.06834484,-1.0801555,-4.955283,0.29253116
0.069466546,-0.019090243,0.06621284,-1.0464603,-4.8007045,0.28340572
0.06729985,-0.018494807,0.06414763,-1.0138206,-4.650968,0.27456614
0.06520099,-0.017918017,0.06214708,-0.98220295,-4.50592,0.26600334
0.06316783,-0.01735928,0.060209148,-0.951575,-4.365412,0.25770858
0.06119829,-0.016818026,0.05833186,-0.92190534,-4.2293005,0.24967335
0.059290353,-0.016293703,0.056513287,-0.89316374,-4.097447,0.24188946
0.057442084,-0.015785774,0.054751586,-0.865321,-3.969716,0.23434898
0.05565159,-0.015293726,0.053044956,-0.83834857,-3.8459785,0.22704424
0.053917058,-0.014817055,0.05139167,-0.81221914,-3.7261083,0.21996778
0.05223672,-0.0143552795,0.049790036,-0.7869062,-3.6099832,0.21311244
0.050608877,-0.013907928,0.048238438,-0.76238394,-3.497486,0.20647126
0.049031872,-0.013474548,0.046735298,-0.7386276,-3.3885021,0.20003748
0.047504112,-0.0130547015,0.045279093,-0.71561307,-3.2829213,0.1938046
0.046024047,-0.012647961,0.04386835,-0.693317,-3.1806366,0.18776631
0.04459018,-0.012253917,0.042501643,-0.67171687,-3.0815446,0.1819165
0.04320106,-0.01187217,0.04117759,-0.6507908,-2.9855452,0.17624925
0.041855283,-0.011502335,0.039894845,-0.6305178,-2.8925412,0.17075883
0.040551495,-0.011144038,0.038652126,-0.6108772,-2.8024387,0.16543971
0.039288376,-0.0107969185,0.03744817,-0.59184927,-2.715147,0.16028652
0.038064655,-0.0104606245,0.036281765,-0.57341486,-2.630578,0.15529405
0.036879096,-0.010134819,0.03515174,-0.55555534,-2.5486462,0.15045726
0.035730507,-0.009819173,0.034056947,-0.5382527,-2.4692693,0.14577132
0.03461773,-0.009513368,0.03299629,-0.52148956,-2.3923674,0.14123146
0.033539645,-0.009217097,0.031968698,-0.505249,-2.3178627,0.13683316
0.032495163,-0.008930062,0.030973142,-0.48951477,-2.2456808,0.13257195
0.031483244,-0.008651974,0.030008616,-0.4742709,-2.1757486,0.12844357
0.03050286,-0.008382552,0.029074153,-0.4595022,-2.1079962,0.12444385
0.02955303,-0.008121528,0.028168812,-0.44519374,-2.0423553,0.12056879
0.0286328,-0.007868637,0.027291683,-0.43133116,-1.9787598,0.11681448
0.027741242,-0.007623627,0.026441885,-0.41790056,-1.917146,0.113177165
0.026877465,-0.0073862504,0.025618566,-0.40488842,-1.8574519,0.109653175
0.0260406,-0.00715627,0.0248209,-0.3922817,-1.7996178,0.10623898
0.025229808,-0.0069334544,0.024048084,-0.38006774,-1.7435855,0.10293116
0.024444275,-0.0067175804,0.023299342,-0.36823425,-1.6892986,0.09972638
0.02368321,-0.006508431,0.022573926,-0.3567694,-1.6367029,0.09662143
0.022945853,-0.0063057966,0.021871107,-0.3456617,-1.5857456,0.09361321
0.022231465,-0.0061094738,0.021190178,-0.3349,-1.5363754,0.09069868
0.021539327,-0.0059192656,0.020530459,-0.32447344,-1.488543,0.087874934
0.020868745,-0.005734982,0.019891286,-0.31437165,-1.4422004,0.08513913
0.020219048,-0.0055564377,0.01927202,-0.30458447,-1.3973011,0.082488544
0.019589586,-0.005383454,0.018672042,-0.29510212,-1.3538002,0.07992049
0.018979728,-0.005215857,0.018090747,-0.28591505,-1.3116539,0.077432424
0.01838886,-0.0050534797,0.017527554,-0.27701408,-1.2708201,0.07502184
0.017816393,-0.004896159,0.016981902,-0.2683903,-1.2312579,0.07268632
0.017261751,-0.0047437367,0.016453238,-0.26003507,-1.1929277,0.07042353
0.016724382,-0.004596061,0.015941039,-0.25193998,-1.1557912,0.068231195
0.016203744,-0.004452984,0.015444786,-0.244097,-1.1198108,0.066107124
0.01569932,-0.0043143616,0.014963987,-0.2364982,-1.0849509,0.0640492
0.015210599,-0.0041800556,0.014498158,-0.22913602,-1.0511764,0.06205535
0.014737097,-0.004049931,0.014046834,-0.22200306,-1.0184535,0.060123578
0.014278336,-0.0039238585,0.013609561,-0.2150922,-0.9867494,0.058251955
0.01383386,-0.003801711,0.013185903,-0.2083965,-0.95603245,0.056438606
0.013403222,-0.0036833666,0.012775436,-0.20190927,-0.9262719,0.05468171
0.012985991,-0.0035687066,0.012377748,-0.19562401,-0.8974379,0.052979518
0.012581751,-0.0034576165,0.0119924415,-0.18953444,-0.8695016,0.05133032
0.012190096,-0.003349985,0.011619131,-0.18363446,-0.842435,0.04973247
0.011810634,-0.0032457043,0.011257443,-0.17791815,-0.8162111,0.04818436
0.011442986,-0.00314467,0.010907015,-0.17237982,-0.7908036,0.04668445
0.011086783,-0.0030467813,0.010567496,-0.1670139,-0.76618713,0.045231238
0.01074167,-0.00295194,0.010238547,-0.16181503,-0.742337,0.04382326
0.010407301,-0.0028600513,0.009919839,-0.15677801,-0.7192293,0.04245912
0.01008334,-0.0027710232,0.009611052,-0.1518978,-0.696841,0.041137446
0.009769466,-0.0026847667,0.009311879,-0.14716952,-0.6751497,0.03985692
0.009465362,-0.0026011951,0.009022019,-0.14258842,-0.6541336,0.03861625
0.009170725,-0.0025202255,0.008741182,-0.13814995,-0.63377184,0.037414208
0.00888526,-0.0024417762,0.008469088,-0.13384964,-0.6140439,0.036249585
0.008608681,-0.0023657691,0.008205464,-0.12968318,-0.59493005,0.035121214
0.008340713,-0.0022921283,0.007950047,-0.12564644,-0.57641125,0.03402797
0.008081086,-0.0022207797,0.0077025807,-0.12173537,-0.55846894,0.03296876
0.007829541,-0.002151652,0.0074628177,-0.11794604,-0.5410851,0.031942524
0.007585827,-0.0020846764,0.007230519,-0.11427467,-0.52424246,0.030948231
0.0073496993,-0.0020197856,0.007005451,-0.11071759,-0.50792414,0.02998489
0.0071209217,-0.001956915,0.006787389,-0.10727123,-0.49211374,0.029051537
