ax,ay,az,gx,gy,gz
-5.6727786,-0.9827362,-7.347339,-34.62395,-22.527477,-45.11132
-5.906353,-1.1210372,-8.190048,-27.461721,-40.20608,-60.46341
-5.831588,-1.3666314,-8.776901,-15.608732,-61.9674,-69.89908
-5.6936173,-1.685706,-9.238143,-3.6741815,-80.73034,-73.48182
-5.5614963,-1.9961293,-9.545323,7.3111663,-95.05285,-74.145004
-5.553305,-2.2984579,-9.880552,18.838173,-107.09955,-75.17733
-5.613778,-2.5802789,-10.152512,30.819387,-114.91607,-80.46776
-5.632279,-2.8357222,-10.390835,45.308464,-118.00103,-91.40221
-5.465521,-3.0210302,-10.586924,60.40229,-121.10722,-101.437485
-5.104744,-3.1222866,-10.641738,74.891815,-125.085144,-107.618126
-4.5830793,-3.2198257,-10.601188,88.85673,-129.88788,-108.82948
-3.9743142,-3.2941048,-10.508642,103.028946,-135.62956,-105.06946
-3.2947185,-3.1819434,-10.292222,116.797615,-142.40558,-97.63968
-2.3623328,-2.752305,-9.797249,128.29124,-146.47368,-91.143486
-1.2440555,-2.1027377,-9.106965,136.6495,-145.40868,-87.552216
0.06522298,-1.322783,-8.256685,141.21095,-138.30653,-86.32133
1.5162681,-0.561407,-7.346216,142.31848,-125.99684,-83.70461
2.8432126,0.12866883,-6.5176563,140.94576,-111.34059,-76.490364
3.7498064,0.73820335,-5.8450255,138.44556,-97.744545,-67.4887
4.4116654,1.3021913,-5.213858,134.73657,-85.260544,-57.152245
4.914105,1.8092233,-4.6110144,129.86774,-73.129166,-45.494877
5.228476,2.2561786,-4.0824165,124.02786,-60.703033,-33.23586
5.3742404,2.6469145,-3.6477437,116.3866,-46.219505,-21.214563
5.365358,2.9920456,-3.3400614,107.66471,-30.344948,-9.845959
5.1795993,3.2889931,-3.1783874,99.01471,-15.083201,0.17294893
4.8729963,3.5671866,-3.0716705,90.35238,-2.266506,8.33927
4.5777535,3.8101447,-2.9861338,81.54335,9.004394,15.623116
4.3064046,4.0347676,-2.9343376,72.4067,19.127926,22.186954
4.034611,4.2356277,-2.9379835,63.445633,28.683807,27.763086
3.6950946,4.4226084,-3.0316777,55.39456,36.69253,31.738087
3.2620564,4.577723,-3.1877425,47.999367,41.922054,33.71229
2.8020232,4.686049,-3.3563278,41.014824,44.862854,34.01195
2.3549514,4.7628064,-3.5284035,34.150967,45.6762,32.482246
1.9466856,4.7910275,-3.7091744,27.437227,45.343422,30.146507
1.5860356,4.773706,-3.8970134,21.102505,44.17509,27.461153
1.2596405,4.7189736,-4.091087,15.334741,42.32146,24.765371
0.9408873,4.634971,-4.288743,10.20933,39.880463,22.168892
0.6009976,4.535265,-4.497734,6.153126,36.325783,18.915743
0.22795168,4.416117,-4.7118897,3.1244457,31.97913,14.6328
-0.12823345,4.28177,-4.92105,1.0328323,26.93316,9.589514
-0.45067254,4.139744,-5.1203966,-0.32382363,21.377073,4.374107
-0.7491314,3.9980981,-5.31075,-1.0850494,15.230926,-0.6060178
-1.0376244,3.8634293,-5.4879184,-1.4696993,7.9437056,-4.827619
-1.335708,3.7251542,-5.6573954,-1.7106422,-0.2284078,-8.22227
-1.6421864,3.6123407,-5.807921,-1.9049798,-9.212048,-11.608881
-1.926156,3.544358,-5.932676,-2.2650938,-19.006826,-16.172764
-2.0960383,3.507897,-6.0308156,-2.6082482,-29.071722,-22.787825
-2.0362902,3.4935982,-6.070642,-2.7218342,-37.746,-31.85347
-1.5601522,3.526206,-5.981122,-2.8183951,-44.358364,-41.326202
-0.7865814,3.5473216,-5.81207,-3.0332346,-48.69623,-48.90406
0.15341774,3.5432298,-5.5739193,-3.6534717,-51.471474,-53.49414
1.1296823,3.483415,-5.2943525,-4.911519,-52.685555,-54.15282
2.011141,3.3627343,-5.0119834,-6.590713,-52.279373,-50.514717
1.9442451,3.2508807,-4.845271,-6.371488,-50.54042,-48.83446
1.8798368,3.1431868,-4.6847587,-6.1604156,-48.866135,-47.21669
1.8177996,3.0394573,-4.530155,-5.9571133,-47.253487,-45.658474
1.7580243,2.9395099,-4.381189,-5.761224,-45.699635,-44.157074
1.7004088,2.8431737,-4.2376046,-5.572412,-44.201927,-42.70992
1.6448573,2.7502885,-4.099164,-5.390364,-42.75787,-41.314606
1.5912796,2.660704,-3.965643,-5.2147846,-41.365128,-39.968876
1.5395913,2.574278,-3.8368297,-5.045397,-40.021492,-38.670593
1.4897122,2.4908779,-3.7125258,-4.881938,-38.724895,-37.417763
1.4415675,2.4103773,-3.5925438,-4.7241626,-37.473377,-36.20849
1.3950858,2.3326573,-3.4767063,-4.5718374,-36.26509,-35.040985
1.3501998,2.2576058,-3.3648458,-4.4247417,-35.098286,-33.913567
1.3068461,2.185116,-3.2568035,-4.282667,-33.971313,-32.82463
1.2649643,2.1150875,-3.1524293,-4.1454163,-32.8826,-31.772669
1.2244972,2.047424,-3.0515807,-4.012801,-31.83066,-30.756235
1.1853902,1.9820353,-2.954122,-3.8846438,-30.81408,-29.77397
1.1475918,1.9188343,-2.8599243,-3.7607746,-29.831514,-28.82457
1.1110528,1.8577391,-2.7688649,-3.6410325,-28.881685,-27.906803
1.0757262,1.7986711,-2.6808271,-3.5252635,-27.963375,-27.01949
1.0415673,1.7415558,-2.5956995,-3.4133217,-27.075418,-26.161507
1.0085336,1.6863216,-2.513376,-3.3050668,-26.216711,-25.331783
0.97658426,1.6329006,-2.4337547,-3.2003655,-25.386192,-24.529297
0.9456804,1.5812277,-2.3567388,-3.0990903,-24.58285,-23.75307
0.91578466,1.5312405,-2.2822354,-3.0011191,-23.805714,-23.002169
0.88686156,1.4828795,-2.210156,-2.906335,-23.053862,-22.275694
0.8588769,1.4360876,-2.140415,-2.8146265,-22.326403,-21.57279
0.8317979,1.3908103,-2.0729313,-2.725886,-21.622488,-20.892635
0.8055933,1.3469948,-2.0076265,-2.6400108,-20.941303,-20.234442
0.78023297,1.3045908,-1.9444258,-2.5569024,-20.282063,-19.597456
0.75568795,1.2635503,-1.8832569,-2.476466,-19.644018,-18.980947
0.7319305,1.2238266,-1.8240508,-2.3986104,-19.026447,-18.384222
0.708934,1.1853752,-1.766741,-2.3232486,-18.428656,-17.806608
0.6866728,1.1481533,-1.7112637,-2.2502964,-17.849977,-17.247463
0.6651222,1.1121196,-1.6575572,-2.1796727,-17.289772,-16.706167
0.64425844,1.0772343,-1.6055626,-2.1113002,-16.747423,-16.182125
0.6240588,1.0434593,-1.5552226,-2.0451038,-16.222334,-15.67476
0.60450107,1.0107579,-1.5064828,-1.9810114,-15.713935,-15.183521
0.58556426,0.9790945,-1.4592901,-1.9189534,-15.221674,-14.707876
0.56722784,0.948435,-1.4135938,-1.8588631,-14.74502,-14.247312
0.5494721,0.91874653,-1.3693446,-1.8006759,-14.283463,-13.801333
0.5322782,0.8899973,-1.3264953,-1.7443295,-13.836508,-13.369465
0.5156276,0.8621567,-1.2850003,-1.6897639,-13.403679,-12.951246
0.49950284,0.8351952,-1.2448157,-1.6369214,-12.984517,-12.546233
0.48388678,0.80908436,-1.2058988,-1.5857459,-12.578579,-12.153997
0.46876296,0.78379655,-1.1682086,-1.5361837,-12.185438,-11.774127
0.45411554,0.7593053,-1.1317056,-1.4881827,-11.80468,-11.40622
0.4399292,0.7355849,-1.0963516,-1.4416925,-11.435906,-11.049895
0.426189,0.7126106,-1.0621096,-1.3966646,-11.078733,-10.704778
0.41288078,0.6903585,-1.028944,-1.3530521,-10.732787,-10.370509
0.39999062,0.66880554,-0.99682033,-1.3108099,-10.397709,-10.046741
0.38750517,0.6479292,-0.9657053,-1.2698938,-10.073152,-9.733139
0.37541154,0.627708,-0.9355666,-1.2302617,-9.758779,-9.429378
0.36369726,0.6081211,-0.9063733,-1.1918727,-9.454267,-9.135144
0.3523502,0.5891482,-0.8780952,-1.1546873,-9.159302,-8.850136
0.34135872,0.5707699,-0.85070324,-1.1186671,-8.87358,-8.574058
0.33071157,0.55296725,-0.82416934,-1.0837753,-8.596808,-8.306628
0.3203978,0.5357221,-0.79846627,-1.049976,-8.328702,-8.047572
0.31040683,0.5190167,-0.77356774,-1.0172347,-8.068989,-7.7966256
0.3007285,0.50283396,-0.7494483,-0.98551774,-7.817402,-7.55353
0.2913529,0.4871575,-0.7260833,-0.954793,-7.573684,-7.3180394
0.2822705,0.4719712,-0.7034489,-0.925029,-7.337588,-7.0899124
0.273472,0.45725968,-0.68152213,-0.8961955,-7.1088724,-6.868917
0.26494852,0.44300795,-0.66028064,-0.8682631,-6.8873053,-6.6548285
0.25669134,0.4292015,-0.63970286,-0.8412035,-6.672661,-6.4474297
0.24869211,0.41582638,-0.6197679,-0.81498927,-6.464722,-6.2465096
0.24094272,0.402869,-0.6004556,-0.7895937,-6.263277,-6.0518646
0.23343529,0.39031616,-0.5817462,-0.7649911,-6.068123,-5.863297
0.22616224,0.37815526,-0.56362104,-0.7411566,-5.8790607,-5.680617
0.21911621,0.36637393,-0.5460615,-0.71806604,-5.6959,-5.5036383
0.21229006,0.35496026,-0.52905005,-0.69569606,-5.518455,-5.3321834
0.20567693,0.34390274,-0.51256937,-0.67402416,-5.3465476,-5.166078
0.19927011,0.3331902,-0.4966029,-0.65302837,-5.180003,-5.0051556
0.19306314,0.3228118,-0.48113447,-0.6326875,-5.018654,-4.849252
0.18704978,0.31275713,-0.4661485,-0.6129811,-4.862337,-4.6982117
0.18122394,0.30301604,-0.45162988,-0.59388924,-4.710895,-4.551882
0.17557977,0.29357868,-0.437564,-0.5753927,-4.5641756,-4.410115
0.17011158,0.28443557,-0.42393667,-0.5574729,-4.4220304,-4.2727675
0.16481386,0.27557752,-0.41073418,-0.5401117,-4.284317,-4.139703
0.15968129,0.26699558,-0.39794323,-0.52329177,-4.1508965,-4.0107856
0.15470871,0.25868115,-0.385551,-0.5069961,-4.0216346,-3.885887
0.1498911,0.25062588,-0.373545,-0.4912083,-3.8964014,-3.764881
0.14522363,0.24282162,-0.36191317,-0.47591257,-3.7750711,-3.6476462
0.14070162,0.23526056,-0.3506438,-0.46109346,-3.657522,-3.5340648
0.13632052,0.22793512,-0.3397256,-0.44673613,-3.5436356,-3.4240224
0.1320759,0.22083792,-0.3291476,-0.43282613,-3.4332976,-3.317409
0.12796356,0.21396185,-0.31889915,-0.41934955,-3.3263974,-3.214117
0.12397932,0.20729999,-0.30897,-0.4062928,-3.2228277,-3.1140432
0.12011921,0.20084567,-0.29935017,-0.3936428,-3.1224844,-3.017087
0.116379336,0.19459242,-0.29003003,-0.38138688,-3.0252671,-2.9231513
0.11275596,0.18853395,-0.2810002,-0.3695127,-2.931078,-2.8321414
0.10924546,0.18266419,-0.2722516,-0.3580084,-2.8398225,-2.7439663
0.10584428,0.17697726,-0.26377553,-0.34686244,-2.7514098,-2.6585376
0.10254905,0.17146744,-0.25556344,-0.33606362,-2.6657505,-2.5757697
0.09935644,0.16612923,-0.24760711,-0.32560113,-2.582759,-2.4955795
0.09626326,0.16095728,-0.23989858,-0.31546447,-2.502352,-2.417887
0.09326641,0.15594639,-0.2324301,-0.3056435,-2.4244494,-2.3426137
0.09036289,0.15109155,-0.2251942,-0.29612833,-2.3489726,-2.2696846
0.08754978,0.14638788,-0.21818364,-0.28690952,-2.2758462,-2.1990266
0.08482428,0.14183068,-0.21139137,-0.27797776,-2.204997,-2.1305687
0.08218364,0.13741541,-0.20481062,-0.26932412,-2.136354,-2.0642428
0.07962523,0.1331376,-0.19843477,-0.26093996,-2.0698483,-1.999982
0.07714648,0.128993,-0.19225745,-0.25281683,-2.0054135,-1.9377222
0.07474491,0.12497745,-0.18627249,-0.24494664,-1.942985,-1.8774009
0.072418116,0.121086925,-0.18047386,-0.2373215,-1.8825003,-1.8189578
0.07016377,0.11731754,-0.17485578,-0.22993378,-1.8238989,-1.7623343
0.06797961,0.11366551,-0.16941261,-0.22277607,-1.7671219,-1.7074739
0.06586345,0.11012719,-0.16413893,-0.21584122,-1.7121127,-1.6543214
0.06381319,0.10669903,-0.15902942,-0.20912227,-1.6588162,-1.602824
0.061826747,0.103377596,-0.154079,-0.20261252,-1.6071789,-1.5529296
0.059902154,0.10015957,-0.14928271,-0.19630542,-1.5571494,-1.5045888
0.058037475,0.09704173,-0.14463574,-0.1901947,-1.5086774,-1.457753
0.05623085,0.09402096,-0.14013343,-0.1842742,-1.4617144,-1.4123751
0.05448047,0.09109424,-0.13577129,-0.17853802,-1.4162134,-1.3684101
0.052784584,0.088258624,-0.13154495,-0.17298043,-1.3721291,-1.3258138
0.051141493,0.08551129,-0.12745018,-0.16759585,-1.3294171,-1.2845434
0.049549554,0.08284948,-0.1234829,-0.1623789,-1.2880348,-1.244558
0.048007168,0.08027053,-0.11963911,-0.15732436,-1.2479407,-1.2058172
0.0465128,0.07777187,-0.115914986,-0.15242717,-1.2090948,-1.1682826
0.045064956,0.07535099,-0.112306796,-0.14768243,-1.1714582,-1.1319164
0.043662183,0.07300548,-0.10881093,-0.14308539,-1.1349932,-1.0966823
0.042303074,0.07073298,-0.10542388,-0.13863146,-1.0996634,-1.0625451
0.040986277,0.06853123,-0.10214228,-0.13431618,-1.0654334,-1.0294704
0.03971047,0.06639801,-0.098962836,-0.13013524,-1.032269,-0.99742544
0.038474377,0.0643312,-0.095882356,-0.12608443,-1.000137,-0.966378
0.037276767,0.06232873,-0.09289777,-0.12215974,-0.9690051,-0.936297
0.036116432,0.06038859,-0.0900061,-0.11835721,-0.9388424,-0.9071524
0.03499222,0.05850885,-0.08720444,-0.114673056,-0.9096187,-0.8789151
