ax,ay,az,gx,gy,gz
-3.980036,-0.62182385,-4.837317,-73.8534,6.8246074,-18.810171
-4.4069333,-1.0712161,-5.952575,-68.93845,-6.547251,-21.916655
-4.8354726,-1.5584805,-6.8588696,-58.711395,-27.430151,-29.17378
-5.063273,-2.197311,-7.489771,-46.490013,-47.46101,-35.67372
-5.1405635,-2.701371,-7.903176,-34.33052,-62.374718,-41.34006
-5.135671,-3.3225586,-8.424605,-21.710007,-74.67795,-47.32665
-5.009833,-3.9922981,-8.928204,-8.723967,-84.04686,-52.776455
-4.7542496,-4.6361713,-9.363107,6.00191,-90.857704,-57.31946
-4.3784966,-5.18445,-9.725329,22.310328,-96.78907,-59.97422
-3.9246125,-5.57029,-9.966423,41.078213,-102.7656,-59.30511
-3.4665737,-5.689469,-10.072345,59.2845,-109.99177,-56.044945
-2.9683867,-5.5645924,-10.025792,76.41989,-119.03563,-50.049118
-2.4097562,-5.2251205,-9.800941,91.33823,-128.10095,-43.438667
-1.7733057,-4.7308307,-9.417173,104.17044,-135.35985,-37.781193
-1.0312691,-4.0716114,-8.843471,114.13897,-136.7763,-35.779026
-0.17287365,-3.2249005,-7.9986424,121.27613,-132.39528,-37.235874
0.722856,-2.3675725,-7.0498366,125.09477,-123.18573,-38.51235
1.6084961,-1.5365645,-6.0697618,125.540726,-111.536224,-36.57964
2.3763728,-0.7096726,-5.112406,123.20148,-98.66977,-31.611883
2.9955242,0.088331945,-4.208701,118.36127,-85.50087,-25.084894
3.486149,0.7834822,-3.415859,109.89226,-69.942375,-16.839712
3.8269842,1.3581882,-2.8090127,100.19857,-53.09524,-7.9935417
3.9696083,1.8522111,-2.4359004,90.835335,-37.016167,-0.30044448
3.9792778,2.277846,-2.224813,81.722664,-22.729525,5.393175
3.9594111,2.6494787,-2.103521,72.09525,-9.601457,10.126403
3.8860135,2.986999,-2.1042817,61.93736,2.2355287,14.830701
3.7478695,3.297236,-2.2004468,51.68151,12.825526,18.983341
3.5195937,3.5622928,-2.386599,42.019165,21.628778,21.467495
3.2441745,3.780442,-2.61352,33.286404,28.850689,22.15163
2.9141724,3.9478474,-2.8808618,25.452019,33.204826,21.06476
2.5439572,4.0286956,-3.173381,18.247852,35.50249,19.643826
2.1559885,4.0561733,-3.4712503,11.592221,36.32781,17.987745
1.7623458,4.015265,-3.7796798,5.822834,36.158768,15.856014
1.372348,3.9200146,-4.0889373,1.2089937,35.080284,13.13641
1.0011091,3.7817218,-4.391388,-2.1326947,33.025814,9.969152
0.6674324,3.6203363,-4.669344,-4.342415,29.85965,6.7346315
0.3468338,3.4459245,-4.925464,-5.766411,26.14248,3.3865347
0.023053275,3.2649372,-5.167539,-6.0892105,21.627686,-0.5241519
-0.2715054,3.0809848,-5.3924923,-5.4401507,16.337835,-4.826241
-0.50828665,2.8918674,-5.608066,-3.426762,9.890898,-8.791969
-0.6901735,2.738324,-5.786847,-0.7636279,2.5143983,-12.159639
-0.83551675,2.6311655,-5.915343,2.3836484,-5.867029,-15.027255
-0.9351373,2.6230164,-5.954944,4.85127,-14.817493,-17.935158
-0.95936316,2.6498213,-5.917383,6.7187943,-23.489206,-21.859905
-0.8844135,2.6791584,-5.800222,8.562231,-30.665335,-27.238747
-0.67009646,2.804878,-5.5080366,9.547869,-36.541637,-33.055958
-0.33380413,2.9331782,-5.10734,9.176171,-41.400288,-37.72314
0.09155095,3.0121257,-4.6575804,7.6117034,-45.709904,-40.019444
0.55289733,3.0014498,-4.2330174,5.1422234,-49.48078,-40.02427
1.0536367,2.9055185,-3.857999,2.3728945,-51.840508,-38.899036
1.6415493,2.7057006,-3.5472696,0.20548126,-51.209858,-37.720875
2.2466834,2.4464123,-3.2690668,-1.2947464,-48.149433,-36.09847
2.7920325,2.1666136,-3.0055823,-2.4198415,-42.789104,-33.42852
3.2080147,1.8898476,-2.7750857,-2.9991498,-36.456814,-29.880371
3.1017408,1.8272414,-2.6831536,-2.899795,-35.24909,-28.890505
2.999379,1.7669399,-2.594606,-2.8040977,-34.08582,-27.937077
2.9007494,1.708837,-2.5092866,-2.7118897,-32.964962,-27.018414
2.8056836,1.6528336,-2.42705,-2.6230133,-31.884607,-26.132942
2.7140234,1.5988363,-2.3477595,-2.5373209,-30.842953,-25.279192
2.62562,1.5467577,-2.2712865,-2.454673,-29.83831,-24.455778
2.5403337,1.4965155,-2.19751,-2.3749397,-28.869095,-23.661398
2.4580333,1.4480321,-2.126316,-2.2979975,-27.933807,-22.894827
2.378594,1.4012343,-2.0575974,-2.2237303,-27.031036,-22.154907
2.301899,1.3560531,-1.9912524,-2.1520286,-26.15945,-21.440548
2.2278368,1.312423,-1.9271853,-2.0827887,-25.31779,-20.750713
2.1563032,1.2702823,-1.8653051,-2.0159123,-24.504858,-20.084427
2.087198,1.2295723,-1.8055258,-1.9513062,-23.719526,-19.440762
2.0204268,1.1902373,-1.7477655,-1.8888825,-22.96072,-18.818836
1.9559002,1.1522245,-1.691947,-1.8285569,-22.22742,-18.217815
1.8935326,1.1154836,-1.6379961,-1.77025,-21.518658,-17.636906
1.833243,1.0799669,-1.5858426,-1.7138855,-20.833508,-17.075352
1.7749538,1.0456288,-1.5354198,-1.6593915,-20.171093,-16.53243
1.7185916,1.0124257,-1.4866637,-1.6066989,-19.530577,-16.007456
1.6640857,0.9803161,-1.4395136,-1.5557418,-18.911156,-15.499773
1.6113693,0.9492607,-1.3939112,-1.5064574,-18.31207,-15.008756
1.5603776,0.91922146,-1.3498011,-1.4587858,-17.732586,-14.533805
1.5110496,0.89016217,-1.30713,-1.4126693,-17.172009,-14.074349
1.4633263,0.8620483,-1.2658471,-1.3680532,-16.629667,-13.629841
1.4171515,0.8348466,-1.2259035,-1.3248847,-16.104921,-13.199756
1.372471,0.80852526,-1.1872529,-1.2831132,-15.59716,-12.783589
1.3292333,0.7830539,-1.1498501,-1.2426906,-15.105794,-12.38086
1.2873884,0.75840306,-1.1136525,-1.2035702,-14.630259,-11.991106
1.2468891,0.73454475,-1.0786185,-1.1657076,-14.1700115,-11.613883
1.2076893,0.71145207,-1.0447088,-1.1290599,-13.724533,-11.248764
1.1697448,0.68909895,-1.0118852,-1.0935861,-13.293323,-10.89534
1.1330137,0.66746056,-0.98011094,-1.0592464,-12.875899,-10.553216
1.0974551,0.6465129,-0.9493511,-1.0260029,-12.471801,-10.2220125
1.0630299,0.6262329,-0.9195716,-0.993819,-12.080582,-9.901366
1.0297003,0.60659844,-0.89073986,-0.96265936,-11.701815,-9.590924
0.99743,0.58758795,-0.86282456,-0.9324901,-11.335086,-9.29035
0.96618414,0.5691809,-0.83579534,-0.9032786,-10.979999,-8.999316
0.93592894,0.5513575,-0.8096232,-0.8749932,-10.636169,-8.717511
0.90663195,0.5340986,-0.7842799,-0.8476036,-10.303229,-8.44463
0.8782618,0.5173857,-0.7597383,-0.8210806,-9.9808235,-8.180383
0.8507883,0.50120103,-0.73597246,-0.79539585,-9.668607,-7.9244866
0.82418233,0.4855274,-0.712957,-0.7705221,-9.366248,-7.676671
0.7984157,0.47034824,-0.6906677,-0.74643314,-9.073429,-7.4366736
0.7734614,0.4556476,-0.66908103,-0.72310346,-8.789841,-7.2042418
0.7492931,0.44140998,-0.6481742,-0.7005087,-8.515185,-6.9791307
0.72588545,0.42762053,-0.6279256,-0.6786251,-8.249174,-6.761106
0.70321417,0.4142648,-0.6083138,-0.6574298,-7.991531,-6.5499387
0.68125546,0.40132892,-0.5893185,-0.63690084,-7.7419863,-6.3454094
0.6599867,0.3887994,-0.57091993,-0.61701673,-7.500281,-6.147305
0.63938564,0.3766633,-0.55309904,-0.597757,-7.266165,-5.9554214
0.6194311,0.36490804,-0.5358374,-0.5791016,-7.0393953,-5.769559
0.60010237,0.35352147,-0.5191172,-0.5610314,-6.819739,-5.589526
0.5813797,0.3424919,-0.50292116,-0.54352766,-6.6069684,-5.4151373
0.56324375,0.33180794,-0.48723269,-0.52657247,-6.400866,-5.246214
0.5456758,0.32145867,-0.47203562,-0.5101484,-6.2012196,-5.0825815
0.52865803,0.31143346,-0.45731443,-0.4942386,-6.0078244,-4.9240727
0.51217294,0.30172205,-0.44305402,-0.47882676,-5.8204827,-4.7705255
0.49620363,0.2923145,-0.4292398,-0.46389717,-5.639003,-4.6217833
0.48073384,0.28320122,-0.4158577,-0.44943458,-5.4631996,-4.477693
0.4657478,0.27437294,-0.40289408,-0.43542427,-5.292894,-4.338109
0.45123026,0.26582062,-0.3903357,-0.42185193,-5.1279125,-4.2028885
0.43716645,0.2575356,-0.37816983,-0.40870377,-4.968087,-4.071894
0.42354208,0.24950945,-0.3663841,-0.39596644,-4.813256,-3.9449925
0.41034332,0.24173403,-0.35496652,-0.383627,-4.663261,-3.8220553
0.39755675,0.23420145,-0.34390557,-0.37167293,-4.517951,-3.7029579
0.38516948,0.22690406,-0.33318996,-0.36009216,-4.377178,-3.587579
0.3731689,0.2198345,-0.3228089,-0.3488729,-4.2408004,-3.4758022
0.3615429,0.21298562,-0.31275186,-0.33800384,-4.1086793,-3.3675144
0.35027975,0.20635048,-0.30300868,-0.327474,-3.9806812,-3.2626061
0.33936802,0.19992235,-0.29356954,-0.31727272,-3.8566773,-3.1609714
0.32879674,0.19369479,-0.28442487,-0.3073897,-3.7365422,-3.0625074
0.3185552,0.18766148,-0.27556548,-0.29781497,-3.6201544,-2.967115
0.30863312,0.18181637,-0.26698238,-0.28853887,-3.507397,-2.8746977
0.29902047,0.17615353,-0.25866696,-0.27955207,-3.398156,-2.7851624
0.28970757,0.17066728,-0.25061086,-0.2708455,-3.2923212,-2.6984193
0.280685,0.16535208,-0.24280593,-0.2624104,-3.1897864,-2.6143808
0.27194375,0.1602026,-0.23524432,-0.25423825,-3.0904481,-2.5329623
0.26347497,0.15521362,-0.22791843,-0.24632086,-2.9942067,-2.4540818
0.25527018,0.15038016,-0.22082089,-0.23865026,-2.900965,-2.3776598
0.24732111,0.14569734,-0.21394455,-0.23121873,-2.8106294,-2.3036199
0.23961978,0.14116046,-0.20728253,-0.2240188,-2.723109,-2.2318873
0.23215842,0.13676497,-0.2008281,-0.21704324,-2.638316,-2.1623902
0.22492957,0.13250645,-0.1945748,-0.21028502,-2.5561652,-2.0950587
0.21792595,0.1283806,-0.18851635,-0.20373741,-2.4765742,-2.029825
0.21114054,0.1243833,-0.18264665,-0.19739377,-2.3994627,-1.9666237
0.20456654,0.12051054,-0.17695981,-0.19124778,-2.3247538,-1.9053915
0.19819732,0.11675843,-0.17145014,-0.18529324,-2.2523723,-1.8460668
0.19202653,0.11312319,-0.16611211,-0.17952421,-2.1822455,-1.7885902
0.18604794,0.1096012,-0.16094035,-0.17393488,-2.114303,-1.732904
0.18025558,0.10618891,-0.15592967,-0.16851965,-2.048477,-1.6789522
0.17464364,0.1028829,-0.15107508,-0.16327307,-1.9847013,-1.626681
0.16920647,0.09967986,-0.14637168,-0.15818991,-1.9229118,-1.5760378
0.16393866,0.09657658,-0.14181475,-0.15326506,-1.8630468,-1.5269717
0.15883489,0.09356994,-0.13739976,-0.1484936,-1.8050461,-1.4794338
0.15389007,0.090656936,-0.13312225,-0.14387073,-1.7488518,-1.4333764
0.14909925,0.087834656,-0.12897795,-0.13939181,-1.6944073,-1.3887532
0.14445761,0.085100256,-0.124962725,-0.13505237,-1.6416584,-1.3455197
0.13996051,0.082451,-0.121072516,-0.13084807,-1.5905521,-1.3036324
0.13560344,0.079884246,-0.117303446,-0.12677468,-1.5410371,-1.2630494
0.13138205,0.07739742,-0.11365174,-0.122828126,-1.4930639,-1.2237302
0.1272921,0.07498802,-0.11011374,-0.119004466,-1.4465846,-1.1856352
0.1233295,0.072653644,-0.1066859,-0.11529986,-1.4015524,-1.1487263
0.11949027,0.07039195,-0.10336479,-0.11171059,-1.3579223,-1.1129668
0.11577059,0.06820068,-0.10014708,-0.10823309,-1.3156508,-1.0783205
0.11216672,0.06607763,-0.09702956,-0.10486385,-1.2746953,-1.0447531
0.10867505,0.06402068,-0.0940091,-0.10159952,-1.235015,-1.0122306
0.1052921,0.062027775,-0.091082685,-0.09843682,-1.19657,-0.9807208
0.10201446,0.060096916,-0.08824737,-0.09537258,-1.1593221,-0.950192
0.09883887,0.05822617,-0.08550034,-0.09240375,-1.1232338,-0.92061365
0.09576214,0.05641366,-0.082838826,-0.08952734,-1.088269,-0.8919561
0.09278121,0.054657586,-0.080260165,-0.08674048,-1.0543927,-0.8641908
0.089893065,0.05295618,-0.07776179,-0.08404038,-1.021571,-0.83728987
0.08709484,0.05130774,-0.075341195,-0.08142434,-0.98977125,-0.8112264
0.08438373,0.04971062,-0.07299595,-0.07888974,-0.95896137,-0.7859743
0.081757024,0.04816322,-0.07072373,-0.07643405,-0.9291107,-0.7615084
0.079212084,0.046663992,-0.06852223,-0.07405481,-0.9001893,-0.7378041
0.076746374,0.045211434,-0.06638927,-0.07174963,-0.8721682,-0.71483773
0.07435742,0.043804098,-0.06432271,-0.06951621,-0.8450194,-0.69258636
0.07204283,0.04244057,-0.062320486,-0.067352325,-0.81871575,-0.6710276
0.069800295,0.04111949,-0.06038059,-0.0652558,-0.79323095,-0.65014005
0.06762757,0.039839536,-0.05850108,-0.06322453,-0.7685395,-0.62990266
0.065522484,0.038599424,-0.056680076,-0.0612565,-0.7446167,-0.6102953
0.06348293,0.037397917,-0.054915763,-0.059349734,-0.7214385,-0.5912982
0.061506864,0.03623381,-0.05320637,-0.057502322,-0.69898194,-0.5728926
0.059592307,0.035105944,-0.05155019,-0.05571242,-0.6772244,-0.55505985
0.05773735,0.034013186,-0.049945563,-0.053978235,-0.65614414,-0.53778225
