ax,ay,az,gx,gy,gz
-1.7354704,-1.2263747,-3.4454858,5.9927816,-79.901634,-2.5527506
-1.2959437,-1.5268469,-3.178433,0.025613293,-81.672356,-1.0458044
-1.0115759,-1.8452148,-3.4426427,-9.095297,-85.95032,1.619605
-0.61044,-2.3318398,-3.594511,-8.303026,-85.55879,2.986218
-0.40969113,-2.9121537,-4.155159,-0.93238926,-87.72902,1.8309374
-0.30151182,-3.4359038,-4.7631426,5.8378673,-93.86671,0.18448871
-0.18468788,-3.9214756,-5.3024883,10.710595,-101.91685,-0.5561928
0.053158015,-4.389646,-5.624131,13.943646,-109.856804,0.38041767
0.4495517,-4.86131,-5.721814,16.163748,-115.70384,4.5164957
0.9526342,-5.3780675,-5.688827,21.661219,-118.37939,9.3228
1.3583225,-5.688295,-5.7469535,30.594265,-120.835754,12.130964
1.7347841,-5.8536835,-5.71689,39.894993,-123.881546,15.1400385
2.242896,-5.9422126,-5.4289412,45.57262,-126.58897,21.285353
2.8935616,-5.996925,-4.869051,49.546864,-125.337875,31.788713
3.5076494,-5.9298406,-4.1905875,55.139908,-120.666855,41.195908
3.9302053,-5.7088847,-3.5401587,62.055103,-114.04389,49.29708
4.225847,-5.204118,-2.8666286,67.423225,-106.94412,56.648384
4.474881,-4.4747496,-2.10259,69.36464,-99.86034,64.3827
4.6888633,-3.6834512,-1.2953867,67.53373,-91.865814,72.09023
4.8528266,-2.8920417,-0.47407946,64.283806,-82.62438,78.53191
4.9803486,-2.0683377,0.2898736,61.239468,-72.756645,83.298416
5.0665793,-1.222752,0.9805433,57.988617,-62.576534,86.02312
5.09403,-0.40168804,1.5755252,54.45606,-51.877647,87.20238
5.040951,0.3791584,2.0312173,50.067566,-40.72208,86.935455
4.9029737,1.1289403,2.3185854,44.554474,-29.789667,86.00611
4.742049,1.8177344,2.4920368,37.97736,-19.20962,84.32698
4.582606,2.4202094,2.5670505,31.488169,-9.017159,81.8409
4.442213,2.942634,2.539151,26.025816,0.5645591,78.10545
4.2974663,3.399084,2.4112446,21.099098,9.158797,72.689156
4.1502385,3.799092,2.1731603,16.112879,16.597975,66.55599
4.0110745,4.091229,1.8693339,11.459296,23.152632,59.704597
3.8772857,4.27192,1.4977069,6.8158445,28.821571,52.626217
3.7516093,4.3638906,1.0760208,2.373437,33.462105,45.700714
3.631875,4.3908477,0.6251957,-1.8688054,36.58568,39.10185
3.5363455,4.3465037,0.15101068,-5.9347777,38.310284,32.91382
3.4644642,4.226385,-0.30444685,-9.2123995,39.241642,27.05368
3.4085453,4.0565863,-0.7475567,-11.6503,39.666553,21.431929
3.341443,3.8574116,-1.1892297,-13.377263,39.390804,16.269768
3.2570617,3.652452,-1.6189909,-14.330951,37.950954,11.899651
3.1888645,3.4882917,-2.009477,-15.35355,35.81336,8.159244
3.1527722,3.319382,-2.3526893,-16.174385,33.420662,4.8385973
3.1237967,3.1103835,-2.670123,-16.329836,30.800903,1.7662569
3.089133,2.8764212,-2.9655151,-15.8772,28.006182,-0.9922059
3.0436294,2.6188617,-3.2355978,-14.714433,24.878569,-3.1960716
2.9734304,2.3692749,-3.4799185,-13.464534,21.373766,-4.7462254
2.895541,2.1597233,-3.6997144,-12.57669,17.360508,-5.8178
2.8127875,1.9779719,-3.8952572,-11.717047,12.861818,-6.8788967
2.7376482,1.8095361,-4.0546303,-10.603428,7.974348,-7.758743
2.6885302,1.6817662,-4.1710753,-9.569774,2.7768521,-8.099764
2.6590154,1.5890453,-4.249019,-8.70108,-2.5051963,-8.145882
2.6371257,1.4952482,-4.2927628,-7.683019,-7.740002,-8.132564
2.6187968,1.401871,-4.299181,-6.4869776,-12.9967165,-8.099285
2.621944,1.3332903,-4.2541757,-5.566811,-18.536837,-8.036704
2.66542,1.2779648,-4.099931,-6.043472,-24.12248,-7.3998995
2.7356367,1.2093256,-3.7723005,-7.5235004,-29.140509,-6.770577
2.810232,1.0752962,-3.3364081,-8.628799,-32.986835,-6.3014097
2.8728013,0.92773896,-2.8403828,-9.175984,-35.785736,-5.8332696
2.9279318,0.82470965,-2.295161,-9.435349,-37.715412,-5.2340417
2.993763,0.74196726,-1.7183756,-9.783137,-38.41544,-4.183683
3.0854633,0.6490707,-1.1418246,-9.768638,-37.74068,-3.1408422
3.1445658,0.55431753,-0.64387697,-9.264979,-35.91603,-2.2339094
3.1532302,0.47279507,-0.24707586,-8.347871,-33.54625,-1.4002265
3.123684,0.41252825,0.055360243,-6.987279,-30.88209,-0.77308464
3.057981,0.37391528,0.2634184,-6.6478386,-28.056072,-0.3407882
2.9595926,0.36188483,0.2549431,-6.433949,-27.153387,-0.32982355
2.8645627,0.35026506,0.24675712,-6.2273607,-26.281517,-0.31923324
2.7727592,0.33903974,0.23884904,-6.0277863,-25.439247,-0.30900243
2.6840565,0.3281936,0.23120807,-5.834953,-24.625425,-0.2991172
2.5983355,0.31771204,0.22382395,-5.648601,-23.838959,-0.28956425
2.5154827,0.3075812,0.2166869,-5.468485,-23.07881,-0.28033096
2.4353902,0.29778787,0.20978764,-5.294369,-22.343985,-0.27140528
2.3579555,0.28831953,0.20311731,-5.126032,-21.633545,-0.26277578
2.2830806,0.27916417,0.19666748,-4.9632587,-20.946589,-0.25443155
2.2106717,0.27031037,0.19043009,-4.8058467,-20.282259,-0.24636215
2.1406398,0.26174718,0.18439746,-4.6536026,-19.639736,-0.23855764
2.0728996,0.25346422,0.17856222,-4.5063396,-19.01824,-0.23100851
2.007369,0.2454515,0.17291735,-4.363881,-18.417019,-0.22370566
1.9439707,0.23769943,0.16745612,-4.2260575,-17.835356,-0.2166404
1.8826292,0.23019889,0.1621721,-4.0927052,-17.272566,-0.20980437
1.8232731,0.2229411,0.15705907,-3.963669,-16.727991,-0.20318958
1.7658334,0.21591766,0.15211116,-3.8387992,-16.200998,-0.19678839
1.7102443,0.2091205,0.14732264,-3.7179525,-15.690986,-0.19059342
1.6564425,0.20254187,0.14268808,-3.600991,-15.19737,-0.18459763
1.604367,0.19617432,0.13820224,-3.4877827,-14.719593,-0.17879422
1.5539595,0.19001074,0.13386007,-3.3782,-14.257119,-0.17317669
1.5051637,0.18404421,0.12965673,-3.2721214,-13.809431,-0.16773878
1.4579254,0.17826815,0.12558757,-3.1694288,-13.376035,-0.16247444
1.4121928,0.17267619,0.1216481,-3.0700092,-12.956451,-0.1573779
1.3679157,0.1672622,0.117834024,-2.973754,-12.550223,-0.15244357
1.3250461,0.1620203,0.114141166,-2.8805583,-12.156905,-0.14766607
1.2835371,0.15694478,0.110565536,-2.7903206,-11.776073,-0.14304022
1.2433443,0.1520302,0.10710327,-2.7029443,-11.407316,-0.13856104
1.2044244,0.14727126,0.10375066,-2.618335,-11.050238,-0.13422373
1.1667358,0.14266287,0.100504115,-2.5364027,-10.704455,-0.13002363
1.1302384,0.13820013,0.09736019,-2.4570599,-10.369602,-0.12595627
1.0948933,0.13387832,0.09431552,-2.3802223,-10.045323,-0.12201735
1.0606635,0.12969287,0.09136692,-2.3058088,-9.731274,-0.118202694
1.0275127,0.12563933,0.08851126,-2.2337413,-9.427125,-0.114508286
0.99540603,0.12171348,0.08574555,-2.1639435,-9.132556,-0.11093025
0.96430993,0.117911205,0.083066896,-2.0963428,-8.847259,-0.107464835
0.934192,0.114228524,0.0804725,-2.0308685,-8.570935,-0.10410842
0.9050208,0.11066161,0.07795965,-1.9674523,-8.303298,-0.10085752
0.87676597,0.10720675,0.075525746,-1.9060284,-8.044068,-0.09770875
0.8493983,0.10386036,0.07316826,-1.846533,-7.7929783,-0.09465883
0.8228895,0.10061899,0.07088476,-1.7889047,-7.5497675,-0.09170463
0.7972121,0.097479284,0.06867287,-1.7330838,-7.3141856,-0.088843085
0.77233976,0.09443802,0.06653034,-1.679013,-7.085989,-0.08607125
0.74824685,0.09149204,0.06445494,-1.6266367,-6.8649435,-0.08338629
0.7249086,0.08863836,0.062444557,-1.575901,-6.650822,-0.08078542
0.70230114,0.08587403,0.060497124,-1.526754,-6.443405,-0.078265995
0.6804013,0.08319622,0.058610644,-1.4791453,-6.2424808,-0.07582543
0.6591867,0.0806022,0.05678319,-1.4330262,-6.0478435,-0.073461235
0.63863575,0.07808933,0.055012904,-1.3883498,-5.859294,-0.071170986
0.6187274,0.07565503,0.053297974,-1.3450705,-5.676641,-0.06895235
0.5994414,0.07329683,0.051636655,-1.3031441,-5.4996977,-0.06680308
0.5807582,0.07101234,0.05002726,-1.2625281,-5.3282847,-0.06472098
0.5626588,0.06879923,0.04846815,-1.2231811,-5.1622276,-0.062703945
0.5451247,0.06665525,0.046957742,-1.1850634,-5.001358,-0.060749907
0.5281383,0.06457823,0.04549451,-1.148136,-4.845513,-0.058856905
0.5116823,0.062566064,0.044076968,-1.1123618,-4.694534,-0.057023007
0.49574,0.060616717,0.04270368,-1.0777044,-4.548268,-0.055246364
0.48029536,0.058728218,0.041373257,-1.0441288,-4.4065676,-0.05352518
0.4653327,0.056898654,0.040084355,-1.011601,-4.26929,-0.051857706
0.4508369,0.05512618,0.03883567,-0.9800882,-4.1362953,-0.050242264
0.4367934,0.053409006,0.037625942,-0.9495585,-4.00745,-0.04867722
0.4231879,0.051745396,0.03645395,-0.9199812,-3.882624,-0.047160998
0.41000682,0.05013367,0.035318512,-0.89132637,-3.7616913,-0.045692068
0.3972368,0.048572212,0.034218486,-0.8635652,-3.64453,-0.044268947
0.38486496,0.047059447,0.03315276,-0.8366697,-3.531022,-0.042890202
0.37287885,0.045593843,0.032120265,-0.81061274,-3.4210532,-0.041554447
0.36126643,0.044173934,0.031119956,-0.7853682,-3.3145127,-0.040260334
0.35001603,0.042798284,0.030150829,-0.7609106,-3.2112935,-0.03900656
0.33911628,0.041465517,0.02921191,-0.7372153,-3.1112916,-0.03779187
0.32855624,0.040174287,0.028302256,-0.7142585,-3.0144064,-0.036615036
0.3183253,0.038923297,0.027420951,-0.69201714,-2.9205406,-0.035474878
0.3084132,0.037711293,0.026567109,-0.6704689,-2.8296,-0.03437025
0.29880998,0.036537055,0.025739875,-0.64959216,-2.741493,-0.033300046
0.28950596,0.035399403,0.024938414,-0.62936586,-2.6561315,-0.032263186
0.2804918,0.034297198,0.024161924,-0.6097697,-2.5734293,-0.031258628
0.2717585,0.03322933,0.023409626,-0.59078413,-2.4933038,-0.03028537
0.26329726,0.03219473,0.022680763,-0.57238996,-2.4156744,-0.02934243
0.2550996,0.031192357,0.021974606,-0.5545688,-2.3404632,-0.028428864
0.24715728,0.030221209,0.021290446,-0.5373028,-2.2675948,-0.027543755
0.23946236,0.029280312,0.020627595,-0.52057457,-2.1969962,-0.026686216
0.23200712,0.028368719,0.01998539,-0.50436735,-2.1285965,-0.025855387
0.22478406,0.02748552,0.019363187,-0.48866495,-2.0623274,-0.025050433
0.21778597,0.026629828,0.018760363,-0.47345158,-1.9981219,-0.024270551
0.21100582,0.025800783,0.018176313,-0.45871204,-1.9359161,-0.023514958
0.20443684,0.024997558,0.017610451,-0.44443148,-1.8756475,-0.022782894
0.1980724,0.024219347,0.017062211,-0.43059567,-1.8172557,-0.022073628
0.19190618,0.023465369,0.016531045,-0.4171907,-1.7606825,-0.02138645
0.18593197,0.022734871,0.016016418,-0.40420318,-1.7058707,-0.02072067
0.18014377,0.022027118,0.015517816,-0.39162007,-1.6527659,-0.020075621
0.17453583,0.021341406,0.01503474,-0.37942874,-1.6013145,-0.019450659
0.16910249,0.020677043,0.014566705,-0.36761707,-1.5514653,-0.018845156
0.16383833,0.020033367,0.014113244,-0.35617316,-1.5031681,-0.018258506
0.15873808,0.019409733,0.013673902,-0.34508556,-1.4563749,-0.017690122
0.15379661,0.018805515,0.013248238,-0.33434317,-1.4110385,-0.017139437
0.14900902,0.01822011,0.012835828,-0.32393527,-1.3671137,-0.016605895
0.14437048,0.01765293,0.012436258,-0.3138514,-1.3245565,-0.016088966
0.13987635,0.017103411,0.012049128,-0.30408147,-1.2833241,-0.015588131
0.13552214,0.016571,0.011674051,-0.29461575,-1.2433757,-0.015102888
0.1313035,0.016055165,0.011310652,-0.2854447,-1.2046708,-0.014632753
0.12721619,0.015555387,0.010958566,-0.27655917,-1.167171,-0.014177254
0.12325613,0.01507117,0.0106174415,-0.2679503,-1.1308386,-0.013735937
0.11941936,0.014602028,0.010286937,-0.2596094,-1.0956373,-0.013308358
0.11570203,0.014147491,0.009966722,-0.2515282,-1.0615319,-0.012894091
0.11210043,0.013707104,0.009656475,-0.24369855,-1.0284883,-0.01249272
0.10861095,0.013280427,0.009355887,-0.23611267,-0.9964733,-0.012103845
0.1052301,0.0128670335,0.009064656,-0.22876294,-0.96545506,-0.011727076
0.1019545,0.012466508,0.008782491,-0.221642,-0.9354024,-0.011362035
0.09878086,0.012078452,0.008509111,-0.21474275,-0.9062852,-0.011008359
0.09570603,0.011702476,0.008244241,-0.20805827,-0.8780745,-0.010665692
0.092726916,0.011338204,0.007987616,-0.20158188,-0.85074204,-0.010333693
0.08984054,0.010985271,0.0077389795,-0.19530709,-0.82426035,-0.010012029
0.087044016,0.010643326,0.007498083,-0.18922764,-0.79860306,-0.0097003775
0.084334545,0.0103120245,0.007264686,-0.18333745,-0.7737445,-0.009398429
0.081709415,0.009991037,0.007038554,-0.1776306,-0.7496597,-0.009105879
0.07916601,0.009680041,0.0068194615,-0.17210141,-0.7263247,-0.0088224355
0.076701775,0.009378726,0.006607189,-0.16674434,-0.7037161,-0.0085478155
