ax,ay,az,gx,gy,gz
-2.8845718,-4.2154927,-8.979173,109.86463,-63.58785,-60.48055
-2.8280764,-4.5211496,-9.579915,106.403275,-89.99896,-48.879745
-2.6347983,-4.69755,-9.904724,97.856415,-108.43074,-45.371864
-2.4840462,-4.9040327,-10.123895,91.81569,-123.57387,-43.19972
-2.3328993,-5.237477,-10.094912,85.068016,-137.58394,-39.360756
-2.1075187,-5.7676272,-9.931256,82.06057,-146.73338,-34.856987
-1.9153339,-6.462049,-9.779358,86.05485,-152.91771,-29.611906
-1.63556,-7.2338815,-9.605141,94.929634,-156.68054,-25.192759
-1.193441,-7.859204,-9.441996,105.94071,-158.71133,-19.643137
-0.60927033,-8.432307,-9.220632,116.27612,-159.54868,-11.6233635
0.06839983,-8.867408,-8.95194,125.44162,-159.37764,-0.8950871
0.8074734,-9.04795,-8.661006,133.20699,-158.18272,10.981823
1.582805,-8.970112,-8.323024,141.60594,-156.5452,20.924717
2.3027697,-8.690456,-7.926336,149.78004,-153.54008,29.329084
2.953251,-8.232038,-7.4813576,158.41417,-148.97664,36.869198
3.552446,-7.519363,-6.982805,166.21114,-143.15065,44.496307
4.129166,-6.5337615,-6.420183,170.34329,-135.45374,52.443924
4.6746454,-5.280158,-5.773799,171.78767,-126.60715,59.39285
5.205828,-3.900114,-5.084084,170.37473,-116.13032,64.92281
5.722419,-2.5007646,-4.3768206,166.09673,-104.2823,69.40475
6.1760263,-1.1625102,-3.6947198,159.96257,-90.594185,72.00516
6.490246,0.06466427,-3.1243105,151.92747,-75.31064,72.18335
6.5899544,1.1145879,-2.7142088,142.3848,-59.98902,71.44239
6.55423,2.0354018,-2.4163494,129.9207,-44.422085,70.51865
6.424153,2.829807,-2.2490232,115.02495,-28.71313,70.31511
6.2334533,3.5025933,-2.2101636,99.82401,-13.433681,70.38821
6.015907,4.0350122,-2.2686014,87.232895,0.7612437,67.672295
5.808662,4.3425846,-2.3818798,76.69375,14.317192,62.42251
5.6207457,4.53372,-2.5360537,67.626915,27.208061,55.796978
5.450589,4.6681104,-2.7137735,58.541576,39.284626,49.091362
5.2942233,4.784316,-2.911539,49.150555,50.261086,42.670048
5.1366253,4.885578,-3.162406,39.551243,59.22025,36.423862
4.952105,4.8959203,-3.4810743,30.921297,65.907616,30.295784
4.7643394,4.8229074,-3.7817261,23.747972,70.407875,24.10672
4.617607,4.713862,-4.0436797,17.606308,74.01652,18.041182
4.5083647,4.604035,-4.287836,11.638119,76.596275,12.48892
4.428508,4.506263,-4.539588,5.9276567,77.65366,7.9120393
4.3286324,4.3573647,-4.825234,0.6560447,76.85011,4.0694246
4.2201133,4.15019,-5.102451,-4.102428,74.71619,0.84709716
4.112167,3.9393082,-5.360296,-8.297709,71.622574,-2.0718033
4.0078163,3.7516432,-5.5931234,-11.784904,67.917885,-4.8540697
3.9265392,3.6069522,-5.8111434,-14.812638,63.4542,-7.456117
3.8665304,3.409774,-6.0091357,-16.86869,59.007854,-9.784612
3.783485,3.1347432,-6.224034,-16.473919,54.40147,-12.1734915
3.6564147,2.8528547,-6.458574,-13.686273,49.14981,-14.714717
3.501103,2.6406422,-6.7038884,-10.099205,42.977226,-16.801563
3.3232732,2.4926846,-6.9508195,-7.405883,35.161114,-18.100794
3.1622012,2.3305352,-7.1627517,-6.193115,26.398079,-18.323599
3.0317152,2.1295307,-7.323652,-5.848792,17.122189,-17.671831
2.9386568,1.9100147,-7.4262586,-5.10212,7.4426436,-17.095425
2.9044352,1.7852232,-7.4508033,-4.0674973,-3.0722995,-16.984077
3.0170205,1.7946802,-7.303675,-4.8814545,-13.596524,-16.303442
3.328341,1.7988334,-6.8849607,-6.5922203,-22.154722,-14.629193
3.6163514,1.6769311,-6.38203,-8.100643,-28.93154,-12.987407
3.8592317,1.4674673,-5.8018975,-8.161875,-33.935852,-12.150755
4.096504,1.3002999,-5.155635,-7.5420465,-37.102238,-11.632937
4.291124,1.1598125,-4.506793,-7.0612254,-38.435158,-10.79481
4.4191303,0.98677796,-3.900371,-6.4337487,-38.769764,-9.574912
4.5178537,0.83510065,-3.3222392,-5.1148887,-37.979725,-8.221253
4.587499,0.7502126,-2.7743242,-3.2106862,-36.31917,-7.3331804
4.631529,0.72769547,-2.2662582,-1.0405549,-33.513737,-7.2159133
4.6735635,0.74118274,-1.8035482,0.30613163,-29.33336,-7.6999354
4.6974287,0.755106,-1.4129329,0.7913527,-24.3515,-8.35451
4.545965,0.7307584,-1.3673744,0.7658364,-23.56631,-8.085129
4.399702,0.7072468,-1.3233801,0.74119616,-22.808083,-7.824995
4.2584314,0.68453777,-1.2808876,0.71739703,-22.075735,-7.573742
4.1219573,0.6625997,-1.2398376,0.6944059,-21.368252,-7.3310184
3.9900928,0.6414026,-1.2001743,0.6721913,-20.684666,-7.0964932
3.8626606,0.62091804,-1.1618441,0.65072346,-20.024055,-6.8698516
3.7394924,0.60111886,-1.1247965,0.6299739,-19.385551,-6.6507936
3.6204278,0.5819794,-1.0889833,0.6099157,-18.76832,-6.4390335
3.505314,0.563475,-1.0543584,0.590523,-18.17157,-6.2343006
3.3940055,0.5455823,-1.0208781,0.57177144,-17.594545,-6.0363355
3.2863634,0.52827895,-0.98850054,0.55363744,-17.036528,-5.8448906
3.1822546,0.5115436,-0.9571858,0.5360988,-16.496828,-5.6597304
3.0815525,0.49535584,-0.9268958,0.519134,-15.974787,-5.480629
2.9841356,0.4796962,-0.8975939,0.5027227,-15.469778,-5.30737
2.889888,0.46454602,-0.86924535,0.48684525,-14.981198,-5.139748
2.7986984,0.4498874,-0.84181654,0.47148296,-14.508471,-4.977565
2.7104602,0.4357032,-0.81527543,0.4566179,-14.051043,-4.8206306
2.625071,0.42197698,-0.7895914,0.44223282,-13.608384,-4.668763
2.5424328,0.40869302,-0.76473475,0.42831117,-13.179988,-4.521789
2.4624515,0.3958361,-0.7406773,0.4148371,-12.765364,-4.37954
2.3850367,0.38339177,-0.7173918,0.4017954,-12.364045,-4.2418556
2.3101013,0.371346,-0.69485205,0.3891714,-11.975579,-4.1085806
2.237562,0.35968536,-0.67303306,0.37695104,-11.599534,-3.9795673
2.167338,0.34839696,-0.6519105,0.36512077,-11.235494,-3.8546722
2.0993524,0.33746836,-0.6314612,0.3536676,-10.883056,-3.733758
2.0335305,0.32688758,-0.61166275,0.3425789,-10.541835,-3.6166918
1.9698007,0.3166431,-0.59249353,0.33184266,-10.211459,-3.5033467
1.9080939,0.3067238,-0.5739329,0.32144722,-9.891571,-3.3935995
1.8483437,0.29711902,-0.55596066,0.31138137,-9.581825,-3.2873318
1.7904857,0.28781843,-0.53855765,0.30163434,-9.281889,-3.18443
1.7344582,0.27881205,-0.5217052,0.29219565,-8.991442,-3.0847833
1.6802015,0.27009037,-0.5053854,0.28305528,-8.710175,-2.9882863
1.627658,0.26164407,-0.48958093,0.27420354,-8.437789,-2.894836
1.5767722,0.25346422,-0.47427505,0.26563105,-8.173997,-2.8043342
1.5274905,0.24554224,-0.45945168,0.2573288,-7.91852,-2.7166853
1.479761,0.2378698,-0.4450952,0.24928807,-7.67109,-2.631797
1.4335339,0.23043884,-0.4311906,0.24150041,-7.4314485,-2.5495808
1.3887608,0.22324163,-0.4177234,0.23395771,-7.1993446,-2.4699507
1.3453952,0.21627066,-0.4046795,0.22665212,-6.974537,-2.3928237
1.3033918,0.20951867,-0.39204538,0.21957602,-6.7567916,-2.3181195
1.2627074,0.20297869,-0.37980795,0.21272211,-6.5458827,-2.245761
1.2232996,0.19664393,-0.36795455,0.20608327,-6.341593,-2.1756732
1.1851279,0.19050787,-0.35647294,0.19965267,-6.14371,-2.1077836
1.1481528,0.18456419,-0.34535128,0.19342367,-5.9520316,-2.0420225
1.1123365,0.17880677,-0.33457813,0.18738988,-5.76636,-1.9783223
1.0776422,0.17322968,-0.32414246,0.18154508,-5.586504,-1.9166173
1.0440341,0.16782723,-0.31403354,0.17588331,-5.4122796,-1.8568444
1.0114781,0.16259389,-0.30424106,0.17039874,-5.243509,-1.7989426
0.97994065,0.15752429,-0.29475495,0.16508579,-5.0800185,-1.7428523
0.94938976,0.15261327,-0.28556558,0.15993904,-4.9216423,-1.6885167
0.9197942,0.14785582,-0.2766636,0.15495321,-4.768219,-1.6358802
0.8911239,0.14324708,-0.26803988,0.15012325,-4.6195917,-1.5848892
0.8633496,0.13878241,-0.2596857,0.14544426,-4.47561,-1.5354918
0.8364431,0.13445723,-0.25159255,0.14091146,-4.3361263,-1.4876379
0.8103772,0.13026716,-0.2437522,0.13652027,-4.201,-1.4412789
0.7851253,0.12620795,-0.23615673,0.13226621,-4.0700946,-1.3963678
0.76066196,0.122275494,-0.22879843,0.12814498,-3.9432764,-1.3528589
0.7369623,0.1184658,-0.22166985,0.12415242,-3.8204174,-1.3107085
0.71400243,0.11477503,-0.21476378,0.12028448,-3.7013931,-1.2698736
0.6917591,0.11119944,-0.20807323,0.11653726,-3.5860834,-1.2303132
0.6702098,0.10773542,-0.20159146,0.112906955,-3.474372,-1.1919873
0.6493328,0.10437947,-0.1953119,0.10938991,-3.3661454,-1.1548569
0.6291071,0.101128206,-0.18922822,0.10598258,-3.261295,-1.1188849
0.6095122,0.09797835,-0.1833343,0.102681525,-3.159715,-1.0840348
0.59052837,0.09492672,-0.1776242,0.099483415,-3.061303,-1.0502715
0.5721365,0.09197026,-0.17209214,0.09638503,-2.9659593,-1.0175611
0.55431813,0.08910597,-0.16673256,0.09338325,-2.8735886,-0.98587054
0.53705525,0.08633098,-0.16154008,0.09047505,-2.7840977,-0.955168
0.5203304,0.08364249,-0.15650946,0.08765751,-2.6973963,-0.9254225
0.504127,0.081037804,-0.15163565,0.0849278,-2.6133976,-0.8966042
0.48842856,0.0785143,-0.14691374,0.08228316,-2.5320168,-0.8686841
0.47321936,0.076069444,-0.14233898,0.07972094,-2.4531722,-0.8416341
0.4584841,0.07370077,-0.13790679,0.07723857,-2.3767846,-0.81542706
0.44420803,0.0714059,-0.1336127,0.07483354,-2.3027773,-0.7900366
0.43037677,0.069182545,-0.1294524,0.072503455,-2.2310758,-0.7654373
0.41697642,0.067028455,-0.12542175,0.07024597,-2.1616085,-0.74160445
0.40399358,0.06494148,-0.12151665,0.06805881,-2.0943053,-0.718514
0.39141518,0.06291951,-0.11773321,0.06593979,-2.0290987,-0.69614303
0.3792286,0.06096054,-0.11406763,0.06388678,-1.9659234,-0.6744689
0.36742163,0.059062585,-0.11051623,0.061897717,-1.904716,-0.6534698
0.35598245,0.05722375,-0.10707545,0.059970614,-1.8454152,-0.6331249
0.34489954,0.055442184,-0.10374184,0.05810353,-1.7879614,-0.61341363
0.33416182,0.053716112,-0.10051206,0.0562946,-1.732297,-0.5943163
0.32375854,0.052043796,-0.097382866,0.05454201,-1.6783663,-0.5758138
0.31367925,0.05042356,-0.09435113,0.052844,-1.6261151,-0.55788743
0.30391383,0.04885378,-0.09141381,0.05119887,-1.5754912,-0.5405194
0.29445255,0.04733289,-0.088567965,0.049604975,-1.5264438,-0.52369225
0.2852859,0.045859363,-0.085810736,0.04806071,-1.4789238,-0.50738907
0.27640468,0.044431716,-0.08313937,0.046564534,-1.4328835,-0.49159357
0.2678,0.043048527,-0.08055118,0.04511495,-1.3882768,-0.47628993
0.25946328,0.041708406,-0.07804359,0.043710504,-1.3450592,-0.4614628
0.25138614,0.040410016,-0.07561407,0.042349786,-1.3031873,-0.4470974
0.24356048,0.039152052,-0.07326021,0.041031435,-1.262619,-0.43317923
0.2359785,0.037933256,-0.07097963,0.039754137,-1.2233139,-0.41969445
0.22863257,0.03675241,-0.068770066,0.038516607,-1.1852326,-0.40662953
0.22151537,0.03560833,-0.06662929,0.037317608,-1.1483371,-0.39397138
0.21461976,0.03449987,-0.064555176,0.036155935,-1.1125902,-0.38170734
0.20793884,0.033425916,-0.06254563,0.035030436,-1.0779562,-0.36982515
0.20146592,0.032385405,-0.060598645,0.033939973,-1.0444006,-0.35831288
0.19519453,0.031377286,-0.05871228,0.03288346,-1.0118896,-0.347159
0.18911837,0.03040055,-0.056884646,0.03185984,-0.9803908,-0.3363524
0.18323138,0.029454224,-0.055113908,0.03086809,-0.9498727,-0.32588223
0.17752768,0.02853736,-0.053398296,0.029907215,-0.9203046,-0.31573802
0.17200153,0.027649038,-0.051736094,0.028976252,-0.891657,-0.3059096
0.16664742,0.026788373,-0.05012564,0.028074272,-0.86390126,-0.2963872
0.16146,0.0259545,-0.04856532,0.027200371,-0.8370096,-0.2871612
0.15643406,0.025146585,-0.047053576,0.026353676,-0.8109551,-0.2782224
0.15156458,0.024363823,-0.045588892,0.025533339,-0.7857117,-0.26956192
0.14684668,0.023605429,-0.044169806,0.024738539,-0.76125413,-0.261171
0.14227566,0.022870641,-0.042794894,0.023968482,-0.73755795,-0.25304133
0.13784695,0.022158729,-0.041462786,0.023222396,-0.71459943,-0.2451647
0.13355608,0.021468978,-0.040172145,0.022499537,-0.6923556,-0.23753329
0.1293988,0.0208007,-0.03892168,0.021799179,-0.67080414,-0.23013943
0.12537092,0.020153224,-0.03771014,0.021120623,-0.6499236,-0.22297575
0.12146843,0.019525904,-0.036536317,0.020463191,-0.6296931,-0.21603507
0.11768743,0.018918112,-0.035399035,0.019826222,-0.61009234,-0.20931044
0.11402412,0.018329239,-0.034297153,0.019209083,-0.5911017,-0.20279513
