ax,ay,az,gx,gy,gz
-0.79182535,-1.6009237,-5.6245966,55.764145,-35.344868,-95.27087
-0.87052566,-2.1265032,-6.1117377,44.374607,-47.09127,-90.76546
-1.0190121,-2.6114125,-6.6712227,35.517727,-65.97668,-89.9351
-1.003831,-3.1036198,-7.0471926,28.7802,-84.19142,-87.940384
-1.0172813,-3.5109382,-7.4392056,28.183697,-99.324455,-85.040276
-1.0832653,-3.929307,-7.86084,32.11529,-115.49225,-81.67367
-0.9970201,-4.3738585,-8.054972,34.100014,-133.02626,-74.31127
-0.61738163,-4.815214,-8.034994,35.96615,-147.78717,-65.97772
-0.040709566,-5.2514,-7.8304935,37.679718,-158.13937,-56.275112
0.61326987,-5.630929,-7.573424,41.003986,-163.518,-45.810654
1.1121742,-6.055991,-7.445877,48.081528,-167.29779,-36.64732
1.4603902,-6.4865856,-7.4165955,58.946518,-171.99876,-28.38417
1.8508495,-6.659377,-7.330289,68.4106,-177.48361,-19.689148
2.461955,-6.704393,-6.9574547,75.48154,-179.95842,-7.8371363
3.1366715,-6.5568953,-6.4026785,82.54633,-177.98465,5.488956
3.7725658,-6.1464114,-5.767898,89.89018,-172.868,17.595821
4.3651104,-5.431919,-5.05312,95.45604,-163.44069,26.53973
4.880018,-4.423448,-4.196782,97.629684,-151.1561,33.297638
5.3108716,-3.324099,-3.3324146,96.88323,-137.03065,39.332928
5.6675205,-2.2011716,-2.4978287,93.4431,-122.17122,45.242428
5.956962,-1.1425852,-1.7300202,88.77617,-107.203735,50.01358
6.1621027,-0.20570445,-1.0661335,83.570526,-91.75187,51.900017
6.248204,0.5676318,-0.5356222,77.22886,-75.86492,52.886322
6.2240195,1.2385055,-0.12866257,69.308876,-59.771114,53.345974
6.110252,1.7772743,0.14273158,60.12794,-43.39846,53.551235
5.889873,2.2035968,0.22202994,52.468723,-27.35115,52.476944
5.599454,2.4827383,0.1680861,45.566124,-12.210771,50.13328
5.290321,2.6739378,-0.002072853,38.76453,1.4674587,47.889748
5.0115976,2.8000746,-0.20886254,31.483522,13.76567,46.058723
4.7694044,2.9393876,-0.4425953,23.37489,24.997957,44.38019
4.5587926,3.089335,-0.69139147,14.628892,35.036808,43.057846
4.356536,3.2284372,-1.0117614,10.97404,43.03096,40.245422
4.113229,3.2976155,-1.3906466,9.628623,49.14736,36.192112
3.904968,3.3141804,-1.7244542,9.391109,53.851074,31.949686
3.7397645,3.3363872,-2.033409,8.5476055,57.12616,28.0755
3.61887,3.354301,-2.3045454,7.2240787,59.471478,24.61498
3.525416,3.3696833,-2.5717397,4.8962984,60.781815,20.976131
3.428197,3.3269048,-2.8509893,1.8803321,61.361526,17.033058
3.3232787,3.26745,-3.1415555,-0.9340619,61.261513,13.351966
3.1658895,3.2339027,-3.471285,-3.2745233,59.295937,9.882061
2.9970303,3.1921973,-3.7879293,-5.6375747,55.5072,6.6183724
2.8742425,3.1439438,-4.059368,-7.8765173,50.440014,3.3836877
2.8101552,3.0620868,-4.2663846,-9.716902,45.54487,0.37671688
2.729098,2.932324,-4.485683,-9.916677,40.319736,-2.9087138
2.6357472,2.7871637,-4.710365,-9.022695,34.65089,-6.370246
2.5522866,2.649062,-4.9399447,-7.8268223,28.413738,-9.707861
2.499364,2.5183132,-5.1640244,-6.9204392,20.986534,-12.440115
2.5099838,2.3666375,-5.3039927,-6.718684,13.513531,-14.600841
2.5410442,2.1580262,-5.389093,-6.4833755,6.414551,-16.054972
2.5524008,1.9151673,-5.454288,-5.8186307,-0.88429815,-17.01091
2.564293,1.6985313,-5.45981,-4.9183607,-8.401123,-17.709372
2.60204,1.5090237,-5.36007,-4.486979,-16.007729,-17.752083
2.6935077,1.3136244,-5.106508,-4.3391194,-23.168196,-17.389446
2.8151324,1.0792346,-4.7353125,-3.715673,-29.23321,-16.675014
2.9506202,0.898118,-4.279631,-2.8525429,-34.225506,-15.82539
3.1084454,0.76868266,-3.7459779,-1.9889776,-37.97854,-14.924438
3.281923,0.6378175,-3.1770315,-0.82372534,-39.774345,-13.785412
3.4408083,0.5074531,-2.6159263,0.6774921,-40.17708,-12.2574625
3.5758703,0.44569287,-2.0808675,1.8637061,-39.353054,-10.088355
3.6777623,0.45159855,-1.581661,2.2224727,-37.43901,-7.7338834
3.7570918,0.45775074,-1.1084375,2.1601887,-34.406883,-5.515964
3.823115,0.4646271,-0.6798363,1.9853978,-30.045305,-3.9689178
3.6995587,0.4496112,-0.6578652,1.9212334,-29.074295,-3.8406496
3.5802708,0.43511397,-0.63665307,1.8592854,-28.136827,-3.7168121
3.465078,0.4211145,-0.6161692,1.7994642,-27.231544,-3.5972264
3.3538175,0.4075929,-0.5963846,1.741685,-26.357164,-3.4817228
3.2463343,0.39453036,-0.57727164,1.6858674,-25.51247,-3.3701406
3.1424816,0.381909,-0.5588043,1.6319352,-24.696306,-3.262327
3.0421197,0.36971194,-0.5409577,1.5798159,-23.907578,-3.1581376
2.945116,0.35792297,-0.5237082,1.5294405,-23.145239,-3.0574346
2.851344,0.3465268,-0.50703347,1.4807434,-22.408298,-2.9600863
2.760684,0.33550876,-0.49091202,1.4336623,-21.695814,-2.8659687
2.6730206,0.32485494,-0.4753235,1.3881375,-21.00688,-2.7749622
2.5882447,0.31455204,-0.4602484,1.3441122,-20.34064,-2.686953
2.5062516,0.30458733,-0.44566822,1.301532,-19.696268,-2.601833
2.4269416,0.2949487,-0.43156508,1.2603452,-19.07298,-2.5194983
2.350219,0.28562453,-0.41792208,1.220502,-18.47003,-2.4398499
2.2759924,0.27660367,-0.4047229,1.1819551,-17.886692,-2.3627923
2.204174,0.26787552,-0.39195198,1.1446588,-17.322283,-2.288235
2.13468,0.25942987,-0.3795944,1.1085696,-16.77614,-2.2160907
2.06743,0.25125688,-0.3676358,1.0736457,-16.247631,-2.146276
2.0023465,0.24334723,-0.3560625,1.0398469,-15.736151,-2.0787103
1.9393556,0.23569188,-0.34486127,1.0071349,-15.241114,-2.013317
1.8783859,0.22828217,-0.33401948,0.9754724,-14.761962,-1.9500222
1.819369,0.22110978,-0.32352492,0.9448241,-14.298156,-1.8887546
1.762239,0.21416672,-0.31336594,0.9151557,-13.84918,-1.8294458
1.7069327,0.2074453,-0.30353123,0.8864344,-13.4145355,-1.7720304
1.6533892,0.20093809,-0.29400998,0.85862845,-12.993745,-1.7164448
1.6015497,0.194638,-0.28479177,0.83170754,-12.586347,-1.6626284
1.5513581,0.18853815,-0.27586654,0.80564225,-12.191897,-1.6105225
1.5027596,0.18263192,-0.26722464,0.7804044,-11.80997,-1.5600706
1.4557021,0.17691296,-0.25885674,0.7559667,-11.44015,-1.5112184
1.4101348,0.17137513,-0.25075385,0.73230296,-11.082045,-1.4639133
1.3660091,0.1660125,-0.2429073,0.7093879,-10.735267,-1.4181049
1.3232781,0.16081935,-0.23530877,0.6871971,-10.39945,-1.3737442
1.2818964,0.15579018,-0.22795016,0.66570693,-10.074237,-1.3307843
1.2418202,0.15091968,-0.2208237,0.64489484,-9.759284,-1.2891797
1.2030073,0.14620271,-0.21392189,0.62473875,-9.45426,-1.2488866
1.165417,0.14163432,-0.20723748,0.6052176,-9.158842,-1.2098627
1.1290098,0.13720973,-0.20076348,0.5863108,-8.872725,-1.1720672
1.0937479,0.1329243,-0.1944931,0.56799877,-8.595606,-1.1354604
1.0595943,0.12877358,-0.18841983,0.55026233,-8.327198,-1.1000043
1.0265137,0.12475327,-0.18253735,0.53308314,-8.067223,-1.0656621
0.9944718,0.12085918,-0.17683958,0.5164433,-7.815409,-1.0323982
0.9634354,0.11708729,-0.1713206,0.5003257,-7.571499,-1.0001781
0.93337244,0.11343371,-0.16597472,0.48471355,-7.3352385,-0.96896863
0.904252,0.10989468,-0.16079645,0.46959087,-7.106385,-0.93873763
0.8760441,0.10646654,-0.15578045,0.45494214,-6.884703,-0.909454
0.84871984,0.10314579,-0.15092157,0.44075224,-6.6699657,-0.8810876
0.8222511,0.09992902,-0.14621484,0.42700666,-6.4619517,-0.85360944
0.7966109,0.09681294,-0.14165543,0.4136913,-6.260449,-0.8269914
0.7717729,0.09379436,-0.13723868,0.40079263,-6.0652514,-0.8012062
0.7477119,0.0908702,-0.13296008,0.3882974,-5.876159,-0.7762276
0.7244033,0.08803748,-0.1288153,0.37619293,-5.6929803,-0.75203
0.7018234,0.085293315,-0.12480006,0.36446685,-5.515528,-0.728589
0.67994916,0.08263492,-0.12091034,0.35310724,-5.3436217,-0.7058805
0.6587584,0.08005959,-0.11714214,0.3421026,-5.177087,-0.68388164
0.6382296,0.0775647,-0.11349166,0.3314417,-5.0157537,-0.66256994
0.618342,0.07514774,-0.10995519,0.32111377,-4.85946,-0.64192384
0.5990754,0.07280625,-0.10652915,0.31110832,-4.7080464,-0.62192243
0.58041024,0.07053785,-0.10321006,0.30141526,-4.5613594,-0.60254544
0.5623277,0.068340264,-0.09999458,0.29202473,-4.4192514,-0.58377326
0.54480946,0.06621125,-0.09687944,0.28292727,-4.2815785,-0.565587
0.5278379,0.06414868,-0.093861505,0.27411368,-4.148201,-0.54796815
0.51139575,0.062150452,-0.090937726,0.26557508,-4.018985,-0.530899
0.49546656,0.06021456,-0.08810516,0.25730282,-3.8937995,-0.5143623
0.48003417,0.05833905,-0.08536093,0.24928856,-3.7725189,-0.49834132
0.46508306,0.056522023,-0.08270229,0.24152423,-3.6550202,-0.48282003
0.45059818,0.05476166,-0.08012655,0.23400202,-3.5411856,-0.46778274
0.43656492,0.053056184,-0.077631116,0.22671436,-3.4309003,-0.4532143
0.42296916,0.051403876,-0.07521348,0.21965389,-3.324053,-0.43910003
0.40979722,0.04980308,-0.07287121,0.21281351,-3.2205367,-0.42542574
0.39703584,0.048252173,-0.07060195,0.20618634,-3.120247,-0.41217768
0.3846722,0.046749607,-0.068403415,0.19976573,-3.023083,-0.39934254
0.37269387,0.04529387,-0.0662734,0.19354522,-2.928947,-0.38690737
0.36108884,0.043883495,-0.06420976,0.18751855,-2.8377447,-0.37485975
0.3498454,0.04251707,-0.062210422,0.18167968,-2.7493842,-0.36318752
0.3389523,0.04119322,-0.06027338,0.17602272,-2.6637769,-0.35187897
0.3283986,0.039910614,-0.05839669,0.17054203,-2.5808365,-0.34092277
0.31817365,0.03866797,-0.05657847,0.16523209,-2.5004804,-0.3303079
0.30826727,0.037464038,-0.05481689,0.16008756,-2.4226277,-0.32002372
0.2986695,0.03629761,-0.053110186,0.1551033,-2.3472,-0.3100599
0.28937066,0.03516751,-0.051456645,0.15027428,-2.274122,-0.30040643
0.28036147,0.03407262,-0.04985461,0.14559568,-2.20332,-0.29105368
0.2716329,0.033011828,-0.04830247,0.14106281,-2.1347234,-0.28199223
0.2631762,0.031984072,-0.046798676,0.13667113,-2.0682635,-0.273213
0.25498286,0.030988328,-0.04534172,0.13241622,-2.003873,-0.26470718
0.2470447,0.030023595,-0.043930132,0.12829381,-1.9414884,-0.2564663
0.23935375,0.029088907,-0.042562507,0.124299794,-1.8810463,-0.24848203
0.2319023,0.028183326,-0.041237473,0.12043016,-1.8224865,-0.24074641
0.22468291,0.027305944,-0.0399537,0.11668102,-1.7657503,-0.23325169
0.21768832,0.026455885,-0.038709905,0.11304863,-1.7107809,-0.22599034
0.21091154,0.025632296,-0.03750484,0.10952935,-1.6575232,-0.21895511
0.20434576,0.024834352,-0.036337297,0.106119655,-1.6059237,-0.21213895
0.19798444,0.024061253,-0.03520611,0.10281613,-1.555931,-0.20553501
0.19182119,0.023312226,-0.034110144,0.09961546,-1.5074948,-0.1991367
0.18584983,0.02258652,-0.033048302,0.096514456,-1.4605669,-0.19293763
0.1800644,0.021883411,-0.032019522,0.093509994,-1.4151,-0.18693155
0.1744591,0.021202194,-0.031022772,0.09059908,-1.3710487,-0.18111248
0.16902831,0.020542186,-0.030057056,0.0877788,-1.328369,-0.17547458
0.16376662,0.019902725,-0.029121406,0.08504633,-1.2870181,-0.17001222
0.15866873,0.019283174,-0.028214889,0.08239892,-1.2469544,-0.16471991
0.15372956,0.018682912,-0.027336592,0.07983394,-1.2081382,-0.15959238
0.14894415,0.018101336,-0.026485639,0.07734881,-1.1705306,-0.15462448
0.14430775,0.017537868,-0.02566118,0.074941054,-1.1340935,-0.14981124
0.13981566,0.016991941,-0.024862386,0.072608255,-1.098791,-0.14514785
0.13546343,0.01646301,-0.024088461,0.070348084,-1.0645874,-0.14062962
0.13124669,0.015950546,-0.023338629,0.06815827,-1.0314486,-0.13625208
0.12716122,0.015454034,-0.02261214,0.06603663,-0.99934155,-0.13201079
0.123202935,0.014972979,-0.021908268,0.063981034,-0.968234,-0.12790155
0.119367875,0.014506901,-0.021226307,0.06198943,-0.9380948,-0.12392023
0.1156522,0.014055331,-0.020565577,0.06005983,-0.9088939,-0.12006286
0.1120522,0.013617819,-0.019925416,0.058190297,-0.88060194,-0.11632556
0.108564265,0.013193927,-0.01930518,0.05637896,-0.8531908,-0.112704605
0.105184905,0.01278323,-0.018704254,0.054624014,-0.8266329,-0.109196365
0.10191075,0.012385318,-0.018122036,0.052923698,-0.8009018,-0.10579734
0.098738514,0.011999793,-0.01755794,0.05127631,-0.7759716,-0.10250412
0.09566502,0.011626269,-0.017011404,0.049680203,-0.7518175,-0.09931342
0.09268721,0.011264373,-0.016481882,0.048133783,-0.7284153,-0.09622204
0.089802094,0.010913741,-0.015968842,0.0466355,-0.70574164,-0.093226895
