ax,ay,az,gx,gy,gz
0.843644,-7.8864355,-10.501004,19.920181,-127.17661,-27.854797
1.1120645,-8.812003,-10.7964115,12.319017,-152.37094,-8.06865
0.91361976,-9.709758,-11.230614,8.870508,-174.45354,0.5746324
0.63487697,-10.810717,-11.6840925,12.2572975,-201.56927,3.8556342
0.9675623,-11.952001,-11.723141,16.739285,-225.4559,11.308024
1.9422048,-12.871629,-11.237074,19.665926,-243.03244,30.910795
3.1579263,-13.425606,-10.330603,30.143972,-254.35864,50.96058
4.230115,-13.378908,-9.484546,50.409077,-259.47906,64.36828
5.251148,-12.912016,-8.523136,72.77956,-258.42023,73.89528
6.270756,-11.897893,-7.3277726,90.89524,-254.5531,86.38845
7.370774,-10.313622,-5.7306414,99.19448,-243.34,102.99859
8.454428,-8.415873,-3.9242988,103.50529,-227.67589,114.448555
9.339911,-6.662483,-2.2885594,107.71897,-207.53032,118.72932
10.0498085,-4.971052,-0.86340666,109.73108,-184.48619,119.36043
10.578833,-3.331419,0.35017276,108.15684,-159.57799,119.28879
10.842692,-1.8552709,1.2441956,102.13396,-133.21487,118.75622
10.753571,-0.6496192,1.68385,95.37625,-108.16259,117.135254
10.529687,0.3236483,1.8972138,88.33887,-84.28757,114.39475
10.254395,1.1383886,1.9587686,80.07766,-61.152615,110.93394
9.974103,1.8236456,1.8863151,71.19081,-38.190056,106.47505
9.675707,2.396747,1.6013422,65.5845,-16.544891,99.78941
9.188226,2.840769,1.0767235,61.65207,1.2940259,90.639
8.678558,3.171894,0.5245303,57.947727,15.284626,80.7687
8.277256,3.4515686,0.048608273,53.460407,27.013166,70.977554
7.996831,3.658037,-0.37294018,46.881344,37.36204,61.353176
7.7929473,3.7206612,-0.81879973,40.895374,46.747185,52.84026
7.513151,3.677225,-1.4203262,37.55619,52.98321,44.25002
7.1796103,3.5621505,-2.0168889,35.076458,56.117188,36.5449
6.8321013,3.4689107,-2.6011846,32.580284,56.18966,30.019215
6.5227404,3.4137957,-3.1404624,28.68343,53.70743,24.628208
6.280929,3.3332522,-3.613443,23.03653,49.354748,20.40806
6.1408396,3.1711366,-3.995821,18.60746,45.163578,16.093386
6.018583,2.9785516,-4.3683004,16.14801,40.93785,11.648516
5.8726854,2.8042448,-4.748658,15.165386,36.291977,7.0576606
5.712464,2.661516,-5.13046,14.67597,30.70845,2.8844075
5.5328526,2.5448833,-5.508247,14.284452,23.506472,-0.73574317
5.366856,2.4819136,-5.829841,13.46717,15.329487,-3.6581728
5.237818,2.4481702,-6.0526185,12.411867,6.5861435,-6.1263304
5.1278877,2.4296873,-6.175725,11.799848,-2.5640764,-8.737308
5.069167,2.4272852,-6.1656427,11.687523,-12.14514,-12.06679
5.0873,2.4417934,-5.958885,11.266577,-21.720299,-15.689354
5.2583942,2.41479,-5.4792576,8.848202,-30.561352,-18.480719
5.542077,2.2324462,-4.824804,5.4602594,-37.561523,-20.606003
5.882293,1.9061084,-4.0828266,2.4303794,-42.186867,-22.363493
6.193091,1.4856734,-3.343018,0.24105784,-44.46589,-23.740551
6.384108,1.0072134,-2.674464,-0.5414772,-44.254787,-24.188147
6.3759933,0.5466595,-2.1225033,-0.5522643,-42.961136,-23.641891
6.272208,0.15797375,-1.6315124,0.088394195,-41.08991,-21.91205
6.1521544,-0.13520294,-1.1668907,1.3318712,-38.977287,-19.158926
6.059251,-0.33730093,-0.7032501,3.2422597,-36.39555,-16.032322
5.988685,-0.48795056,-0.2536232,5.7266707,-32.440434,-13.183973
5.9431524,-0.5674601,0.15991239,8.34289,-27.230188,-10.498462
5.895509,-0.51843643,0.5227172,10.337668,-21.067997,-8.40031
5.8366165,-0.40745756,0.8450088,11.191632,-14.095937,-7.2803774
5.6432633,-0.39395943,0.81701565,10.82088,-13.628971,-7.0391955
5.457028,-0.38095823,0.790053,10.463777,-13.179196,-6.8068924
5.2775826,-0.36843106,0.76407343,10.119693,-12.745821,-6.5830593
5.104621,-0.35635653,0.73903257,9.788041,-12.328104,-6.3673134
4.9378557,-0.34471452,0.71488875,9.46827,-11.92535,-6.1592965
4.7770157,-0.3334862,0.6916028,9.1598625,-11.536908,-5.958671
4.6218476,-0.3226538,0.66913795,8.8623295,-11.162163,-5.7651196
4.4721107,-0.31220064,0.64745957,8.575212,-10.800536,-5.578344
4.3275805,-0.30211085,0.6265348,8.298077,-10.451483,-5.3980618
4.1880426,-0.29236963,0.6063329,8.030514,-10.114487,-5.2240076
4.053295,-0.28296286,0.5868246,7.772138,-9.78906,-5.0559287
3.9231474,-0.27387717,0.5679822,7.5225816,-9.474742,-4.8935876
3.7974184,-0.26509994,0.5497795,7.281498,-9.171096,-4.7367578
3.675936,-0.2566192,0.5321916,7.0485573,-8.877705,-4.585225
3.5585372,-0.24842352,0.5151949,6.8234463,-8.594176,-4.438786
3.4450665,-0.24050206,0.49876696,6.605868,-8.320135,-4.297247
3.3353763,-0.23284453,0.48288634,6.395539,-8.055223,-4.1604238
3.229326,-0.2254411,0.46753266,6.1921887,-7.799103,-4.0281405
3.1267812,-0.21828239,0.45268652,5.9955606,-7.551449,-3.9002302
3.027614,-0.21135947,0.4383294,5.805409,-7.311951,-3.7765326
2.9317024,-0.20466381,0.42444354,5.621499,-7.080316,-3.6568959
2.838929,-0.19818726,0.41101208,5.4436073,-6.8562603,-3.541174
2.7491822,-0.19192198,0.3980188,5.271519,-6.639514,-3.429227
2.6623552,-0.18586053,0.38544822,5.1050296,-6.429819,-3.3209224
2.5783453,-0.17999576,0.3732855,4.9439416,-6.2269278,-3.2161314
2.4970543,-0.17432079,0.36151645,4.7880673,-6.0306034,-3.1147323
2.4183881,-0.16882907,0.35012737,4.637226,-5.8406177,-3.016607
2.3422565,-0.16351426,0.33910525,4.491245,-5.656753,-2.921643
2.2685723,-0.15837033,0.32843748,4.3499565,-5.4787993,-2.8297324
2.1972528,-0.15339147,0.31811202,4.213202,-5.306556,-2.7407708
2.1282175,-0.14857207,0.30811727,4.0808277,-5.1398296,-2.6546588
2.0613892,-0.14390676,0.2984421,3.9526858,-4.978434,-2.5712998
1.9966944,-0.13939038,0.28907576,3.8286343,-4.8221908,-2.490602
1.9340616,-0.13501795,0.28000796,3.7085366,-4.6709266,-2.412476
1.8734221,-0.13078468,0.27122876,3.5922613,-4.5244775,-2.3368368
1.8147101,-0.12668595,0.26272857,3.4796817,-4.382683,-2.2636015
1.7578617,-0.122717336,0.25449824,3.370676,-4.245389,-2.192691
1.7028159,-0.11887455,0.24652885,3.2651262,-4.112448,-2.124029
1.6495134,-0.11515347,0.23881187,3.1629193,-3.983718,-2.0575411
1.597897,-0.11155011,0.23133901,3.0639458,-3.8590603,-1.993157
1.5479122,-0.108060636,0.22410235,2.9681005,-3.7383425,-1.9308078
1.4995058,-0.10468135,0.21709418,2.8752816,-3.6214366,-1.8704274
1.4526263,-0.101408675,0.21030712,2.785391,-3.5082188,-1.8119518
1.4072248,-0.09823916,0.20373401,2.6983342,-3.39857,-1.7553195
1.3632532,-0.09516949,0.19736794,2.6140194,-3.292375,-1.7004712
1.3206658,-0.092196435,0.19120225,2.5323586,-3.1895227,-1.6473491
1.2794179,-0.0893169,0.1852305,2.4532664,-3.0899055,-1.595898
1.2394665,-0.08652787,0.17944646,2.3766603,-2.9934196,-1.5460643
1.2007704,-0.08382647,0.17384413,2.302461,-2.8999648,-1.497796
1.1632892,-0.08120988,0.1684177,2.230591,-2.8094444,-1.4510434
1.1269841,-0.078675404,0.16316156,2.1609766,-2.7217646,-1.4057579
1.0918179,-0.07622042,0.15807028,2.0935457,-2.6368349,-1.3618927
1.057754,-0.07384241,0.15313862,2.0282288,-2.5545678,-1.3194028
1.0247576,-0.07153892,0.1483615,1.9649588,-2.4748788,-1.2782444
0.99279493,-0.06930758,0.14373404,1.9036707,-2.397686,-1.2383753
0.961833,-0.06714611,0.13925146,1.8443016,-2.3229103,-1.1997545
0.9318402,-0.06505229,0.13490918,1.7867908,-2.250475,-1.1623425
0.90278584,-0.063024,0.13070278,1.7310796,-2.1803062,-1.1261013
0.87464035,-0.061059143,0.12662795,1.6771109,-2.1123326,-1.0909936
0.847375,-0.059155732,0.122680545,1.62483,-2.0464842,-1.0569838
0.820962,-0.057311825,0.11885655,1.5741833,-1.9826945,-1.0240372
0.79537445,-0.05552555,0.11515206,1.5251197,-1.9208984,-0.9921204
0.7705865,-0.053795084,0.111563325,1.477589,-1.8610333,-0.9612008
0.7465728,-0.052118674,0.1080867,1.4315432,-1.8030382,-0.931247
0.72330916,-0.050494626,0.10471865,1.3869354,-1.7468544,-0.9022288
0.70077187,-0.048921287,0.10145576,1.3437206,-1.692425,-0.87411666
0.6789382,-0.047397066,0.09829475,1.3018547,-1.6396948,-0.84688216
0.6577861,-0.04592042,0.0952324,1.2612958,-1.5886105,-0.82049775
0.63729405,-0.04448986,0.09226562,1.2220026,-1.5391204,-0.7949367
0.6174414,-0.043103937,0.08939142,1.1839354,-1.4911747,-0.7701733
0.5982081,-0.041761253,0.08660688,1.147056,-1.4447247,-0.7461825
0.5795749,-0.040460452,0.083909206,1.1113269,-1.3997236,-0.72294
0.5615228,-0.039200224,0.08129567,1.0767123,-1.3561263,-0.70042247
0.54403365,-0.037979297,0.07876364,1.043177,-1.3138884,-0.67860717
0.52708983,-0.036796443,0.076310575,1.0106876,-1.2729678,-0.65747213
0.51067436,-0.03565047,0.07393398,0.9792111,-1.233323,-0.6369961
0.49477062,-0.03454022,0.07163149,0.9487159,-1.1949141,-0.61715835
0.47936267,-0.03346458,0.069400765,0.9191714,-1.1577024,-0.5979391
0.46443498,-0.03242247,0.067239575,0.89054775,-1.1216508,-0.5793188
0.44997254,-0.03141284,0.065145746,0.8628162,-1.0867227,-0.56127894
0.43596083,-0.030434674,0.06311717,0.83594894,-1.0528833,-0.54380125
0.42238575,-0.029486991,0.06115181,0.8099189,-1.0200983,-0.52686816
0.4092337,-0.028568838,0.05924769,0.7847,-0.9883349,-0.51046276
0.3964914,-0.027679292,0.0574029,0.76026684,-0.9575612,-0.49456856
0.38414612,-0.026817461,0.05561559,0.736595,-0.9277463,-0.47916952
0.37218547,-0.02598248,0.05388396,0.71366054,-0.8988603,-0.46425024
0.36059743,-0.025173511,0.05220627,0.69144064,-0.8708741,-0.44979572
0.34937036,-0.024389744,0.050580848,0.6699129,-0.8437598,-0.4357915
0.338493,-0.02363039,0.049006056,0.6490557,-0.81749,-0.4222235
0.32795447,-0.022894688,0.047480315,0.6288482,-0.7920385,-0.40907812
0.31774417,-0.022181902,0.046002097,0.6092701,-0.76737976,-0.3963422
0.30785188,-0.021491315,0.04456992,0.59030175,-0.743489,-0.38400292
0.29826766,-0.020822236,0.043182347,0.5719242,-0.72034234,-0.37204793
0.28898197,-0.020173997,0.04183799,0.554119,-0.69791657,-0.3604653
0.27998543,-0.019545943,0.0405355,0.5368682,-0.6761891,-0.34924334
0.27126905,-0.018937448,0.039273567,0.5201547,-0.6551384,-0.3383709
0.26282415,-0.018347902,0.03805093,0.5039617,-0.6347431,-0.327837
0.2546422,-0.017776717,0.03686637,0.48827288,-0.61498296,-0.31763113
0.246715,-0.017223315,0.035718698,0.47307262,-0.5958381,-0.30774304
0.23903465,-0.016687145,0.03460676,0.45834568,-0.57728946,-0.29816288
0.23159344,-0.01616767,0.03352944,0.44407728,-0.5593183,-0.288881
0.22438395,-0.01566437,0.03248567,0.43025315,-0.5419067,-0.27988815
0.21739893,-0.015176743,0.0314744,0.41685945,-0.5250373,-0.2711753
0.21063139,-0.014704297,0.030494614,0.4038828,-0.5086931,-0.2627337
0.20407455,-0.014246561,0.029545333,0.39131016,-0.49285775,-0.25455496
0.19772185,-0.013803076,0.02862561,0.37912896,-0.47751546,-0.24663085
0.19156694,-0.013373398,0.02773452,0.367327,-0.46265084,-0.23895344
0.18560366,-0.012957098,0.026871173,0.3558925,-0.44824898,-0.23151508
0.17982605,-0.012553759,0.026034705,0.34481397,-0.43429554,-0.22430828
0.1742283,-0.012162977,0.025224278,0.33408037,-0.42077646,-0.21732585
0.16880481,-0.011784361,0.024439082,0.32368094,-0.4076783,-0.21056081
0.16355018,-0.011417531,0.02367833,0.31360525,-0.3949879,-0.20400637
0.15845913,-0.011062123,0.022941263,0.30384323,-0.38269258,-0.19765599
0.15352657,-0.0107177785,0.022227142,0.2943851,-0.37078002,-0.19150332
0.14874758,-0.010384154,0.021535251,0.28522146,-0.35923833,-0.18554217
0.14411736,-0.010060915,0.020864902,0.27634305,-0.34805593,-0.1797666
0.13963127,-0.009747739,0.020215418,0.26774105,-0.33722165,-0.17417082
0.13528484,-0.009444312,0.019586155,0.25940683,-0.32672465,-0.16874924
0.13107371,-0.009150331,0.01897648,0.25133204,-0.3165544,-0.16349645
0.12699367,-0.008865501,0.018385785,0.24350864,-0.30670077,-0.15840717
0.123040654,-0.008589539,0.017813478,0.23592877,-0.29715386,-0.15347631
0.11921069,-0.008322166,0.017258985,0.22858487,-0.28790417,-0.14869896
0.11549995,-0.008063117,0.016721755,0.22146957,-0.2789424,-0.14407031
0.11190472,-0.007812132,0.016201248,0.21457577,-0.27025962,-0.13958576
0.10842141,-0.00756896,0.015696943,0.20789656,-0.2618471,-0.13524081
0.105046526,-0.007333358,0.015208337,0.20142527,-0.25369647,-0.13103111
