ax,ay,az,gx,gy,gz
0.74364316,0.2309112,1.953654,24.969318,-60.03691,-9.876453
1.3308204,-0.10257338,2.2516108,33.25445,-44.51795,-14.679977
2.3853688,-0.7639087,2.8305268,41.58132,-27.290958,-6.22758
2.9774683,-0.872136,3.3102207,36.31788,-5.952067,10.343346
3.0641913,-0.8275176,3.157461,31.970026,16.875084,25.704287
2.879473,-0.8401747,2.7062593,31.739826,32.415234,34.732872
2.928789,-1.0638033,2.4279041,37.341038,45.577366,38.408546
3.4302216,-1.5668677,2.4631026,42.74227,56.746864,44.481018
4.196375,-1.9184364,2.7747338,47.852417,73.052475,54.59693
4.931027,-1.9286809,3.0267887,50.14039,92.327965,65.20105
5.4561644,-1.7612815,2.9515352,56.115284,113.54203,74.70701
5.6535273,-1.4751426,2.6845005,59.904537,132.08684,81.448235
5.7833543,-1.2026455,2.5314226,61.29674,148.38477,85.87421
5.968158,-0.9944947,2.4351473,61.30457,164.2336,89.40262
6.168001,-0.78753537,2.325206,61.44514,180.57924,90.76282
6.300862,-0.5722195,2.0227432,62.234337,196.19893,90.87281
6.2997265,-0.2979145,1.5637004,61.02881,207.71483,91.60293
6.2185745,0.05053341,1.1646112,57.652393,216.28568,92.4404
6.053355,0.4052689,0.8028974,52.88933,222.00517,91.93506
5.8648896,0.79029083,0.5248085,48.250015,226.2432,89.445145
5.7114825,1.2019382,0.29966965,43.22704,230.15009,85.124214
5.528581,1.6039157,0.017432922,37.182945,232.36794,80.2031
5.2054267,1.994966,-0.36685297,31.40552,232.27254,75.18048
4.779614,2.415008,-0.7753003,26.227663,229.18002,68.21412
4.343424,2.7739816,-1.1530238,22.014803,223.11864,58.451733
3.981541,3.0659747,-1.4511528,19.443972,215.50323,46.636242
3.6842024,3.2905262,-1.6829456,17.252052,206.89629,34.78009
3.3816369,3.4893472,-1.9615678,13.638089,197.25266,24.056704
3.0526013,3.597509,-2.3063128,9.118659,185.77493,13.300863
2.7395895,3.5636396,-2.6722524,4.8879538,172.54298,2.3249876
2.5072274,3.3819673,-2.9769728,1.500547,158.53174,-7.8469706
2.379902,3.0636578,-3.1955965,-0.6341877,145.25168,-16.050951
2.3097496,2.533918,-3.3894327,-1.3953332,132.8483,-22.350647
2.263223,1.9187417,-3.5579476,-1.1744198,120.797585,-26.607111
2.2743602,1.2529227,-3.63962,-0.13327134,109.70181,-28.088707
2.366135,0.5902545,-3.6092556,1.389335,99.80569,-26.149855
2.5426846,-0.0041712807,-3.4515646,3.8784492,92.8751,-20.010572
2.6670687,-0.32126212,-3.219018,7.4674797,87.932976,-13.332227
2.6986616,-0.42328116,-2.9984045,11.56938,83.96631,-7.776031
2.6659474,-0.37017742,-2.7661242,15.429135,79.86047,-2.9968507
2.6400986,-0.15753523,-2.4608335,18.15871,75.81777,0.8131009
2.6250293,0.16342223,-2.1087294,18.89103,72.59236,3.034627
2.5927753,0.5234513,-1.7907623,18.692425,69.92201,3.912081
2.532224,0.87458783,-1.5347073,18.29576,67.505356,3.373675
2.453814,1.2224765,-1.3366123,17.298626,65.16822,1.593574
2.361907,1.5376763,-1.2066959,15.577616,62.914234,-1.3314842
2.2518044,1.8055314,-1.1427484,13.341961,60.378235,-5.4567804
2.1271384,1.9789573,-1.1621352,11.215942,57.42398,-10.419308
1.9944042,2.0883336,-1.2256143,9.249926,53.755596,-15.909482
1.8614169,2.1591487,-1.321645,7.1835494,49.093872,-21.37952
1.7449088,2.2034953,-1.4273247,4.2095594,43.56594,-26.504734
1.6317415,2.1880066,-1.5352148,0.28888714,37.828693,-31.334452
1.5155267,2.0695112,-1.6634578,-3.507199,32.289127,-35.929592
1.3980918,1.8817595,-1.802148,-6.1719,26.405582,-40.3581
1.2983414,1.6560025,-1.9293532,-7.5930796,20.168621,-44.504654
1.2381356,1.3816949,-2.011449,-8.142154,13.879261,-48.009113
1.2347113,1.0423162,-2.0395496,-7.2562394,8.401255,-49.77616
1.2836506,0.6723986,-2.0274384,-5.6802177,3.587241,-50.041126
1.3772602,0.29933238,-1.9763615,-3.510628,-0.38034892,-48.84499
1.4999535,-0.07344163,-1.8953086,-0.40817812,-3.3978171,-46.2977
1.6307611,-0.41036603,-1.7948959,3.3025713,-5.2759485,-42.856895
1.7490847,-0.68463176,-1.6841968,7.549773,-5.840607,-38.3066
1.8504642,-0.80554605,-1.5569215,11.343581,-5.853062,-33.26355
1.9480191,-0.85457134,-1.4155345,14.286042,-5.382912,-27.761019
2.0155845,-0.84863293,-1.2794523,16.522636,-4.785535,-21.58333
2.0507252,-0.7915868,-1.1629139,18.063595,-4.2947946,-14.846351
2.0808592,-0.6781822,-1.0439224,18.973259,-3.904809,-7.794303
2.1427338,-0.47692236,-0.9052129,19.563225,-2.948099,-1.4080703
2.210002,-0.24439049,-0.75190777,20.659653,-0.66490906,3.1533868
2.2597773,0.0075283493,-0.61380863,21.898438,2.8555913,5.804801
2.2667572,0.23245952,-0.51746756,23.152306,7.267387,6.902579
2.2082293,0.43517372,-0.5005692,23.504877,10.977763,7.5428286
2.0767279,0.6187393,-0.5557717,22.94842,13.509216,8.439065
1.9184449,0.7621012,-0.6296441,22.160595,14.764886,9.41225
1.7644392,0.8715173,-0.7060968,21.682858,15.142092,10.088589
1.618036,0.945993,-0.7792884,21.578085,14.85026,10.350717
1.5668852,0.9160874,-0.75465286,20.89594,14.3808,10.0235
1.5173985,0.88715476,-0.73081875,20.235987,13.926613,9.706929
1.4695174,0.8591608,-0.70775795,19.597445,13.487163,9.40063
1.423186,0.8320729,-0.6854435,18.97957,13.061934,9.104243
1.3783505,0.8058596,-0.6638496,18.381645,12.650437,8.817428
1.3349595,0.7804909,-0.64295137,17.802986,12.252196,8.539852
1.2929636,0.75593776,-0.62272507,17.24293,11.86676,8.2712
1.2523153,0.7321725,-0.60314775,16.700844,11.493691,8.011169
1.2129688,0.7091684,-0.58419746,16.17612,11.132571,7.7594666
1.1748804,0.6868998,-0.56585306,15.668175,10.782998,7.515812
1.1380079,0.6653421,-0.5480943,15.176443,10.444583,7.279935
1.1023105,0.64447147,-0.53090155,14.700384,10.116955,7.0515757
1.0677494,0.6242651,-0.51425594,14.239477,9.799754,6.830485
1.0342866,0.6047009,-0.49813944,13.79322,9.492635,6.616421
1.0018861,0.58575785,-0.48253453,13.361128,9.195265,6.4091525
0.970513,0.56741536,-0.4674244,12.942736,8.907323,6.2084556
0.9401334,0.54965377,-0.4527928,12.537594,8.628501,6.014115
0.9107149,0.53245413,-0.43862408,12.14527,8.3585,5.8259225
0.8822263,0.5157981,-0.4249032,11.765347,8.097032,5.6436777
0.85463715,0.49966797,-0.41161558,11.397419,7.84382,5.467188
0.82791847,0.48404673,-0.39874715,11.041099,7.5985975,5.296266
0.802042,0.46891794,-0.38628438,10.696012,7.3611045,5.130732
0.77698064,0.45426568,-0.37421417,10.3617935,7.131092,4.9704123
0.7527081,0.4400746,-0.36252388,10.038095,6.90832,4.815139
0.72919905,0.4263299,-0.3512013,9.724579,6.692555,4.664749
0.70642895,0.41301727,-0.34023464,9.4209175,6.483572,4.5190873
0.6843742,0.40012285,-0.3296125,9.126797,6.2811546,4.3780007
0.6630119,0.3876333,-0.31932387,8.841909,6.0850925,4.2413445
0.64232004,0.37553567,-0.3093581,8.565963,5.895183,4.108977
0.62227714,0.36381748,-0.2997049,8.298672,5.7112308,3.9807606
0.6028626,0.35246667,-0.29035437,8.03976,5.533045,3.8565643
0.58405644,0.34147158,-0.28129685,7.7889614,5.360443,3.7362597
0.5658394,0.3308209,-0.27252305,7.5460196,5.193248,3.6197238
0.5481928,0.3205037,-0.26402396,7.3106847,5.031288,3.5068367
0.53109854,0.31050944,-0.25579092,7.082716,4.8743978,3.397483
0.5145391,0.30082792,-0.24781547,6.8618803,4.7224164,3.2915514
0.49849772,0.29144922,-0.24008952,6.6479526,4.5751886,3.188933
0.48295793,0.2823638,-0.23260514,6.4407144,4.432565,3.0895236
0.46790394,0.2735624,-0.22535476,6.2399545,4.2944007,2.993222
0.45332044,0.2650361,-0.21833096,6.0454698,4.160554,2.8999302
0.43919262,0.25677618,-0.21152663,5.8570614,4.0308895,2.8095531
0.42550614,0.24877432,-0.20493487,5.6745386,3.9052756,2.7219996
0.4122471,0.24102236,-0.19854897,5.4977164,3.7835848,2.6371803
0.39940208,0.23351246,-0.19236247,5.3264155,3.6656938,2.5550096
0.38695806,0.226237,-0.1863691,5.160463,3.5514832,2.4754043
0.3749025,0.21918865,-0.18056282,4.9996896,3.4408376,2.3982837
0.36322314,0.21236025,-0.17493774,4.843934,3.333645,2.3235698
0.3519082,0.20574492,-0.16948819,4.6930385,3.2297974,2.2511873
0.34094632,0.19933599,-0.16420864,4.5468507,3.1291893,2.181063
0.33032635,0.19312698,-0.1590938,4.4052234,3.03172,2.1131263
0.3200376,0.18711162,-0.15413848,4.268013,2.9372904,2.0473082
0.31006974,0.18128385,-0.1493377,4.135082,2.845806,1.983543
0.3004127,0.17563781,-0.14468661,4.006296,2.757174,1.9217662
0.29105678,0.17016782,-0.14018054,3.8815253,2.6713054,1.8619153
0.2819925,0.16486835,-0.13581495,3.7606447,2.588114,1.8039305
0.2732108,0.15973409,-0.13158546,3.643532,2.5075161,1.7477531
0.26470283,0.15475985,-0.1274878,3.5300698,2.4294302,1.6933268
0.25646,0.14994065,-0.12351784,3.420144,2.3537781,1.640597
0.24847409,0.14527164,-0.11967161,3.313644,2.2804837,1.5895103
0.24073704,0.14074813,-0.11594524,3.2104628,2.2094734,1.5400157
0.23324107,0.13636558,-0.11233499,3.1104968,2.1406758,1.4920633
0.22597866,0.13211957,-0.108837225,3.0136454,2.0740216,1.445605
0.21894252,0.12800586,-0.10544844,2.9198117,2.0094442,1.4005942
0.2121256,0.12402031,-0.10216522,2.8289013,1.9468789,1.3569858
0.20552103,0.12015891,-0.09898429,2.740823,1.8862625,1.3147358
0.1991222,0.11641781,-0.09590246,2.6554885,1.8275344,1.273802
0.19292271,0.11279324,-0.092916615,2.572812,1.7706356,1.2341433
0.1869163,0.10928157,-0.09002377,2.492711,1.7155092,1.1957198
0.18109699,0.10587928,-0.08722104,2.4151046,1.6620998,1.1584932
0.17545892,0.10258295,-0.084505595,2.3399155,1.6103538,1.1224259
0.16999646,0.099389285,-0.08187473,2.2670681,1.5602195,1.087482
0.1647041,0.09629509,-0.079325795,2.1964896,1.5116465,1.0536263
0.15957657,0.09329724,-0.07685624,2.1281087,1.4645863,1.020825
0.1546087,0.09039276,-0.07446359,2.0618575,1.4189914,0.98904526
0.14979555,0.08757873,-0.07214545,1.9976695,1.3748165,0.95825505
0.14513227,0.084852315,-0.06989949,1.9354801,1.3320173,0.9284237
0.14061421,0.08221081,-0.067723475,1.8752273,1.2905507,0.89952123
0.13623682,0.07965155,-0.065615214,1.8168507,1.2503753,0.87151873
0.13199574,0.07717198,-0.06357259,1.7602918,1.2114508,0.8443882
0.12788671,0.074769616,-0.06159358,1.7054939,1.1737384,0.8181024
0.12390563,0.072442055,-0.059676185,1.6524022,1.1372001,0.792635
0.1200485,0.070186965,-0.05781849,1.6009636,1.1017995,0.7679606
0.11631145,0.06800208,-0.056018636,1.5511265,1.0675012,0.74405444
0.11269077,0.06588523,-0.054274816,1.5028411,1.0342706,0.7208926
0.109182805,0.06383428,-0.05258529,1.456059,1.0020747,0.6984518
0.10578406,0.061847184,-0.050948363,1.4107333,0.97088116,0.6767098
0.102491125,0.059921954,-0.049362402,1.3668189,0.94065875,0.6556446
0.099300705,0.058056664,-0.047825813,1.3242716,0.9113773,0.6352352
0.096209615,0.05624944,-0.046337064,1.2830489,0.8830074,0.61546123
0.09321476,0.054498482,-0.04489466,1.2431096,0.8555207,0.59630287
0.09031314,0.052802034,-0.043497164,1.2044137,0.8288898,0.57774097
0.087501846,0.0511584,-0.042143174,1.1669223,0.8030879,0.5597569
0.08477808,0.049565934,-0.040831335,1.1305982,0.7780892,0.5423327
0.0821391,0.04802304,-0.039560333,1.0954049,0.7538688,0.5254509
0.079582274,0.04652818,-0.0383289,1.0613071,0.7304024,0.50909466
0.077105045,0.045079853,-0.037135802,1.0282708,0.7076665,0.49324763
0.07470493,0.043676615,-0.035979845,0.99626297,0.68563837,0.4778939
0.07237953,0.04231706,-0.03485987,0.9652515,0.664296,0.46301812
0.07012652,0.040999826,-0.033774763,0.93520546,0.6436179,0.44860542
0.06794365,0.039723597,-0.032723434,0.9060947,0.6235836,0.4346414
0.065828726,0.0384871,-0.031704832,0.8778901,0.604173,0.42111206
0.06377964,0.03728909,-0.03071794,0.8505636,0.58536655,0.40800387
0.061794337,0.036128372,-0.029761767,0.8240877,0.5671456,0.39530373
0.05987084,0.03500379,-0.02883536,0.7984359,0.54949176,0.38299894
