ax,ay,az,gx,gy,gz
-1.5091046,0.77455246,-0.8963718,26.578423,-20.918373,8.822807
-1.7248943,0.78191274,-0.58553815,21.475737,-21.82777,5.433313
-1.8108906,0.7535023,-0.47064036,17.59266,-24.872713,1.2120186
-1.6194779,0.536235,-0.15737464,16.423542,-26.852299,-1.9386601
-1.146042,0.23213722,0.32314393,17.012596,-24.179506,-4.590939
-0.39255953,-0.32029077,0.93559825,21.11615,-14.652996,-4.800791
0.3341448,-0.7841129,1.325872,29.83648,-0.47889602,-1.1362981
0.63672954,-0.9778752,1.20261,33.9335,8.977056,3.1023169
0.8023623,-1.2665973,1.0722406,36.85695,15.021818,6.9736447
1.02532,-1.6406051,1.0531663,41.01745,19.417042,10.739938
1.3416799,-2.057116,1.1634021,46.215076,24.261103,15.567872
1.6771019,-2.3547652,1.3105171,51.609207,30.537008,23.786377
2.0854614,-2.17938,1.5829613,55.745857,38.339764,31.59696
2.4648457,-1.7491832,1.7953457,56.184143,46.907562,36.423332
2.7527268,-1.3951296,1.9542437,55.340458,55.54363,39.392994
2.9815385,-1.1212375,2.0527024,54.786373,64.66121,41.710567
3.167417,-0.8467406,2.081015,52.20328,73.80646,45.159008
3.3352485,-0.4374574,2.0889003,47.929317,82.82144,48.78428
3.497574,0.0379144,2.0448217,41.43733,91.6843,50.839386
3.6323774,0.4367353,1.9251702,34.048973,100.66599,52.0347
3.6956031,0.73777235,1.7067825,26.387993,109.090546,53.075882
3.69552,0.9835562,1.4547943,20.001448,117.156784,54.391617
3.5834146,1.2534024,1.1110317,14.992126,123.404236,54.73762
3.430205,1.5220858,0.80708826,11.316304,128.16441,53.839752
3.2840185,1.7782818,0.56434065,8.6457815,132.05174,51.846832
3.138183,2.044463,0.34372714,5.1905746,135.2304,49.2682
2.9792292,2.2671914,0.12981552,1.3896284,137.52896,46.101658
2.763478,2.4639153,-0.11865483,-1.3491186,138.79855,42.356983
2.5200171,2.6661038,-0.37339264,-3.6671138,138.69061,37.602257
2.278946,2.8581288,-0.60119444,-6.062536,137.80371,32.074085
2.0214717,3.0229547,-0.8549356,-9.383203,135.7492,26.013754
1.7398432,3.1059623,-1.137117,-12.488179,131.6363,19.501596
1.4567033,3.0992403,-1.4384279,-14.843868,126.07746,12.907567
1.2184768,3.0308645,-1.708685,-16.303251,119.550995,6.2564573
1.0329038,2.8819368,-1.9523103,-16.85765,112.59717,0.17539558
0.86997885,2.647066,-2.2064028,-16.176758,105.15282,-5.0829296
0.7178203,2.3531082,-2.4709928,-14.022861,96.46404,-9.703878
0.60406816,2.0221422,-2.7019863,-11.13117,86.82358,-13.930563
0.57025313,1.6733323,-2.8543093,-8.64031,76.76303,-17.3493
0.61712116,1.2861621,-2.9158015,-6.7554083,66.81213,-19.348412
0.7319973,0.86711204,-2.8828254,-4.9175587,57.677517,-19.631271
0.89610744,0.4693699,-2.7498937,-1.7329429,50.264244,-17.624384
1.0534562,0.21325423,-2.540983,2.5023832,44.04271,-14.950975
1.1852458,0.14041182,-2.262347,6.9994555,39.029877,-12.077177
1.3040303,0.21071428,-1.9307711,10.708734,34.841774,-9.520318
1.4283297,0.36484003,-1.5565573,13.325063,31.62248,-7.1003237
1.5660025,0.5801906,-1.1589488,14.518899,30.225534,-5.0940723
1.6774018,0.8512742,-0.83099455,14.236562,29.846182,-3.6340106
1.7422355,1.0997788,-0.60771066,13.601331,29.931513,-2.91288
1.762672,1.320437,-0.464779,13.026366,30.276272,-2.8327339
1.7495294,1.5271705,-0.39729813,12.657006,30.64055,-3.5379803
1.7100766,1.7166545,-0.38429973,12.119548,30.693794,-5.121493
1.6423911,1.869838,-0.42117122,11.402712,30.530909,-7.075061
1.544619,1.984633,-0.50013113,10.136245,29.986368,-9.089181
1.4094377,2.0485482,-0.61180013,8.892591,28.865614,-11.357988
1.2444823,2.0708063,-0.75064355,7.898174,26.980423,-13.839363
1.0641344,2.080283,-0.90928435,6.6730676,23.899538,-16.760113
0.86821383,2.073588,-1.0941795,4.926141,19.56577,-20.151411
0.70133096,2.0457017,-1.2579132,2.519961,14.336399,-23.909765
0.5768595,1.9673738,-1.3671979,0.046220623,8.907151,-27.70952
0.48428953,1.835711,-1.4542764,-1.6582944,3.298625,-31.45458
0.42612657,1.6611948,-1.5138142,-2.334227,-2.3548307,-35.066563
0.42272907,1.4138896,-1.5177953,-2.5211482,-7.438908,-38.04997
0.4765206,1.096291,-1.4699197,-1.8061676,-11.457821,-39.804615
0.57296234,0.71845895,-1.3907413,-0.70724946,-14.433466,-40.071384
0.70175314,0.32401615,-1.2841797,1.0420296,-16.341373,-38.63186
0.8413622,-0.01684699,-1.1695702,2.876681,-16.866116,-35.652905
0.95114297,-0.2825033,-1.0778024,5.0750017,-16.658491,-31.90762
1.0257436,-0.4622295,-1.0128167,8.273507,-16.15767,-27.845737
1.0764837,-0.56269777,-0.95810455,11.775627,-15.695001,-23.74656
1.1249285,-0.5915542,-0.88843584,15.590553,-15.206929,-19.66153
1.1871548,-0.5674355,-0.7930987,19.816458,-14.344984,-15.4636345
1.2635822,-0.42208263,-0.6802411,23.197187,-13.236318,-11.631262
1.3256308,-0.24130224,-0.5691344,25.67869,-11.852502,-8.254197
1.3653363,-0.044787772,-0.47273093,27.63982,-10.12354,-5.3534393
1.3786166,0.16846038,-0.40432322,29.001791,-8.0977125,-3.0343301
1.3607358,0.3864167,-0.3709614,29.435621,-6.0472784,-1.5337192
1.3158016,0.59049207,-0.36815172,28.852928,-4.1483803,-0.3286834
1.2599245,0.7661733,-0.37253305,27.89433,-2.193616,0.6427507
1.2202011,0.74201715,-0.36078772,27.014868,-2.1244547,0.6224858
1.1817604,0.7186409,-0.34942162,26.163803,-2.0575268,0.6028753
1.1445582,0.69601786,-0.3384217,25.340157,-1.9927552,0.5838965
1.1085521,0.67412215,-0.32777542,24.542992,-1.930066,0.565528
1.0737013,0.652929,-0.3174708,23.771406,-1.8693883,0.54774886
1.0399667,0.63241464,-0.3074962,23.024532,-1.810654,0.53053916
1.0073107,0.6125562,-0.2978405,22.30154,-1.7537978,0.5138797
0.97569716,0.5933317,-0.28849304,21.601627,-1.6987565,0.49775204
0.94509125,0.5747199,-0.27944353,20.92402,-1.6454694,0.48213843
0.91545945,0.55670047,-0.270682,20.267982,-1.5938783,0.46702176
0.8867694,0.5392538,-0.26219898,19.632793,-1.5439271,0.45238554
0.85899013,0.5223609,-0.25398523,19.017769,-1.4955614,0.4382139
0.8320916,0.5060036,-0.24603191,18.422245,-1.4487292,0.42449164
0.806045,0.4901644,-0.23833047,17.845581,-1.4033802,0.41120395
0.7808224,0.47482628,-0.23087269,17.28716,-1.3594658,0.39833665
0.75639695,0.45997295,-0.2236506,16.74639,-1.3169396,0.385876
0.7327428,0.4455886,-0.21665657,16.222694,-1.275756,0.37380883
0.70983493,0.43165806,-0.2098832,15.71552,-1.2358718,0.3621224
0.68764913,0.41816667,-0.20332333,15.224335,-1.1972449,0.3508043
0.6661622,0.40510023,-0.19697009,14.74862,-1.1598346,0.33984274
0.6453516,0.39244506,-0.19081683,14.28788,-1.1236018,0.3292262
0.62519556,0.38018796,-0.18485712,13.841631,-1.0885087,0.3189436
0.6056731,0.36831617,-0.17908473,13.40941,-1.0545188,0.30898422
0.5867639,0.3568173,-0.1734937,12.9907675,-1.0215967,0.29933771
0.5684485,0.3456795,-0.16807821,12.58527,-0.98970824,0.2899941
0.5507078,0.3348912,-0.16283268,12.192497,-0.9588205,0.28094366
0.5335236,0.32444128,-0.15775165,11.812043,-0.92890155,0.27217713
0.5168781,0.31431898,-0.15282993,11.443518,-0.8999206,0.26368544
0.50075424,0.3045139,-0.14806245,11.08654,-0.8718478,0.25545985
0.48513544,0.29501596,-0.1434443,10.740745,-0.84465444,0.24749191
0.4700057,0.2858154,-0.13897075,10.405777,-0.81831247,0.23977347
0.4553495,0.27690282,-0.13463724,10.081294,-0.79279506,0.23229662
0.44115195,0.26826912,-0.13043931,9.766964,-0.7680761,0.22505373
0.42739847,0.2599055,-0.1263727,9.462466,-0.7441304,0.21803738
0.41407508,0.2518034,-0.12243325,9.167491,-0.7209334,0.21124046
0.4011682,0.24395458,-0.11861696,8.881737,-0.69846165,0.204656
0.3886647,0.23635109,-0.11491994,8.604914,-0.6766922,0.19827735
0.3765519,0.22898516,-0.11133844,8.33674,-0.65560293,0.19209799
0.36481747,0.22184934,-0.10786882,8.076943,-0.6351725,0.18611167
0.35344952,0.21493636,-0.10450756,7.8252606,-0.6153801,0.18031232
0.34243655,0.20823926,-0.10125125,7.5814366,-0.5962058,0.17469405
0.3317674,0.20175123,-0.09809661,7.345225,-0.57763004,0.16925119
0.32143125,0.19546573,-0.09504043,7.1163864,-0.5596341,0.1639782
0.3114177,0.18937637,-0.09207963,6.894689,-0.5421998,0.15886979
0.3017166,0.18347703,-0.089211226,6.6799097,-0.5253095,0.15392075
0.29231814,0.17776173,-0.0864323,6.4718313,-0.5089462,0.14912614
0.28321287,0.17222473,-0.08374006,6.270243,-0.49309325,0.1444811
0.2743916,0.16686042,-0.0811318,6.074943,-0.4777348,0.13998091
0.26584542,0.1616634,-0.07860488,5.8857336,-0.4628553,0.13562109
0.25756574,0.15662843,-0.07615675,5.702424,-0.4484398,0.1313972
0.2495442,0.15175045,-0.07378495,5.52483,-0.43447375,0.12730502
0.24177276,0.14702456,-0.0714871,5.352772,-0.4209431,0.123340406
0.23424356,0.14244597,-0.06926087,5.186078,-0.40783426,0.119499385
0.22694905,0.1380101,-0.06710404,5.02458,-0.39513403,0.11577809
0.21988189,0.13371249,-0.06501443,4.8681154,-0.3828296,0.112172775
0.21303497,0.1295488,-0.06298994,4.716527,-0.37090865,0.10867982
0.20640144,0.12551488,-0.061028544,4.5696626,-0.3593592,0.10529572
0.1999746,0.12160665,-0.059128262,4.427374,-0.34816962,0.10201707
0.193748,0.11782019,-0.05728719,4.2895193,-0.3373287,0.098840564
0.1877154,0.11415171,-0.05550348,4.1559596,-0.32682553,0.095763035
0.18187076,0.11059751,-0.05377534,4.026561,-0.3166496,0.09278139
0.17620818,0.10715404,-0.052101035,3.9011931,-0.30679065,0.089892626
0.170722,0.10381784,-0.05047889,3.779731,-0.29723883,0.08709385
0.16540672,0.10058556,-0.048907273,3.6620522,-0.28798455,0.08438226
0.160257,0.09745396,-0.04738461,3.548039,-0.27901852,0.081755124
0.15526767,0.0944199,-0.045909368,3.437577,-0.27033177,0.07920982
0.15043373,0.09148034,-0.044480078,3.3305554,-0.26191556,0.07674379
0.14575036,0.08863232,-0.0430953,3.2268667,-0.25376147,0.07435457
0.14121284,0.08587301,-0.041753653,3.1264076,-0.24586134,0.072039746
0.13681664,0.08319963,-0.040453788,3.0290768,-0.23820724,0.069797024
0.13255732,0.0806095,-0.0391944,2.934777,-0.23079148,0.06762414
0.12843065,0.078100026,-0.03797423,2.843414,-0.22360668,0.065518916
0.12443249,0.0756687,-0.03679206,2.754896,-0.21664558,0.06347925
0.12055882,0.07331309,-0.035646696,2.6691341,-0.20990126,0.061503097
0.11680577,0.07103082,-0.034537,2.586043,-0.20336695,0.05958848
0.11316958,0.06881961,-0.033461854,2.5055387,-0.19703609,0.05773348
0.10964662,0.06667726,-0.03242019,2.4275413,-0.19090235,0.055936236
0.106233336,0.06460161,-0.031410955,2.3519726,-0.1849596,0.054194953
0.102926336,0.062590584,-0.030433144,2.2787566,-0.17920189,0.052507885
0.099722296,0.060642175,-0.029485777,2.2078202,-0.17362343,0.050873343
0.09661802,0.05875443,-0.028567906,2.1390922,-0.16821867,0.049289696
0.09361038,0.056925457,-0.027678613,2.0725043,-0.16298217,0.04775535
0.09069639,0.055153426,-0.026817007,2.0079894,-0.15790871,0.046268776
0.087873116,0.053436566,-0.025982225,1.945483,-0.15299319,0.044828482
0.08513774,0.051773157,-0.025173431,1.8849226,-0.14823072,0.04343303
0.08248752,0.05016153,-0.024389818,1.8262477,-0.1436165,0.04208102
0.079919815,0.048600078,-0.023630602,1.7693994,-0.13914594,0.040771104
0.077432044,0.047087237,-0.02289502,1.7143209,-0.13481456,0.03950197
0.07502172,0.045621496,-0.022182338,1.6609571,-0.130618,0.03827234
0.072686434,0.04420138,-0.021491842,1.6092546,-0.12655212,0.037080992
0.07042384,0.04282548,-0.020822842,1.5591615,-0.12261279,0.035926733
0.06823169,0.041492406,-0.02017467,1.510628,-0.1187961,0.034808405
0.06610778,0.040200833,-0.019546675,1.4636053,-0.11509822,0.033724893
0.06404999,0.03894947,-0.018938228,1.4180464,-0.11151547,0.03267511
0.062056255,0.03773706,-0.018348724,1.3739058,-0.10804424,0.031658005
0.060124584,0.03656239,-0.01777757,1.3311392,-0.10468107,0.030672565
0.058253046,0.03542429,-0.017224194,1.289704,-0.10142259,0.0297178
0.05643977,0.034321617,-0.016688047,1.2495586,-0.09826555,0.028792756
0.054682937,0.033253267,-0.01616859,1.210663,-0.09520679,0.027896509
0.052980796,0.032218177,-0.015665302,1.172978,-0.09224324,0.02702816
0.05133164,0.031215308,-0.015177681,1.1364663,-0.08937194,0.026186842
