ax,ay,az,gx,gy,gz
2.9845726,-3.3500304,8.090982,145.54224,33.18121,55.764145
3.1834629,-1.4346187,6.7530713,88.642914,32.871883,61.38734
2.1902244,-1.1458316,5.863373,47.88558,18.895641,69.10411
1.7149979,-0.88417345,5.582977,21.370321,5.454077,74.51017
2.0677848,-0.88907194,6.116699,12.4330015,2.1379085,74.24791
2.705122,-0.6944439,6.8243837,7.1937566,8.895042,69.818924
3.2177808,-0.71892965,7.3255873,5.862146,19.952116,64.7671
3.5313442,-0.90819097,7.5505805,9.681484,31.63436,60.60881
3.72018,-1.1433631,7.5597343,16.937132,42.371155,56.875866
3.8437307,-1.3695806,7.386785,24.308167,51.882896,52.375134
4.0252695,-1.577437,7.241016,31.519821,63.058125,48.332386
4.215645,-1.6955154,7.014173,36.79172,75.66698,44.815147
4.346104,-1.6444081,6.579577,40.545616,88.64937,42.52398
4.343844,-1.4160805,5.9210687,42.752792,99.18163,41.764694
4.1987886,-0.9614351,5.12935,42.112167,106.555786,40.86173
4.074773,-0.54596496,4.5000105,45.16655,112.83645,37.523834
3.9845648,-0.058550604,3.8853028,46.17549,117.4595,33.13557
3.8958402,0.38275155,3.3128605,46.499348,121.61955,28.104076
3.7520957,0.8179764,2.6874387,44.766384,123.81886,22.53317
3.5347471,1.2339202,2.0100572,41.983017,124.35124,16.291346
3.290052,1.5895419,1.3394428,38.910404,123.05783,8.990959
3.033639,1.8477407,0.67174596,35.24098,119.823364,1.030354
2.787746,1.9852026,0.06780738,30.686426,115.15907,-6.4907722
2.556244,2.035151,-0.47051525,24.082981,108.97505,-12.353168
2.267338,2.0468948,-0.9681077,15.859273,101.65693,-17.164387
1.9317183,1.980259,-1.4300197,7.6121793,93.134605,-21.932558
1.5827258,1.7960863,-1.8243665,0.94023114,84.39819,-27.538006
1.2663205,1.4163905,-2.1658487,-3.548584,76.0061,-33.5722
1.023857,0.74974453,-2.4416363,-4.870319,67.62337,-37.451603
0.9220664,-0.1682708,-2.5353029,-5.097533,59.846764,-36.679832
0.88785493,-1.0380557,-2.4929228,-5.1189637,52.696903,-31.108746
0.8894884,-1.6581959,-2.3338723,-5.367616,46.44507,-22.553995
0.9101996,-1.9654666,-2.0891912,-4.2905555,41.20564,-14.850979
0.98537505,-2.023609,-1.759488,-0.82417876,37.578568,-10.672628
1.1552255,-1.844128,-1.3380686,1.8246588,34.8748,-7.570218
1.3670664,-1.562666,-0.88774234,2.8116295,33.241844,-4.441619
1.5777721,-1.2007565,-0.4679239,2.8738236,32.981823,-1.7850667
1.7478958,-0.7712175,-0.14320575,2.223566,33.72915,-0.117099166
1.8564322,-0.32255656,0.071280204,1.0655318,35.069744,-0.124042764
1.894591,0.098335505,0.15493238,-0.8838439,36.307102,-1.1438963
1.8698412,0.45306632,0.13545619,-4.069331,36.92176,-2.5697873
1.7845814,0.7325711,0.04066852,-8.162026,36.68326,-4.430534
1.6290572,0.93264645,-0.113578595,-12.870229,35.454765,-6.7016554
1.3987745,1.0406922,-0.31784454,-18.284655,32.559563,-9.317676
1.1164999,1.0232025,-0.543886,-22.955471,29.140514,-12.375438
0.8553718,0.9184593,-0.76774883,-25.612816,25.64424,-16.698484
0.6393926,0.6806285,-0.9952867,-25.807388,22.009872,-21.963947
0.49405918,0.31639817,-1.2109417,-24.746405,18.022821,-26.726685
0.4132535,-0.15364055,-1.3861547,-22.275402,13.616844,-28.895267
0.35753974,-0.61194015,-1.5166479,-19.854334,8.685335,-28.552958
0.32403034,-1.0018634,-1.582192,-17.873417,3.647445,-26.13043
0.32856017,-1.3132206,-1.5483552,-15.163659,-0.20314649,-22.705168
0.36251655,-1.5144246,-1.4256389,-10.876762,-2.3883045,-19.249023
0.41715,-1.5859585,-1.2762016,-5.585674,-3.1980746,-16.48313
0.52109957,-1.6009336,-1.0964774,-0.40438804,-3.0213692,-12.881918
0.64808565,-1.5209404,-0.915317,3.6495485,-2.2771096,-8.259119
0.7638321,-1.3238069,-0.7509887,5.5747166,-1.2228013,-2.957898
0.8545201,-1.0102098,-0.60092217,5.9040933,0.10747533,1.3736546
0.82660335,-0.9772067,-0.5812903,5.7112093,0.103964165,1.328778
0.79967856,-0.94537634,-0.56235605,5.5251794,0.10057776,1.285496
0.77370316,-0.9146684,-0.54408944,5.345709,0.09731077,1.2437401
0.7486371,-0.88503534,-0.52646226,5.172521,0.094158135,1.203446
0.7244425,-0.8564326,-0.509448,5.0053544,0.09111512,1.1645528
0.70108366,-0.8288179,-0.4930214,4.8439627,0.08817721,1.1270031
0.67852676,-0.80215126,-0.47715878,4.6881113,0.08534017,1.0907426
0.6567399,-0.7763949,-0.46183765,4.5375805,0.082599975,1.0557199
0.6356927,-0.751513,-0.44703665,4.39216,0.07995281,1.0218861
0.6153564,-0.72747153,-0.43273562,4.2516513,0.07739506,0.98919517
0.59570366,-0.7042382,-0.41891527,4.1158657,0.07492328,0.9576031
0.57670856,-0.6817822,-0.40555736,3.9846237,0.07253421,0.9270681
0.5583463,-0.6600744,-0.39264452,3.8577542,0.07022474,0.89755046
0.5405933,-0.63908696,-0.38016015,3.7350945,0.0679919,0.8690123
0.5234272,-0.61879325,-0.36808845,3.6164894,0.06583287,0.8414175
0.50682646,-0.59916794,-0.35641438,3.501791,0.063744955,0.8147316
0.49077073,-0.5801869,-0.34512353,3.3908577,0.061725575,0.7889217
0.47524035,-0.56182694,-0.33420214,3.2835546,0.05977228,0.76395637
0.4602166,-0.544066,-0.32363704,3.1797519,0.057882704,0.7398055
0.44568166,-0.5268828,-0.31341565,3.0793262,0.056054603,0.7164403
0.43161827,-0.5102572,-0.3035259,2.982159,0.054285813,0.69383323
0.4180101,-0.49416962,-0.29395625,2.8881364,0.052574273,0.67195785
0.40484127,-0.47860152,-0.28469557,2.7971497,0.050917994,0.6507888
0.39209673,-0.46353495,-0.27573326,2.7090945,0.049315076,0.6303017
0.37976193,-0.44895282,-0.2670591,2.6238701,0.047763698,0.61047333
0.36782292,-0.4348386,-0.25866324,2.5413806,0.046262097,0.5912812
0.3562663,-0.4211764,-0.25053632,2.461533,0.04480859,0.5727037
0.34507918,-0.40795106,-0.24266922,2.3842385,0.043401554,0.5547203
0.3342492,-0.3951479,-0.23505327,2.3094113,0.042039435,0.5373109
0.32376438,-0.38275278,-0.22768006,2.2369692,0.04072073,0.5204564
0.31361327,-0.3707522,-0.2205415,2.1668324,0.039444,0.5041383
0.3037848,-0.359133,-0.21362986,2.098925,0.038207844,0.4883389
0.2942683,-0.34788266,-0.20693761,2.0331733,0.03701093,0.47304097
0.28505355,-0.33698902,-0.20045753,1.9695064,0.035851967,0.4582281
0.27613065,-0.3264404,-0.1941827,1.9078557,0.034729704,0.44388437
0.26749,-0.31622547,-0.18810637,1.8481555,0.03364295,0.42999443
0.2591225,-0.30633342,-0.18222208,1.7903421,0.032590542,0.4165435
0.25101918,-0.29675373,-0.17652361,1.7343543,0.03157137,0.4035173
0.2431715,-0.28747624,-0.17100492,1.6801329,0.030584345,0.39090204
0.23557122,-0.27849123,-0.16566019,1.6276206,0.029628437,0.3786845
0.22821033,-0.26978922,-0.1604838,1.5767623,0.028702639,0.36685175
0.22108114,-0.26136112,-0.15547037,1.5275049,0.02780598,0.35539144
0.2141762,-0.25319812,-0.15061462,1.4797969,0.026937526,0.34429163
0.20748828,-0.24529171,-0.1459115,1.4335885,0.02609637,0.33354074
0.2010105,-0.23763369,-0.14135614,1.3888319,0.02528164,0.32312757
0.1947361,-0.23021612,-0.1369438,1.3454804,0.024492491,0.31304136
0.18865858,-0.22303131,-0.13266993,1.3034893,0.023728106,0.30327168
0.1827717,-0.21607187,-0.12853011,1.2628155,0.022987697,0.2938084
0.17706937,-0.2093306,-0.12452008,1.2234167,0.022270499,0.28464183
0.17154574,-0.2028006,-0.1206357,1.1852525,0.021575777,0.2757625
0.16619514,-0.19647513,-0.11687301,1.1482838,0.020902818,0.2671613
0.16101207,-0.19034773,-0.113228135,1.1124727,0.02025093,0.25882947
0.15599124,-0.18441214,-0.10969735,1.0777825,0.019619444,0.25075838
0.1511275,-0.17866226,-0.10627703,1.0441778,0.01900772,0.24293986
0.14641592,-0.17309223,-0.102963716,1.0116242,0.01841513,0.23536591
0.14185165,-0.16769639,-0.099754006,0.9800886,0.01784107,0.22802879
0.13743009,-0.16246922,-0.09664463,0.9495389,0.017284958,0.22092104
0.1331467,-0.15740542,-0.09363244,0.9199439,0.016746225,0.21403544
0.12899716,-0.15249985,-0.090714365,0.8912737,0.016224327,0.20736499
0.124977246,-0.14774753,-0.08788745,0.86349905,0.01571873,0.20090291
0.12108287,-0.14314362,-0.085148826,0.8365919,0.015228924,0.19464265
0.11731011,-0.13868348,-0.08249571,0.81052494,0.014754414,0.18857786
0.11365513,-0.13436258,-0.079925425,0.7852717,0.0142947165,0.18270242
0.110114224,-0.13017654,-0.07743537,0.76080674,0.013849367,0.17701037
0.106683835,-0.12612115,-0.07502302,0.7371053,0.013417917,0.17149596
0.10336048,-0.122192286,-0.07268594,0.71414346,0.01299993,0.16615361
0.10014081,-0.11838601,-0.070421785,0.6918979,0.012594984,0.16097794
0.09702157,-0.11469846,-0.06822825,0.6703463,0.012202669,0.15596372
0.093999624,-0.11112593,-0.06610314,0.64946693,0.011822591,0.1511059
0.091071926,-0.107664816,-0.06404429,0.6292387,0.011454365,0.14639956
0.08823551,-0.10431162,-0.06204965,0.60964125,0.011097622,0.14183998
0.08548754,-0.10106298,-0.0601172,0.5906548,0.010752002,0.13742258
0.082825236,-0.09791562,-0.058244992,0.57226026,0.010417157,0.13314289
0.08024592,-0.094866365,-0.056431152,0.5544392,0.010092749,0.1289966
0.07774701,-0.09191216,-0.054673843,0.53717357,0.009778454,0.12497955
0.07532598,-0.08905003,-0.052971307,0.52044606,0.009473954,0.12108771
0.0729804,-0.0862771,-0.051321834,0.50423986,0.009178945,0.11731715
0.07070792,-0.083590575,-0.04972376,0.48853868,0.008893128,0.1136641
0.06850624,-0.08098777,-0.04817548,0.47332677,0.008616217,0.11012487
0.06637317,-0.07846606,-0.046675444,0.45858884,0.008347935,0.10669592
0.06430655,-0.076022916,-0.045222145,0.44431007,0.008088011,0.1033738
0.06230432,-0.07365589,-0.043814123,0.43047616,0.007836185,0.10015519
0.060364466,-0.0713626,-0.042449962,0.41707322,0.0075922045,0.09703684
0.058485042,-0.069140755,-0.041128296,0.4040878,0.0073558236,0.094015636
0.056664158,-0.06698811,-0.039847802,0.39150688,0.0071268063,0.09108854
0.054899994,-0.06490252,-0.038607195,0.37931782,0.0069049224,0.08825261
0.05319078,-0.062881894,-0.037405226,0.3675084,0.00668995,0.08550502
0.051534798,-0.060924202,-0.036240693,0.35606682,0.0064816726,0.082843006
0.04993039,-0.05902748,-0.03511243,0.34498158,0.0062798816,0.0802639
0.04837595,-0.05718983,-0.034019306,0.33424154,0.0060843755,0.07776511
0.04686992,-0.055409405,-0.03296022,0.323836,0.005894958,0.07534414
0.04541079,-0.05368443,-0.03193412,0.3137545,0.005711439,0.07299856
0.043997094,-0.052013166,-0.030939974,0.30398694,0.005533635,0.07072603
0.042627424,-0.050393946,-0.029976783,0.29452357,0.005361368,0.068524264
0.041300405,-0.048825152,-0.029043585,0.28535482,0.0051944647,0.06639106
0.040014707,-0.047305204,-0.028139446,0.2764716,0.005032759,0.064324275
0.03876904,-0.04583258,-0.027263459,0.267865,0.0048760884,0.062321845
0.037562158,-0.044405814,-0.026414748,0.25952637,0.0047242953,0.060381766
0.036392856,-0.04302347,-0.025592463,0.25144735,0.0045772293,0.058502097
0.035259962,-0.041684166,-0.02479578,0.2436199,0.004434742,0.056680948
0.03416234,-0.04038656,-0.024023902,0.23603615,0.0042966907,0.054916505
0.03309889,-0.039129358,-0.023276055,0.22868852,0.004162938,0.05320699
0.03206855,-0.037911296,-0.022551492,0.22156966,0.0040333495,0.051550705
0.03107029,-0.036731157,-0.021849487,0.21467242,0.0039077955,0.049945988
0.03010311,-0.035587758,-0.021169338,0.20798992,0.0037861504,0.048391227
0.02916604,-0.034479957,-0.020510364,0.20151547,0.0036682924,0.046884872
0.028258141,-0.033406645,-0.019871905,0.19524258,0.003554104,0.04542541
0.027378509,-0.03236675,-0.019253325,0.18916498,0.00344347,0.044011388
0.026526261,-0.031359226,-0.018654,0.18327658,0.0033362804,0.042641386
0.025700545,-0.030383067,-0.018073333,0.1775715,0.0032324279,0.041314036
0.024900533,-0.029437298,-0.017510744,0.17204402,0.0031318082,0.040028006
0.024125429,-0.028520972,-0.016965669,0.16668862,0.0030343211,0.038782008
0.023374451,-0.027633172,-0.01643756,0.16149995,0.0029398687,0.0375748
0.022646854,-0.026773008,-0.015925894,0.15647279,0.0028483567,0.03640518
0.021941906,-0.025939623,-0.015430155,0.15160212,0.0027596937,0.035271965
0.021258904,-0.02513218,-0.014949849,0.14688309,0.0026737906,0.034174025
0.020597164,-0.024349872,-0.014484494,0.14231096,0.0025905615,0.033110265
0.01995602,-0.023591919,-0.014033626,0.13788114,0.0025099234,0.032079622
0.019334838,-0.022857558,-0.013596793,0.13358924,0.0024317955,0.03108106
0.018732993,-0.02214606,-0.013173558,0.12943093,0.0023560997,0.030113583
0.01814988,-0.021456707,-0.012763498,0.12540208,0.0022827603,0.029176222
0.017584922,-0.020788815,-0.012366203,0.12149863,0.0022117037,0.028268041
