ax,ay,az,gx,gy,gz
-0.4436404,0.96546334,-2.666388,65.36333,-52.046837,9.543723
-0.13172588,0.5326106,-1.5098177,40.675987,-58.568794,-10.067525
0.34388578,0.4826457,-1.0096158,14.078789,-67.66986,-19.04329
0.67195594,0.4944832,-0.5727283,-13.409384,-75.83251,-22.121183
0.6167185,0.1335118,-0.043404914,-28.117228,-69.90213,-18.479042
0.25649354,-0.15551828,0.013590621,-37.58487,-63.091537,-14.11788
0.07715766,-0.42148793,0.15509176,-41.794342,-57.04853,-10.23857
-0.018493734,-0.73471117,0.2811229,-38.544083,-51.727905,-5.208981
-0.072852045,-0.95442253,0.38240424,-31.074877,-45.390842,-1.7344807
-0.050761208,-1.0628717,0.48871592,-23.631514,-38.70876,0.18317969
0.04015992,-1.1766795,0.5703583,-17.106207,-32.17196,1.8911265
0.18264347,-1.3123121,0.643213,-10.253136,-25.34079,4.304783
0.33907673,-1.3912511,0.6978694,-6.4709535,-18.90561,8.280172
0.5470983,-1.4466361,0.8203984,-1.2289845,-12.597178,12.167364
0.8095112,-1.4468739,0.9579427,1.110242,-4.5827546,17.723402
1.1113241,-1.4163765,1.0769594,4.8863907,4.3189063,24.33658
1.380508,-1.3293729,1.1538957,10.548117,13.885782,31.579062
1.6169448,-1.1253378,1.2003099,16.165642,23.832846,38.1683
1.8562468,-0.9151766,1.2717911,21.359669,34.767654,43.0167
2.126685,-0.7290637,1.3668627,25.381042,47.81999,47.239517
2.482427,-0.5322831,1.4960487,27.923346,63.37409,50.788246
2.8140101,-0.31519398,1.4809967,28.035782,80.36292,54.211815
3.0865965,-0.12890479,1.3575641,29.055809,97.890526,55.80565
3.2580345,0.06137107,1.0780134,29.995718,113.714195,56.810196
3.3346984,0.30807707,0.75623447,29.768862,125.990616,57.609016
3.3819702,0.61847955,0.48656824,26.924679,135.60367,58.116436
3.45379,0.88515365,0.32890266,23.497272,144.53891,58.41549
3.5091975,1.175955,0.16935623,19.946884,153.58658,58.114494
3.4765465,1.5236549,-0.087061554,14.927102,161.1896,56.00348
3.3463657,1.8806328,-0.38611802,9.835582,165.7698,51.30094
3.060339,2.1901832,-0.70446956,3.9733174,167.25871,45.483265
2.7212632,2.3869073,-0.9959065,-0.39536119,166.60713,39.678913
2.3791158,2.6001012,-1.3216383,-4.141241,162.92435,32.839188
2.073413,2.73088,-1.6033144,-6.9915795,157.39189,24.955368
1.7945992,2.7738752,-1.866061,-7.7653866,150.10626,16.273247
1.563419,2.7827294,-2.136636,-8.431223,141.55232,7.9103947
1.3385115,2.7288806,-2.4293947,-10.053793,131.20982,0.060123164
1.1657987,2.5317504,-2.713254,-11.986431,119.57515,-6.835223
1.1161774,2.1451886,-2.9406567,-13.819237,107.49011,-12.160405
1.2380811,1.5500376,-3.0427608,-14.686495,97.03165,-13.275792
1.4124085,0.9225561,-3.026151,-13.796759,89.11881,-10.930036
1.4803694,0.44042933,-3.0150974,-11.213156,82.53285,-7.302037
1.4973184,0.018068958,-2.9810631,-7.159462,76.47694,-2.814445
1.5066185,-0.283672,-2.8954947,-2.188149,70.7808,2.7204885
1.5416328,-0.42179716,-2.7356982,3.528243,65.816765,8.814098
1.613265,-0.21010779,-2.4472497,8.122659,61.733173,13.924764
1.6948172,0.23187281,-2.0615253,9.997439,58.911385,16.355593
1.7675005,0.6982249,-1.6683168,10.081591,57.665398,16.066784
1.7968047,1.0860409,-1.3548082,9.219699,57.06236,14.386962
1.8007782,1.4283735,-1.1127363,7.197813,56.72937,11.728408
1.7979863,1.724284,-0.9431982,4.3180485,56.67698,8.113267
1.7853339,1.9509844,-0.8376733,0.6456836,56.903152,3.7768412
1.7378511,2.0864174,-0.8207134,-3.2989573,56.94741,-0.89020175
1.6609528,2.1277823,-0.8763381,-6.766428,56.39108,-5.6518493
1.5807191,2.1005588,-0.9796852,-8.687552,54.71707,-10.861211
1.5159137,2.0051663,-1.0912073,-9.514714,52.472214,-16.132582
1.4682686,1.8780339,-1.2082651,-10.05082,49.703102,-20.83846
1.3977326,1.7330457,-1.3469839,-10.883585,46.0679,-24.586185
1.283594,1.5607451,-1.5071304,-11.636696,41.444286,-27.756985
1.1476485,1.3627759,-1.6636385,-12.068784,35.748367,-30.45131
1.0343616,1.1528177,-1.7743498,-12.233866,29.720001,-32.664024
0.95837766,0.90229344,-1.8373194,-11.93442,23.853228,-34.198147
0.92863274,0.6148783,-1.8444513,-10.657126,18.705256,-34.66307
0.9388014,0.33336085,-1.808904,-8.5757475,14.4199705,-33.801254
0.97172207,0.065820046,-1.742242,-5.9138484,11.248005,-31.128977
0.98155636,-0.088394135,-1.660645,-3.1076472,8.576272,-28.007011
0.97907084,-0.14629225,-1.5571092,-0.66665787,6.2847342,-25.153393
0.9866184,-0.18646333,-1.4307423,1.4341335,4.3888416,-22.403965
1.0113499,-0.2251244,-1.2985626,3.3999884,3.0927413,-19.29862
1.0329581,-0.24463522,-1.1875783,5.047074,2.0540981,-15.518698
1.0509489,-0.20592967,-1.0804509,6.650936,1.186079,-11.429399
1.0683427,-0.08040282,-0.9718545,7.471901,0.43420568,-7.646566
1.0871303,0.06269445,-0.86122745,7.3780704,-0.18427764,-4.263994
1.1030474,0.17269315,-0.76426625,6.6872435,-0.25004658,-0.9308959
1.1147988,0.26286134,-0.687753,6.952991,0.17166588,1.7320698
1.1019256,0.38099608,-0.6661474,7.3278565,0.45208177,3.6280394
1.0823597,0.4999555,-0.65340275,7.6480365,0.48217466,4.562989
1.0481756,0.48416546,-0.6327664,7.4064894,0.46694618,4.4188766
1.0151007,0.46888775,-0.61279964,7.1727796,0.45221183,4.2794404
0.98309624,0.4541045,-0.5934791,6.946634,0.43795434,4.1445165
0.9521252,0.4397986,-0.5747824,6.72779,0.42415723,4.0139494
0.922152,0.42595357,-0.556688,6.515997,0.4108046,3.887589
0.8931424,0.41255367,-0.5391754,6.3110127,0.39788127,3.765291
0.86506367,0.39958376,-0.5222247,6.1126065,0.38537264,3.6469173
0.83788425,0.38702926,-0.505817,5.9205546,0.3732646,3.532335
0.81157386,0.37487617,-0.48993382,5.7346435,0.36154374,3.4214163
0.78610337,0.36311102,-0.4745577,5.554667,0.35019702,3.3140383
0.7614447,0.35172084,-0.45967165,5.3804264,0.33921197,3.2100825
0.73757076,0.3406932,-0.44525936,5.211732,0.3285765,3.1094356
0.7144557,0.33001605,-0.43130517,5.048399,0.3182791,3.0119874
0.69207436,0.31967786,-0.41779396,4.8902507,0.30830854,2.9176328
0.6704027,0.3096674,-0.4047111,4.737117,0.29865414,2.8262696
0.64941734,0.29997402,-0.39204258,4.588833,0.28930548,2.7378001
0.6290959,0.2905873,-0.37977487,4.44524,0.2802526,2.6521294
0.6094167,0.28149724,-0.3678949,4.3061857,0.27148584,2.5691664
0.590359,0.27269423,-0.35639003,4.171522,0.2629959,2.488823
0.57190245,0.26416892,-0.34524813,4.0411067,0.2547738,2.4110146
0.55402774,0.25591236,-0.33445746,3.9148026,0.24681088,2.3356586
0.53671604,0.24791588,-0.32400668,3.792477,0.2390988,2.2626765
0.51994926,0.2401711,-0.31388485,3.6740017,0.23162945,2.1919913
0.5037099,0.23266992,-0.30408138,3.5592527,0.22439505,2.1235297
0.48798096,0.22540453,-0.2945861,3.448111,0.21738806,2.05722
0.47274616,0.2183674,-0.2853891,3.3404608,0.2106012,1.9929935
0.45798972,0.2115512,-0.27648088,3.2361906,0.20402741,1.9307835
0.44369635,0.20494892,-0.2678522,3.1351924,0.19765994,1.8705258
0.4298513,0.19855371,-0.25949416,3.0373623,0.19149217,1.8121581
0.41644028,0.192359,-0.25139818,2.942599,0.18551777,1.7556202
0.40344954,0.1863584,-0.24355587,2.8508055,0.17973061,1.7008542
0.39086574,0.18054579,-0.23595923,2.7618873,0.1741247,1.6478035
0.37867594,0.17491516,-0.22860046,2.6757534,0.16869435,1.5964141
0.3668677,0.1694608,-0.22147201,2.5923154,0.16343395,1.5466332
0.35542896,0.16417709,-0.21456662,2.5114882,0.15833816,1.49841
0.344348,0.15905866,-0.20787723,2.4331894,0.15340176,1.4516951
0.33361354,0.15410028,-0.20139703,2.3573391,0.14861974,1.4064411
0.32321468,0.14929692,-0.19511941,2.28386,0.14398721,1.3626018
0.31314084,0.14464368,-0.18903798,2.2126772,0.13949946,1.3201326
0.30338174,0.14013584,-0.18314658,2.1437187,0.13515192,1.2789904
0.2939275,0.1357688,-0.17743921,2.0769143,0.13094021,1.2391335
0.28476855,0.13153817,-0.17191009,2.0121963,0.12686002,1.2005212
0.27589557,0.12743962,-0.16655363,1.9494992,0.12290726,1.1631148
0.2672996,0.12346904,-0.16136438,1.8887595,0.11907788,1.1268761
0.25897193,0.119622394,-0.15633711,1.8299156,0.11536804,1.0917685
0.25090417,0.11589579,-0.15146674,1.7729082,0.111773975,1.0577567
0.24308816,0.11228547,-0.14674833,1.7176796,0.10829206,1.024806
0.23551598,0.10878779,-0.14217713,1.6641741,0.10491877,0.9928833
0.22818,0.105399214,-0.13774852,1.6123375,0.10165071,0.9619565
0.22107285,0.102116324,-0.13345805,1.5621178,0.098484576,0.9319943
0.21418734,0.09893582,-0.12930138,1.5134642,0.09541719,0.9029665
0.20751654,0.09585449,-0.12527433,1.4663278,0.09244544,0.87484384
0.20105371,0.09286924,-0.12137283,1.420661,0.08956636,0.847598
0.19479237,0.08997705,-0.11759296,1.3764179,0.086777024,0.8212016
0.18872623,0.08717501,-0.113930926,1.333554,0.084074646,0.7956281
0.18284915,0.084460326,-0.110383034,1.2920263,0.081456505,0.7708517
0.17715527,0.08183024,-0.10694572,1.2517927,0.07891996,0.74684745
0.17163882,0.07928213,-0.10361554,1.2128131,0.07646247,0.7235913
0.16629428,0.076813415,-0.10038913,1.1750481,0.074081555,0.70105994
0.16111627,0.07442163,-0.097263254,1.13846,0.07177484,0.67923063
0.15609962,0.07210437,-0.09423477,1.1030118,0.069539994,0.6580815
0.15123925,0.06985931,-0.09130065,1.0686681,0.06737477,0.6375913
0.14653032,0.06768419,-0.08845794,1.0353944,0.06527701,0.61773944
0.14196807,0.06557683,-0.08570379,1.0031573,0.0632446,0.59850603
0.13754794,0.06353512,-0.08303543,0.9719243,0.061275505,0.5798717
0.1332655,0.061557006,-0.0804502,0.9416643,0.059367742,0.56181794
0.12911646,0.059640512,-0.077945486,0.9123468,0.057519406,0.5443264
0.12509663,0.057783708,-0.07551879,0.8839424,0.055728637,0.5273798
0.12120202,0.05598473,-0.07316767,0.8564228,0.053993646,0.51096094
0.1174287,0.054241788,-0.07088978,0.8297602,0.052312687,0.49505344
0.11377289,0.052553125,-0.06868283,0.803928,0.050684083,0.47964138
0.11023094,0.05091705,-0.06654461,0.77890027,0.049106196,0.46470928
0.10679928,0.04933193,-0.06447297,0.7546519,0.047577444,0.45024216
0.10347449,0.047796164,-0.06246585,0.7311587,0.046096303,0.4362256
0.10025323,0.046308227,-0.06052123,0.70839703,0.044661283,0.42264548
0.09713228,0.04486662,-0.058637165,0.68634415,0.043270946,0.40948823
0.094108514,0.043469902,-0.056811765,0.66497797,0.041923903,0.3967407
0.091178894,0.042116676,-0.055043202,0.6442771,0.040618803,0.3843901
0.0883405,0.040805586,-0.053329706,0.6242207,0.03935434,0.372424
0.085590474,0.039535314,-0.051669564,0.6047889,0.038129248,0.36083055
0.08292608,0.038304597,-0.05006111,0.58596206,0.0369423,0.34959802
0.08034463,0.037112195,-0.04850274,0.56772137,0.035792306,0.33871523
0.07784357,0.03595692,-0.046992883,0.55004865,0.03467812,0.32817128
0.075420365,0.034837615,-0.045530036,0.5329261,0.03359862,0.3179556
0.073072605,0.033753153,-0.044112734,0.5163367,0.03255273,0.30805796
0.07079794,0.032702457,-0.042739555,0.5002637,0.031539403,0.2984685
0.0685941,0.031684473,-0.04140913,0.48469114,0.030557621,0.28917757
0.06645886,0.030698182,-0.04012012,0.46960342,0.029606406,0.28017586
0.0643901,0.029742595,-0.038871244,0.45498538,0.028684804,0.27145442
0.062385738,0.028816756,-0.037661247,0.44082242,0.027791893,0.2630045
0.06044378,0.027919741,-0.036488917,0.4271004,0.02692678,0.25481763
0.058562275,0.02705065,-0.035353083,0.41380554,0.0260886,0.24688563
0.056739345,0.026208615,-0.03425261,0.40092456,0.02527651,0.23920055
0.054973163,0.025392795,-0.033186395,0.3884446,0.024489703,0.23175472
0.05326196,0.024602368,-0.03215337,0.3763531,0.02372739,0.22454067
0.051604033,0.023836551,-0.031152507,0.36463806,0.022988807,0.2175512
0.049997713,0.023094572,-0.0301828,0.3532877,0.022273216,0.21077932
0.0484414,0.02237569,-0.029243277,0.34229067,0.021579903,0.20421824
0.04693353,0.021679187,-0.028333003,0.33163595,0.020908171,0.1978614
0.045472603,0.021004368,-0.027451064,0.32131293,0.02025735,0.19170246
0.044057153,0.020350553,-0.026596582,0.31131124,0.019626789,0.18573524
0.042685766,0.019717092,-0.025768695,0.3016209,0.019015856,0.17995377
0.041357066,0.019103348,-0.024966583,0.29223222,0.018423941,0.17435226
