ax,ay,az,gx,gy,gz
1.7491069,1.4836498,2.1227467,-9.488268,-47.33043,21.195648
1.4626993,1.471905,2.1371615,-6.3053412,-59.61831,16.593145
1.6363366,1.4910024,2.4764335,-8.646568,-65.61875,14.623402
2.3217156,1.3076409,3.0452604,-10.6538515,-64.661125,13.359362
3.0040622,1.0166827,3.5670884,-8.9491415,-59.85113,10.386255
3.6109035,0.75095844,4.087043,-5.5893416,-52.70393,7.536146
4.0605083,0.58497256,4.593005,-3.6503432,-45.41686,6.721866
4.443222,0.39421552,5.100065,-3.4753735,-38.69703,8.070778
4.905602,0.07658995,5.6220484,-1.8014319,-30.112684,8.686781
5.3817854,-0.20228988,6.0315633,2.205996,-19.701952,6.8568006
5.7501497,-0.36418873,6.327753,6.6685658,-7.8216705,4.463749
5.9242525,-0.44369182,6.4821606,10.337522,3.978872,2.4385679
6.022035,-0.47369877,6.489603,13.364484,14.957751,0.9806963
6.084343,-0.52935046,6.3217697,16.223904,25.051786,-0.45835528
6.139673,-0.58934575,6.0518017,18.675543,34.879116,-1.7592599
6.144779,-0.64625347,5.6670804,21.296999,44.63194,-3.4708462
6.0601664,-0.690363,5.1603937,24.025414,53.99904,-5.4699254
5.790384,-0.7204909,4.533227,26.540874,62.079216,-7.4263387
5.411549,-0.7292328,3.7818615,28.402594,68.26851,-8.983795
4.980458,-0.74941444,3.035393,29.811052,72.46506,-9.97736
4.543891,-0.75954807,2.3248358,30.970701,75.28802,-10.615389
4.099473,-0.74073386,1.653901,31.891066,76.71802,-11.299805
3.6593714,-0.695584,1.031618,32.846172,77.27932,-12.231513
3.2109463,-0.6106019,0.44865894,33.532906,76.77616,-13.342903
2.7642689,-0.506615,-0.09025977,33.699463,75.35935,-14.162493
2.3359368,-0.3787968,-0.58276236,33.208958,73.07301,-14.517319
1.9362338,-0.23998728,-1.0380874,32.172615,69.98613,-14.649639
1.5842526,-0.10626621,-1.4453207,30.329924,66.12778,-14.402496
1.2765932,0.012687735,-1.8024358,28.16166,61.965836,-13.9163265
0.98822904,0.13251868,-2.1327076,25.72379,57.459866,-13.398552
0.725152,0.2568248,-2.4322324,23.028017,52.524582,-13.007945
0.49431658,0.37934676,-2.6891747,20.081924,47.290516,-12.712096
0.30736738,0.4953528,-2.9005966,16.72075,41.68264,-12.283952
0.1625028,0.61725575,-3.0657558,13.132528,35.90831,-11.932192
0.043375798,0.71406186,-3.1906981,9.529264,29.974674,-11.883601
-0.040420644,0.782403,-3.260777,5.9585376,24.107874,-11.968472
-0.09971019,0.8456645,-3.2988727,2.3581693,18.26512,-12.203709
-0.13264532,0.9029302,-3.3111353,-1.390909,12.254169,-12.5824795
-0.11166881,0.92100304,-3.2791286,-5.554985,6.0160728,-13.0918665
-0.04933633,0.8456775,-3.1998127,-9.28652,-0.20522511,-13.970071
0.08463676,0.6976081,-3.0585089,-12.698159,-6.036137,-14.774703
0.28811035,0.5146798,-2.8645,-15.590257,-11.015034,-15.166461
0.51899695,0.37607867,-2.639779,-17.853067,-14.760131,-15.703649
0.71890986,0.27065256,-2.409612,-19.789446,-17.774338,-16.525356
0.8525116,0.14410137,-2.1746993,-21.64966,-20.591656,-16.933908
0.96490973,-0.0052572377,-1.9190547,-23.633371,-23.354494,-16.748453
1.1005605,-0.17603333,-1.6233891,-25.379383,-25.742119,-16.216719
1.2756661,-0.35743347,-1.2959343,-26.089437,-27.120064,-16.072918
1.4943589,-0.5181737,-0.9313313,-25.974047,-27.379486,-16.14503
1.709437,-0.64873415,-0.55969256,-25.513487,-26.863003,-16.110853
1.9182279,-0.75822186,-0.18657796,-24.854708,-25.777893,-15.8515625
2.133452,-0.8512812,0.18359432,-24.092228,-24.138437,-15.389196
2.3687904,-0.93889886,0.53682184,-22.971344,-21.388847,-14.999462
2.600206,-1.0167036,0.8470024,-21.39721,-17.739702,-14.861905
2.78419,-1.0771714,1.1003295,-19.572266,-13.413439,-14.765871
2.907708,-1.1243578,1.2907696,-17.576794,-8.902002,-14.647169
3.0157063,-1.1495346,1.4358913,-15.463424,-4.3202386,-14.568934
3.1325185,-1.1647238,1.532968,-13.160362,0.67805594,-14.80559
3.22231,-1.1870134,1.55244,-10.730457,5.910077,-15.24112
3.2725923,-1.2050908,1.5112212,-8.309339,11.158954,-15.712869
3.2799141,-1.2096354,1.4193865,-6.046969,16.280243,-16.11445
3.2472925,-1.2096796,1.285799,-4.045709,21.123375,-16.44068
3.1864278,-1.2211629,1.1123214,-2.1791167,25.476624,-16.720049
3.092778,-1.2478234,0.8939232,-0.23728958,29.358702,-17.060638
2.9789524,-1.2704797,0.6519429,1.8146348,32.86204,-17.42879
2.8439674,-1.2811567,0.3900951,3.7749386,35.97142,-17.729498
2.6870294,-1.2811837,0.12027987,5.7254143,38.656387,-18.014132
2.5159416,-1.2703649,-0.14825968,7.647119,40.78987,-18.218868
2.3298457,-1.240492,-0.41265902,9.397016,42.430584,-18.206194
2.136074,-1.1873528,-0.6703478,10.868435,43.57266,-18.02657
1.9359587,-1.1090157,-0.9235585,11.923528,44.22389,-17.827679
1.7280486,-1.0375386,-1.1674448,12.765078,44.434315,-17.73243
1.5221527,-0.972997,-1.4053968,13.239641,44.159092,-17.568596
1.3250049,-0.9260583,-1.6356697,13.324967,43.46319,-17.065603
1.1362929,-0.8994461,-1.8580668,13.107809,42.326065,-16.229162
1.100335,-0.87098324,-1.7992685,12.693013,40.98666,-15.715593
1.0655503,-0.84344894,-1.7423885,12.291751,39.690956,-15.218778
1.0318972,-0.81681037,-1.6873589,11.903542,38.4374,-14.738125
0.9993359,-0.7910362,-1.6341146,11.527929,37.224518,-14.273067
0.9678285,-0.7660961,-1.5825938,11.164473,36.05089,-13.823061
0.9373385,-0.74196136,-1.5327364,10.812752,34.915157,-13.387586
0.9078307,-0.71860415,-1.4844853,10.4723625,33.816017,-12.96614
0.8792716,-0.6959979,-1.4377855,10.142917,32.752213,-12.558243
0.85162896,-0.674117,-1.3925842,9.824042,31.722546,-12.163436
0.8248717,-0.65293694,-1.3488307,9.515381,30.725857,-11.781273
0.7989699,-0.63243407,-1.3064761,9.216589,29.761034,-11.411329
0.77389497,-0.6125857,-1.2654735,8.927335,28.827011,-11.053195
0.74961925,-0.59336996,-1.2257779,8.6473,27.922758,-10.706475
0.7261161,-0.5747658,-1.1873455,8.376178,27.047285,-10.370791
0.70336,-0.5567529,-1.1501347,8.113672,26.199636,-10.045776
0.68132627,-0.5393119,-1.1141051,7.8595004,25.378897,-9.731078
0.65999115,-0.5224238,-1.0792179,7.613387,24.584179,-9.426358
0.6393317,-0.50607055,-1.0454355,7.375068,23.81463,-9.131289
0.6193259,-0.49023473,-1.012722,7.144289,23.069427,-8.845554
0.59995234,-0.47489938,-0.98104244,6.920804,22.347778,-8.5688505
0.5811905,-0.46004826,-0.9503631,6.7043757,21.648914,-8.300884
0.56302065,-0.44566566,-0.92065173,6.4947753,20.9721,-8.041372
0.54542357,-0.43173647,-0.89187694,6.2917824,20.316622,-7.7900405
0.5283807,-0.418246,-0.8640085,6.095183,19.681787,-7.546625
0.5118743,-0.4051802,-0.8370172,5.9047723,19.066936,-7.3108716
0.49588713,-0.39252532,-0.81087494,5.7203503,18.471426,-7.082534
0.4804025,-0.38026828,-0.7855544,5.541726,17.894634,-6.8613734
0.4654043,-0.36839628,-0.76102936,5.368713,17.335964,-6.647161
0.450877,-0.35689703,-0.73727435,5.2011323,16.794832,-6.4396744
0.43680564,-0.34575865,-0.7142648,5.0388103,16.270683,-6.238699
0.42317557,-0.33496964,-0.69197696,4.88158,15.762975,-6.0440273
0.40997285,-0.32451886,-0.67038786,4.7292786,15.271183,-5.8554587
0.39718387,-0.31439558,-0.6494753,4.58175,14.794803,-5.672799
0.3847955,-0.30458942,-0.6292178,4.438843,14.333345,-5.4958615
0.37279502,-0.2950903,-0.60959464,4.3004103,13.886336,-5.3244643
0.36117014,-0.2858885,-0.59058565,4.166311,13.45332,-5.1584315
0.34990904,-0.27697465,-0.57217145,4.036407,13.033852,-4.9975944
0.3390002,-0.2683396,-0.55433327,3.910567,12.627504,-4.841788
0.32843244,-0.2599746,-0.5370529,3.788662,12.233864,-4.6908536
0.31819507,-0.25187108,-0.5203128,3.670568,11.85253,-4.5446377
0.30827767,-0.24402083,-0.50409585,3.5561647,11.483113,-4.402992
0.29867014,-0.23641588,-0.4883856,3.445336,11.12524,-4.265772
0.28936273,-0.22904849,-0.4731661,3.3379698,10.778546,-4.1328382
0.280346,-0.22191119,-0.45842195,3.2339566,10.44268,-4.0040565
0.27161083,-0.21499677,-0.4441382,3.133191,10.117301,-3.8792958
0.26314837,-0.2082982,-0.43030035,3.0355716,9.80208,-3.7584302
0.25495005,-0.20180872,-0.41689447,2.940999,9.496699,-3.6413372
0.24700756,-0.19552177,-0.4039069,2.8493779,9.200848,-3.5278986
0.23931293,-0.18943098,-0.39132464,2.7606158,8.914228,-3.4179995
0.23185836,-0.18353023,-0.37913492,2.6746228,8.636551,-3.311529
0.22463632,-0.17781353,-0.36732543,2.5913124,8.367536,-3.20838
0.21763954,-0.17227514,-0.35588428,2.5106003,8.106911,-3.108448
0.21086095,-0.16690949,-0.34479997,2.4324055,7.8544135,-3.0116324
0.20429374,-0.16171113,-0.33406126,2.3566487,7.60979,-2.917836
0.19793129,-0.15667486,-0.32365736,2.2832541,7.372793,-2.8269641
0.1917672,-0.1517956,-0.31357783,2.2121477,7.1431856,-2.738925
0.18579526,-0.14706844,-0.30381253,2.1432579,6.920735,-2.6536305
0.18000947,-0.14248863,-0.29435158,2.0765152,6.7052183,-2.5709946
0.174404,-0.13805154,-0.28518552,2.011853,6.496419,-2.4909341
0.16897322,-0.13375275,-0.2763051,1.9492058,6.2941265,-2.413369
0.16371168,-0.12958792,-0.26770145,1.8885108,6.0981383,-2.3382206
0.1586141,-0.12555286,-0.25936586,1.8297071,5.908257,-2.2654142
0.15367535,-0.121643536,-0.25129002,1.7727357,5.7242923,-2.1948762
0.14889047,-0.11785601,-0.24346578,1.7175393,5.5460587,-2.126536
0.14425465,-0.11418648,-0.23588529,1.6640625,5.3733783,-2.0603247
0.13976327,-0.110631265,-0.22854097,1.6122516,5.2060776,-1.9961761
0.13541178,-0.1071868,-0.22142543,1.5620548,5.043988,-1.9340259
0.13119586,-0.10384963,-0.21453154,1.5134215,4.8869476,-1.8738116
0.12711124,-0.1006164,-0.20785238,1.4663031,4.734799,-1.815473
0.12315385,-0.09748389,-0.20138125,1.4206523,4.587389,-1.7589513
0.119319715,-0.09444893,-0.19511168,1.3764232,4.4445705,-1.7041901
0.115605,-0.09150851,-0.18903737,1.3335718,4.3062,-1.6511344
0.112005964,-0.08865965,-0.18315223,1.2920549,4.1721387,-1.5997311
0.10851902,-0.08589951,-0.17745036,1.2518308,4.0422525,-1.5499285
0.105140656,-0.08322533,-0.17192607,1.2128595,3.9164112,-1.5016769
0.101867504,-0.08063443,-0.16657381,1.1751018,3.7944887,-1.4549279
0.09869627,-0.0781242,-0.1613882,1.1385196,3.6763628,-1.4096347
0.09562379,-0.07569215,-0.15636408,1.1030768,3.561915,-1.3657517
0.09264698,-0.07333581,-0.1514964,1.0687375,3.451031,-1.3232354
0.08976286,-0.07105286,-0.14678028,1.0354675,3.3435998,-1.2820427
0.08696854,-0.06884098,-0.14221102,1.0032334,3.2395134,-1.2421328
0.08426123,-0.06669798,-0.13778402,0.972003,3.138668,-1.2034655
0.08163821,-0.064621694,-0.13349485,0.9417449,3.0409627,-1.166002
0.07909686,-0.06261006,-0.12933923,0.9124289,2.946299,-1.1297051
0.07663464,-0.06066105,-0.125313,0.8840257,2.854583,-1.0945382
0.07424907,-0.058772728,-0.12141212,0.85650676,2.7657225,-1.0604662
0.07193777,-0.056943193,-0.11763269,0.8298446,2.6796284,-1.027455
0.06969843,-0.055170618,-0.11397092,0.80401254,2.5962148,-0.9954715
0.067528814,-0.05345323,-0.110423155,0.77898467,2.515398,-0.96448374
0.06542674,-0.051789306,-0.10698584,0.75473595,2.437097,-0.93446076
0.0633901,-0.050177187,-0.10365553,0.7312422,2.361234,-0.90537244
0.06141687,-0.04861525,-0.10042891,0.7084798,2.2877328,-0.8771897
0.05950507,-0.047101945,-0.09730273,0.6864261,2.2165196,-0.8498843
0.057652786,-0.045635745,-0.09427387,0.6650589,2.1475234,-0.8234289
0.05585817,-0.044215195,-0.09133931,0.6443569,2.0806751,-0.7977972
0.054119416,-0.042838864,-0.0884961,0.62429935,2.015908,-0.77296335
0.05243479,-0.041505378,-0.0857414,0.6048662,1.953157,-0.7489026
0.050802607,-0.040213406,-0.083072454,0.58603805,1.8923594,-0.7255909
0.049221236,-0.038961653,-0.080486596,0.567796,1.8334544,-0.7030049
0.04768909,-0.037748866,-0.07798123,0.5501218,1.7763832,-0.68112195
0.04620464,-0.03657383,-0.07555386,0.5329978,1.7210885,-0.6599202
0.044766404,-0.035435375,-0.07320205,0.51640683,1.6675152,-0.6393785
0.043372937,-0.03433236,-0.07092345,0.50033236,1.6156095,-0.6194762
0.042022843,-0.03326368,-0.06871578,0.4847583,1.5653197,-0.6001935
0.04071478,-0.032228265,-0.06657683,0.469669,1.5165952,-0.58151096
