ax,ay,az,gx,gy,gz
-2.5100226,1.440013,-2.9318447,-20.530188,-11.762835,-25.967508
-2.2741609,1.2761022,-3.0396001,-36.60133,-16.511383,-24.006128
-1.970656,0.5344034,-3.1909711,-37.475708,-22.812996,-22.44164
-1.7528615,-0.27356058,-3.3410451,-27.30035,-29.92882,-22.222136
-1.5873475,-0.75685424,-3.3682647,-18.012014,-38.294315,-19.43928
-1.3855578,-1.0315917,-3.2876275,-12.142416,-45.99699,-14.373919
-1.1105855,-1.2149117,-3.1229732,-8.492821,-51.17485,-8.680967
-0.8801667,-1.361072,-2.9848702,-4.5799913,-54.661213,-3.7090092
-0.7338827,-1.4840571,-2.84514,-0.9086331,-56.99716,0.7702388
-0.6386457,-1.560556,-2.712796,2.3052437,-58.75156,4.7084284
-0.5607939,-1.6082611,-2.5687046,5.2726808,-60.148678,8.180374
-0.47741538,-1.6280539,-2.4059007,8.152205,-61.06641,10.888309
-0.38847753,-1.641758,-2.2368376,10.165328,-61.700012,13.851555
-0.28671777,-1.6780365,-2.0584764,11.729899,-62.07162,16.875978
-0.17815016,-1.7221476,-1.8754133,13.114186,-61.972466,19.885609
-0.07404572,-1.7810755,-1.7038573,14.829658,-61.595325,22.948793
0.03073968,-1.8384849,-1.532514,16.758492,-60.91937,26.099976
0.15778555,-1.8686054,-1.357953,18.663244,-60.10439,29.174541
0.34290618,-1.8904091,-1.1464782,20.567749,-59.09141,32.26228
0.52907026,-1.9026593,-0.9194013,22.35878,-57.67782,35.40303
0.6901636,-1.9053106,-0.6918125,24.105822,-55.57228,38.64324
0.8140272,-1.8831874,-0.48533428,25.977922,-52.919632,41.924255
0.9046034,-1.8126451,-0.30446365,27.616463,-50.071,45.31892
0.9846049,-1.6797487,-0.12566316,28.689009,-47.08617,48.583813
1.0402039,-1.5332522,0.034238696,29.400324,-44.01351,51.420883
1.0692692,-1.3902674,0.16580181,29.89693,-41.002052,53.782806
1.0939319,-1.2455832,0.28522268,30.089785,-38.031834,55.96992
1.120336,-1.0888668,0.39772564,29.716482,-34.926895,58.06472
1.1318626,-0.91812426,0.48959273,28.673325,-31.992956,60.25858
1.1406469,-0.7392153,0.5723302,26.60024,-29.262009,62.75654
1.1501042,-0.55718786,0.64611787,23.837856,-26.819107,65.48853
1.1640563,-0.38282746,0.7169935,21.469715,-24.289951,67.37604
1.1710976,-0.22963527,0.78346807,20.525,-21.175625,67.452034
1.1615186,-0.089370415,0.82726717,19.939884,-17.80149,66.91058
1.1413041,0.051615637,0.8434511,19.023302,-14.531279,66.34818
1.1017958,0.19004121,0.8311366,17.595394,-11.580277,65.59518
1.0442001,0.31080642,0.7930065,15.858766,-9.200825,64.67476
0.9905271,0.3977398,0.74853414,15.042581,-7.205567,62.87593
0.9684094,0.48030362,0.71839726,15.04607,-5.1642323,60.401337
0.95855826,0.5696592,0.6938837,15.067239,-2.9645383,57.813313
0.94257134,0.6656165,0.6628597,14.696303,-0.82418555,55.3091
0.92422074,0.75964826,0.6279263,13.733442,1.156118,52.944157
0.91109127,0.83661246,0.59080434,12.285747,2.9099288,50.659924
0.9093245,0.89316463,0.54989755,10.883685,4.4713535,48.324177
0.9285637,0.9474803,0.5138852,9.784947,5.981141,45.718456
0.9661435,1.0015345,0.484734,9.092835,7.665186,42.659927
1.0031396,1.0473877,0.45543915,8.673645,9.532597,39.346226
1.0297843,1.0927162,0.42290974,8.150066,11.43717,36.09804
1.0442817,1.1450266,0.38581812,7.2874417,13.096981,33.0319
1.0661407,1.196425,0.35700545,6.3574595,14.639536,29.795002
1.0937586,1.2314533,0.3363979,5.817774,16.261969,26.039873
1.1256168,1.2426478,0.32044268,5.6594033,18.012486,22.070726
1.1631458,1.2423922,0.31244358,6.0738726,20.008448,17.983303
1.1909819,1.267293,0.31096527,6.6088076,22.030903,13.860714
1.1963823,1.3148876,0.30748802,6.4424467,23.868961,9.94805
1.1767998,1.3461767,0.28423893,5.0051885,25.258652,6.6024003
1.1428379,1.3308473,0.23947689,2.8616507,26.035694,3.7500558
1.1254408,1.257736,0.19744645,1.3516526,26.546635,0.73672074
1.1532282,1.1403631,0.1809991,1.0024269,27.360313,-2.5575008
1.1922104,1.0276167,0.1810317,1.1725733,28.598362,-5.7088056
1.2075677,0.93502223,0.17716528,1.3228177,30.070318,-8.582455
1.1893743,0.8482933,0.15639311,1.0328008,31.39582,-11.011446
1.1513883,0.73846656,0.11730771,0.38004437,32.249157,-12.7997265
1.1184225,0.60296273,0.07618683,-0.23246185,32.852596,-14.175936
1.0941496,0.4602388,0.041850857,-0.76502794,33.33323,-15.102332
1.0699345,0.32562983,0.009457574,-1.1951283,33.728836,-15.7031145
1.0403883,0.19709714,-0.02904675,-1.7103921,34.044514,-15.9411955
1.0014431,0.056526545,-0.07923879,-1.7376677,34.199173,-16.03457
0.9624337,-0.09886449,-0.13250232,-1.1889981,34.301876,-16.058537
0.9244107,-0.24188149,-0.17588435,-0.39204928,34.3992,-15.8228445
0.880204,-0.36443654,-0.20381151,0.65818715,34.495224,-15.431762
0.8405166,-0.45647097,-0.21710807,1.6231145,34.59,-14.828543
0.80214113,-0.53784204,-0.23406139,2.1510882,34.575043,-13.776222
0.75453186,-0.6549403,-0.2745917,2.7913558,34.396038,-12.452732
0.7039553,-0.7882158,-0.3227251,3.9462028,34.093346,-11.045083
0.66019183,-0.90485203,-0.36187848,5.430215,33.665367,-9.376383
0.63192385,-0.99741924,-0.38053393,7.039462,33.31695,-7.2932396
0.6178719,-1.0636984,-0.37817994,8.87397,33.398186,-4.8769207
0.6033607,-1.0986706,-0.37650186,10.741381,33.534557,-2.502398
0.57588816,-1.1213498,-0.38771012,12.548352,33.43365,-0.23552941
0.5443251,-1.1288368,-0.40520376,14.321993,33.018757,2.0004537
0.52356935,-1.1103314,-0.41700247,15.902055,32.405876,4.1797614
0.522765,-1.0680406,-0.41322735,17.279623,31.931736,6.0931416
0.52890277,-1.0179269,-0.41331452,18.394243,31.60136,7.755177
0.52642375,-0.97843564,-0.4317476,19.283329,31.289234,9.333282
0.51020753,-0.9495017,-0.47543424,20.126749,30.743696,10.96826
0.48967582,-0.9206126,-0.5345483,21.050516,30.001034,12.583623
0.47161788,-0.87868536,-0.5959815,21.902714,29.10782,14.201108
0.4512815,-0.8188729,-0.66552395,22.658903,28.089937,15.696317
0.42632645,-0.748081,-0.74304134,23.224615,26.916965,17.075119
0.38750282,-0.67411685,-0.8315998,23.424397,25.481028,18.375755
0.33791682,-0.604909,-0.9233314,23.371305,23.788656,19.522392
0.28673968,-0.54193103,-1.0124708,23.396307,21.798323,20.26015
0.24857183,-0.47421774,-1.0853033,23.567589,19.708614,20.716724
0.22299683,-0.3941299,-1.1482012,23.720068,17.623861,20.925945
0.20060608,-0.30831507,-1.2073306,23.59479,15.557214,21.008318
0.1718875,-0.22536394,-1.2710034,22.941114,13.408831,21.135767
0.13601048,-0.15265383,-1.3380761,22.105825,10.937111,21.14284
0.120105445,-0.07385981,-1.3813509,21.540949,8.415478,20.810219
0.12157041,0.02875783,-1.4006772,20.995756,6.0094213,20.223034
0.12180246,0.15653817,-1.4102757,19.94541,3.6981297,19.419853
0.112159744,0.28105125,-1.4228824,18.249567,1.3985069,18.466587
0.10072822,0.38523096,-1.4373097,16.071547,-0.8612786,17.299343
0.09802105,0.47434065,-1.4548738,13.933348,-3.0443997,15.856296
0.09527401,0.558563,-1.4811556,11.946045,-5.1894717,14.031842
0.087526895,0.63877064,-1.5142269,9.943003,-7.3910794,11.990363
0.07552998,0.71796125,-1.5522205,7.6999693,-9.714073,9.910053
0.0657183,0.79573095,-1.5960422,4.8855824,-12.265113,7.870198
0.060549453,0.8552509,-1.6507491,1.8014737,-15.050332,5.8961415
0.06642659,0.8969396,-1.7076101,-1.1670412,-18.071934,3.7707055
0.08509189,0.9259728,-1.7602903,-3.5896444,-21.172176,1.333049
0.120789565,0.95783913,-1.7973225,-5.420735,-24.251522,-1.4584231
0.16668761,1.0070403,-1.8166417,-7.41908,-27.331596,-4.2976646
0.2168239,1.0567915,-1.8274388,-9.9048,-30.549374,-6.819808
0.27433875,1.0950129,-1.831041,-12.497372,-33.833973,-9.282119
0.34750998,1.1312917,-1.823497,-14.603705,-37.06918,-12.171611
0.43375933,1.1789654,-1.801853,-16.511087,-40.151943,-15.351252
0.51432276,1.2373656,-1.7764287,-19.216703,-43.372375,-18.46198
0.5852343,1.259634,-1.755226,-22.086948,-46.6843,-21.603003
0.6625625,1.246185,-1.728859,-24.694515,-49.826256,-24.9255
0.7404676,1.2054265,-1.7009469,-27.059036,-52.847317,-28.281176
0.82594174,1.142387,-1.672255,-29.421999,-55.842525,-31.494097
0.93230003,1.0468597,-1.6310316,-31.644674,-58.5351,-34.521175
1.0471148,0.90303797,-1.5729333,-33.56034,-60.78809,-37.197105
1.1414955,0.7407457,-1.5194509,-35.115833,-62.73695,-39.42454
1.216984,0.57772243,-1.4692879,-36.343338,-64.49955,-41.221264
1.2862558,0.41947234,-1.4130894,-37.36527,-66.13302,-42.671093
1.3581326,0.26391497,-1.3365922,-38.062553,-67.35247,-43.748737
1.4256814,0.11292796,-1.2407103,-38.624043,-68.21075,-44.538048
1.4902209,-0.035905197,-1.1372291,-39.109104,-68.64116,-44.989098
1.5516895,-0.18321261,-1.0316174,-39.26161,-68.53925,-45.228397
1.5994704,-0.31966856,-0.9311042,-39.076733,-68.07368,-45.201756
1.6325272,-0.43785787,-0.8322292,-38.692337,-67.18926,-44.71977
1.653063,-0.5298805,-0.73612446,-38.190697,-66.0207,-44.131172
1.6670114,-0.6162017,-0.6441981,-37.634377,-64.56545,-43.34995
1.6697824,-0.697155,-0.5608036,-36.98896,-62.887585,-42.309902
1.6650251,-0.76319295,-0.4838999,-36.295216,-61.007324,-41.064682
1.657894,-0.81555927,-0.41281742,-35.63072,-58.889194,-39.622616
1.6476846,-0.8529054,-0.34544417,-35.114235,-56.50639,-38.04875
1.6300404,-0.88416857,-0.2882029,-34.724068,-53.931767,-36.40227
1.60373,-0.91816294,-0.24482532,-34.418255,-51.266323,-34.674072
1.5736,-0.9542429,-0.21335363,-34.08209,-48.67062,-32.813496
1.5246073,-0.92453337,-0.20671105,-33.02097,-47.1553,-31.791876
1.4771407,-0.8957492,-0.20027538,-31.992907,-45.687183,-30.802078
1.4311525,-0.8678616,-0.19404015,-30.996862,-44.26479,-29.843107
1.3865966,-0.8408426,-0.18799911,-30.031841,-42.8867,-28.914007
1.3434284,-0.8146651,-0.18214624,-29.096874,-41.55153,-28.013842
1.3016045,-0.78930277,-0.17647563,-28.191027,-40.257942,-27.14171
1.2610832,-0.7647304,-0.17098163,-27.313389,-39.00464,-26.29674
1.2218238,-0.74092317,-0.16565871,-26.463081,-37.790367,-25.478083
1.183787,-0.7178573,-0.16050155,-25.639254,-36.613907,-24.68492
1.1469346,-0.6955098,-0.15550499,-24.84108,-35.474083,-23.916454
1.1112298,-0.67385805,-0.15066402,-24.06776,-34.36975,-23.171919
1.0766367,-0.6528806,-0.14597379,-23.318521,-33.299805,-22.450567
1.0431207,-0.63255626,-0.14142959,-22.592611,-32.263176,-21.751677
1.0106484,-0.6128648,-0.13702689,-21.889303,-31.258823,-21.074547
0.97918713,-0.5937865,-0.13276127,-21.207893,-30.285742,-20.4185
0.94870543,-0.5753021,-0.12862846,-20.5477,-29.342958,-19.78288
0.91917276,-0.5573933,-0.124624334,-19.908062,-28.42953,-19.167051
0.8905596,-0.54004204,-0.12074487,-19.288338,-27.544538,-18.570395
0.86283726,-0.523231,-0.116986185,-18.68791,-26.687101,-17.992315
0.83597803,-0.5069434,-0.11334453,-18.106174,-25.85636,-17.432234
0.80995506,-0.49116284,-0.109816246,-17.542551,-25.051483,-16.88959
0.7847422,-0.47587356,-0.10639781,-16.996473,-24.271662,-16.363838
0.7603143,-0.46106032,-0.1030858,-16.467398,-23.516119,-15.854455
0.7366469,-0.4467082,-0.099876896,-15.954793,-22.7841,-15.3609295
0.71371627,-0.43280292,-0.096767895,-15.458147,-22.074867,-14.88277
0.69149953,-0.4193305,-0.09375568,-14.976961,-21.387716,-14.419495
0.6699744,-0.4062775,-0.09083723,-14.5107565,-20.721954,-13.970642
0.6491194,-0.3936309,-0.08800965,-14.059064,-20.076921,-13.535763
0.62891364,-0.38137794,-0.085270084,-13.621434,-19.451967,-13.114422
0.60933685,-0.36950645,-0.0826158,-13.197427,-18.846468,-12.706197
0.5903695,-0.3580045,-0.08004415,-12.786619,-18.259817,-12.31068
0.57199264,-0.34686062,-0.07755256,-12.3886,-17.69143,-11.927477
0.5541878,-0.33606365,-0.075138524,-12.002972,-17.140736,-11.556202
0.53693724,-0.32560277,-0.07279964,-11.629348,-16.607185,-11.196485
0.5202237,-0.31546754,-0.07053356,-11.267354,-16.090244,-10.847964
0.5040304,-0.30564782,-0.06833802,-10.916629,-15.589394,-10.510294
0.48834118,-0.29613376,-0.06621083,-10.576821,-15.1041355,-10.183135
0.47314036,-0.28691587,-0.06414986,-10.247592,-14.633982,-9.86616
