ax,ay,az,gx,gy,gz
-0.2172747,-1.3963764,-1.9054718,7.435522,-54.932316,1.054555
-0.19808513,-1.5520017,-2.0191226,6.859225,-59.613934,2.8786826
-0.23780704,-1.7122915,-2.0362108,8.054866,-63.426342,4.847835
-0.2931808,-1.9068422,-2.0180435,9.310517,-66.42711,7.725344
-0.34483978,-2.0820827,-1.975811,12.085748,-68.92796,10.4279995
-0.317064,-2.1088784,-1.8333554,15.863261,-70.48026,12.86368
-0.23156123,-1.9471858,-1.6222111,18.155138,-71.1706,15.226576
-0.14352472,-1.7325255,-1.4008874,18.28971,-71.108826,17.148182
-0.093548924,-1.6286979,-1.221919,17.441156,-70.93694,18.877712
-0.055291545,-1.6372858,-1.085217,16.858236,-70.89203,20.461422
0.013666084,-1.6930377,-0.9411797,16.794415,-70.75827,22.128119
0.10027879,-1.7545478,-0.7859162,17.387802,-70.29922,23.73426
0.1919668,-1.7984351,-0.6289571,18.136972,-69.38042,25.613823
0.27379888,-1.8348129,-0.48902422,18.773144,-68.35526,27.750639
0.35730392,-1.8627506,-0.3560452,19.538689,-67.242294,30.095053
0.44766375,-1.8776857,-0.21247752,20.563063,-65.99407,32.454834
0.5430575,-1.8733186,-0.054446865,21.933306,-64.42144,34.68338
0.6392669,-1.8427247,0.10239626,23.587046,-62.338768,36.892918
0.7227737,-1.7732162,0.24264191,24.858114,-60.06155,39.206223
0.7916266,-1.7055354,0.3617656,25.848036,-57.718773,41.700806
0.85295814,-1.6421531,0.47091374,26.777863,-55.338814,44.536995
0.9191776,-1.5658604,0.5728908,27.614927,-52.94213,47.85419
0.9905557,-1.4862415,0.6669403,29.315308,-50.423534,51.11347
1.0766033,-1.3946962,0.7559422,31.637749,-47.897465,53.959076
1.1752262,-1.2864404,0.85549676,33.57151,-45.208595,57.030205
1.2746694,-1.1638913,0.95691186,35.16007,-42.24056,60.214928
1.3700517,-1.0123799,1.0557954,36.435097,-38.890247,62.901157
1.453169,-0.8219232,1.1430601,36.985775,-35.07611,64.701706
1.5121592,-0.5763331,1.2102803,36.63891,-31.123787,65.6083
1.5559604,-0.32178542,1.2609979,35.27289,-27.095194,65.680626
1.5775392,-0.08312014,1.2854742,33.37224,-23.162176,64.87906
1.5817083,0.11145998,1.2870824,31.028414,-19.396027,63.69451
1.5727954,0.26976332,1.2753931,28.257526,-15.805852,62.35452
1.5391128,0.4141105,1.2587097,25.426859,-12.436477,60.93886
1.4832246,0.55228174,1.2401189,22.675898,-9.36514,59.235985
1.4245647,0.67064613,1.2157114,20.53289,-6.5395694,56.695477
1.3748448,0.7640051,1.1854644,19.262253,-3.9191015,53.17526
1.340282,0.8445405,1.1529713,18.325712,-1.4391992,49.084972
1.3126673,0.9197949,1.109478,17.235779,0.8762062,45.044952
1.2931899,0.9997351,1.0559648,15.74405,2.9800086,41.179443
1.2881142,1.094531,0.9938372,13.742057,4.9449253,37.282036
1.2836262,1.1702718,0.92181396,11.4363,6.80807,33.30648
1.2682776,1.2213972,0.84156185,9.647093,8.638727,28.664652
1.2571224,1.2664235,0.7664866,8.363951,10.52768,23.57634
1.257328,1.3254203,0.7012978,7.0030465,12.393766,18.446522
1.2532161,1.4053999,0.6559736,5.232607,14.245249,13.166951
1.2372278,1.4843931,0.618145,3.7521617,15.7991495,7.233003
1.2313894,1.5322938,0.58823234,3.652761,17.27529,-0.71239996
1.2762102,1.5025535,0.5730865,4.146251,18.898342,-8.951601
1.3302808,1.421096,0.569727,3.7987213,20.794643,-15.394254
1.3601538,1.3047336,0.55098385,2.6125083,22.452387,-19.965845
1.3744123,1.1531776,0.5162815,1.2343104,23.821022,-23.234934
1.4122488,0.9990644,0.47745296,0.40600276,25.133556,-25.674229
1.4548833,0.8486816,0.447568,-0.18813553,26.439398,-27.295044
1.4620097,0.69580805,0.41909254,-0.56002206,27.646126,-28.244946
1.452142,0.55565745,0.38552707,-0.7208041,28.689592,-28.753004
1.4506575,0.43699285,0.3479899,-0.9479684,29.592648,-28.839125
1.4586326,0.32605696,0.3105636,-1.4129835,30.541105,-28.250029
1.4458381,0.20377311,0.26493856,-1.6479759,31.575222,-27.558414
1.4152576,0.078375205,0.2059512,-1.317949,32.556698,-26.859583
1.3837414,-0.021162705,0.14673759,-0.87862784,33.40245,-25.899876
1.3507042,-0.105585426,0.09267459,-0.45073316,34.153347,-24.762207
1.3228232,-0.19744712,0.039101545,0.0037166402,34.787384,-23.090057
1.3005483,-0.2918428,-0.013846189,0.34012622,35.34835,-20.965958
1.2731826,-0.3916203,-0.071121365,0.8240556,35.880245,-18.628078
1.2416776,-0.4947348,-0.13674845,1.6442163,36.425323,-16.268091
1.2093836,-0.59389985,-0.20107687,2.7514682,36.991024,-13.771099
1.1829469,-0.6707449,-0.25433907,3.8115635,37.600094,-10.837126
1.1508199,-0.706331,-0.30047742,4.6020856,38.032745,-7.756177
1.1136774,-0.72746146,-0.33866268,5.241606,38.338036,-4.8581
1.0750343,-0.75014853,-0.37481156,5.9919868,38.584602,-2.2917156
1.0362743,-0.7713197,-0.41081017,6.806718,38.799683,0.13129188
0.9957789,-0.77629495,-0.45171562,7.68562,38.713066,2.385038
0.95068663,-0.7516744,-0.48594555,8.520096,38.39702,4.3380713
0.907233,-0.72209656,-0.51664424,9.218901,37.909573,6.081967
0.8676062,-0.69468904,-0.5508636,9.829144,37.268116,7.7707286
0.83050513,-0.663655,-0.59155375,10.558416,36.493217,9.194076
0.7893051,-0.6278825,-0.6310464,11.321794,35.527626,10.51907
0.747801,-0.5757578,-0.6586869,11.950623,34.445087,11.912808
0.7082392,-0.50615084,-0.68227994,12.459028,33.301365,13.253715
0.6636226,-0.42102343,-0.7090177,12.902945,32.044582,14.374433
0.6130456,-0.33215368,-0.7406234,13.071272,30.651525,15.349523
0.556576,-0.24900383,-0.7803989,13.07098,29.069017,16.068617
0.5047793,-0.16581841,-0.81980973,13.047654,27.422161,16.603455
0.46409866,-0.0726669,-0.8522401,13.009742,25.799273,16.881468
0.4293975,0.031354062,-0.8822833,12.925124,24.193764,16.884184
0.3994132,0.14090483,-0.91390955,12.469674,22.566725,16.806347
0.36586758,0.23871407,-0.95412654,11.485003,20.82498,16.533808
0.3275265,0.29845127,-1.0178326,10.424505,18.907124,16.118757
0.28921318,0.33557442,-1.0922692,9.50101,16.801546,15.533281
0.25781745,0.3650972,-1.1673188,8.813333,14.516175,14.775173
0.23956704,0.4049257,-1.2262106,8.16274,12.184739,13.955083
0.22953245,0.46011454,-1.2696208,7.418122,9.906137,13.006235
0.21621677,0.52957875,-1.3152561,6.6588535,7.5945764,11.886858
0.20704447,0.607014,-1.3681141,5.914042,5.2186227,10.531741
0.19009358,0.68350524,-1.426652,5.0095253,2.7401612,9.032344
0.15244976,0.74754775,-1.4921592,3.950343,0.051770408,7.4486017
0.09999009,0.801664,-1.5691974,2.773869,-3.1279948,5.7831693
0.04827668,0.8516696,-1.6649007,1.4666252,-6.733957,4.15301
-0.002871154,0.89950776,-1.7680569,0.101373546,-10.96814,2.463573
-0.037449725,0.9446543,-1.8714039,-1.0608052,-15.398924,0.69766104
-0.063322164,0.9985302,-1.9750934,-2.405628,-19.947733,-1.2014405
-0.08092021,1.0368207,-2.06925,-4.136947,-24.612799,-3.2466521
-0.07539777,1.0305834,-2.15118,-5.5795813,-29.37714,-5.4962792
-0.032129753,1.005286,-2.2130616,-6.317873,-34.321507,-8.022011
0.047413044,0.98393357,-2.245543,-6.5816436,-39.24032,-10.495169
0.1540077,0.9927962,-2.2435606,-6.8561764,-44.052498,-12.7860565
0.28234255,1.0186942,-2.20926,-7.826576,-48.68153,-14.938521
0.427867,1.0095961,-2.1358604,-9.134004,-53.034187,-16.932175
0.5859874,0.96809924,-2.037471,-10.341488,-56.90413,-18.857695
0.748108,0.9137443,-1.9176826,-11.288468,-60.110516,-20.694412
0.89920056,0.8666088,-1.7883599,-12.314291,-62.72749,-22.34423
1.0154195,0.8072302,-1.6659194,-13.106346,-64.863014,-23.900606
1.1025044,0.7456559,-1.5486482,-13.85839,-66.745285,-25.267502
1.1815056,0.69348735,-1.4296818,-14.573613,-68.315674,-26.477522
1.2461005,0.6533905,-1.3125012,-15.237965,-69.5973,-27.573643
1.2900403,0.6266074,-1.2074589,-15.980446,-70.66389,-28.530893
1.3015693,0.6072364,-1.1306281,-16.811981,-71.79037,-29.5191
1.294852,0.5762242,-1.084522,-17.655561,-73.279144,-30.501156
1.3110279,0.53471404,-1.0250864,-18.750456,-75.0238,-31.14445
1.34963,0.49359623,-0.9441077,-19.930996,-76.71783,-31.638361
1.4110476,0.44513202,-0.84238404,-20.624002,-77.97483,-32.44392
1.485315,0.39475343,-0.7263893,-21.200335,-78.354095,-33.134956
1.5377331,0.33893773,-0.62370205,-21.941198,-78.35265,-33.572483
1.5788281,0.2699426,-0.53004354,-22.641846,-78.23149,-33.96025
1.6262414,0.18148269,-0.43080312,-23.176142,-77.88598,-34.183826
1.6824546,0.0838836,-0.32469085,-23.50938,-77.1178,-34.143776
1.7410882,-0.010827484,-0.21724711,-23.575584,-75.59225,-33.77231
1.7750955,-0.09797582,-0.12822777,-23.508543,-73.66756,-33.15579
1.785837,-0.17362444,-0.057929505,-23.340942,-71.498726,-32.35319
1.7784925,-0.23990758,-0.0005359046,-23.165268,-69.26827,-31.370325
1.7564912,-0.29353634,0.0486534,-23.092016,-66.98381,-30.218542
1.7220653,-0.33341086,0.08335494,-23.14458,-64.842766,-28.863157
1.6813947,-0.3595244,0.09910066,-23.419777,-63.00602,-27.384665
1.6402166,-0.39391673,0.10853265,-23.427942,-61.426086,-25.843914
1.6073278,-0.42904332,0.12420976,-22.671844,-59.794655,-24.394897
1.5934925,-0.44012696,0.15580788,-21.479372,-57.837765,-23.008125
1.586627,-0.42776164,0.19744392,-20.31456,-55.58078,-21.598055
1.5778893,-0.41684023,0.23719114,-19.366568,-53.26677,-20.085577
1.5735961,-0.4212976,0.27763048,-18.742683,-50.922226,-18.304783
1.5736086,-0.44467083,0.31161043,-18.185717,-48.513916,-16.45782
1.5246149,-0.43082616,0.30190855,-17.61951,-47.003452,-15.945413
1.4771473,-0.41741276,0.2925089,-17.070942,-45.54004,-15.448966
1.4311583,-0.40441716,0.283402,-16.539461,-44.122208,-14.967982
1.3866016,-0.39182633,0.27457878,-16.024532,-42.74854,-14.501981
1.3434328,-0.37962765,0.26603034,-15.525643,-41.417656,-14.050492
1.3016083,-0.3678089,0.25774816,-15.042291,-40.12822,-13.613065
1.2610865,-0.3563582,0.24972391,-14.573993,-38.878944,-13.189261
1.2218266,-0.34526414,0.24194954,-14.120277,-37.66857,-12.778656
1.1837893,-0.33451554,0.2344173,-13.680692,-36.49589,-12.380837
1.1469364,-0.3241017,0.22711961,-13.254796,-35.35973,-11.995406
1.1112313,-0.31401208,0.22004916,-12.842161,-34.25895,-11.621979
1.0766379,-0.30423668,0.21319889,-12.442376,-33.192444,-11.260179
1.0431217,-0.29476565,0.20656191,-12.055039,-32.15915,-10.909644
1.0106491,-0.28558955,0.2001316,-11.679764,-31.15803,-10.5700245
0.9791876,-0.27669916,0.1939015,-11.316173,-30.18808,-10.24098
0.9487057,-0.26808557,0.18786539,-10.963902,-29.248331,-9.92218
0.9191729,-0.25974017,0.1820172,-10.622601,-28.337843,-9.613307
0.89055955,-0.2516546,0.17635112,-10.291925,-27.455702,-9.31405
0.8628371,-0.24382077,0.17086144,-9.971545,-26.601027,-9.024111
0.83597773,-0.23623085,0.16554268,-9.66114,-25.772959,-8.743198
0.8099546,-0.22887723,0.1603895,-9.360399,-24.970675,-8.471031
0.78474164,-0.22175255,0.15539676,-9.06902,-24.193367,-8.207338
0.7603137,-0.21484968,0.15055947,-8.786714,-23.440258,-7.951854
0.7366462,-0.20816173,0.14587277,-8.513196,-22.710596,-7.7043242
0.71371555,-0.20168197,0.14133197,-8.248193,-22.00365,-7.464501
0.69149876,-0.19540393,0.13693254,-7.9914403,-21.318712,-7.232143
0.6699736,-0.18932135,0.13267006,-7.742681,-20.655098,-7.007019
0.64911854,-0.18342812,0.12854029,-7.5016656,-20.012144,-6.788903
0.62891275,-0.17771836,0.12453908,-7.268153,-19.389204,-6.577578
0.60933596,-0.17218634,0.12066243,-7.04191,-18.785656,-6.372831
0.59036857,-0.16682655,0.11690646,-6.82271,-18.2009,-6.174458
0.5719917,-0.1616336,0.113267414,-6.610334,-17.634344,-5.9822607
0.5541869,-0.1566023,0.10974165,-6.4045687,-17.085426,-5.7960463
0.5369363,-0.15172763,0.10632564,-6.2052093,-16.553596,-5.6156282
0.5202227,-0.14700471,0.103015974,-6.012056,-16.03832,-5.4408274
0.50402945,-0.1424288,0.09980933,-5.824915,-15.539087,-5.271467
0.48834026,-0.13799535,0.096702516,-5.6435995,-15.055393,-5.1073794
0.47313944,-0.1336999,0.09369241,-5.4679284,-14.586757,-4.9483995
0.4584118,-0.12953816,0.090776004,-5.2977257,-14.132709,-4.7943687
