ax,ay,az,gx,gy,gz
-1.2045565,0.27000245,-2.7445705,-1.3318303,-30.40664,-8.600079
-1.3991663,-0.04541985,-3.0554316,-2.732724,-38.776905,-10.6093025
-1.33965,-0.35099912,-3.2307713,-4.9264636,-43.484818,-11.46107
-1.19432,-0.5872387,-3.297415,-7.9340563,-47.273262,-10.373617
-1.073899,-0.8320506,-3.3549469,-10.451101,-51.77084,-8.0016575
-0.9729669,-1.1108928,-3.3754766,-9.186246,-56.445297,-6.2533135
-0.82524896,-1.3334198,-3.3083267,-5.340139,-60.262638,-4.8642473
-0.65418667,-1.4881872,-3.1944325,-1.6853868,-63.044167,-3.309606
-0.5242021,-1.6345439,-3.0736392,1.0361348,-65.09647,-1.2838597
-0.43718404,-1.7653921,-2.93503,3.2124836,-66.63508,1.0729014
-0.3683297,-1.857325,-2.7742207,5.053413,-67.92311,3.591623
-0.29946494,-1.9030443,-2.592074,6.227128,-69.00708,6.5161247
-0.22062407,-1.9353478,-2.3793063,6.92673,-69.73803,9.384549
-0.14152536,-1.9840441,-2.167277,7.4926505,-70.05611,12.295314
-0.074327946,-2.0501409,-1.9602625,8.106379,-70.14758,15.382826
-0.007875578,-2.1066608,-1.7353315,8.842106,-69.99936,18.653315
0.064408794,-2.128491,-1.4811112,9.327671,-69.32461,22.341473
0.11679755,-2.136954,-1.2414823,9.331999,-68.4589,26.077246
0.16757321,-2.202938,-1.0479242,9.743569,-67.62711,29.511518
0.23777616,-2.3098838,-0.86054224,11.283853,-66.73502,32.550335
0.3422488,-2.3904388,-0.6502485,13.560392,-65.543236,35.59945
0.47871825,-2.4059324,-0.4206027,16.071596,-63.66859,38.693165
0.63567334,-2.3223412,-0.18360367,18.492949,-61.267277,41.40079
0.78707534,-2.1716208,0.04852507,20.500984,-58.510193,43.642883
0.9170909,-2.0006807,0.25911787,21.996489,-55.515102,45.603554
1.0224936,-1.8412005,0.43905193,22.99534,-52.271385,47.377632
1.1111299,-1.6906207,0.59016067,23.757275,-48.70576,48.896774
1.1961358,-1.51705,0.718551,24.231998,-44.937805,50.233913
1.2668408,-1.3227005,0.82485205,24.252972,-41.11279,51.37455
1.325849,-1.1236781,0.9099842,23.752304,-37.301464,52.34383
1.3728198,-0.92871,0.9735567,22.91774,-33.506927,53.075348
1.4100169,-0.7435458,1.0155252,21.714533,-29.67003,53.4961
1.440352,-0.57071465,1.0369153,20.659847,-25.854298,53.42898
1.4614588,-0.4185072,1.0315202,20.32196,-22.028841,52.461254
1.4820236,-0.26881674,1.0106066,20.31734,-18.24366,51.002285
1.4950861,-0.11570222,0.9759137,20.032347,-14.586953,49.471634
1.4931917,0.049570225,0.925235,20.378143,-11.20503,46.41163
1.4826458,0.29556555,0.8704396,21.16309,-8.0947485,41.07092
1.4823263,0.5145313,0.828555,21.280968,-5.1702547,34.947533
1.4804494,0.63517886,0.7835588,20.058685,-2.2740188,30.145628
1.4576961,0.71109563,0.71619606,18.349066,0.59709,26.313997
1.4248133,0.7810407,0.63885105,17.040632,3.270807,22.322447
1.3945584,0.8485676,0.57783556,15.620772,5.7546387,18.487934
1.3671336,0.9055446,0.52370125,14.032201,8.042397,14.912432
1.3447284,0.95256674,0.4790855,12.447281,10.181325,11.416769
1.3287528,0.9984517,0.45062235,10.839741,12.181796,8.027341
1.3188897,1.0358514,0.43341193,9.081507,14.074486,4.781931
1.3053459,1.0375714,0.409355,7.09952,15.850514,1.7709259
1.2892416,1.0031848,0.38005584,5.028303,17.420202,-0.93643826
1.2843173,0.94109935,0.355168,3.2106032,18.789259,-3.4996731
1.3049139,0.8665924,0.3439986,1.6098859,20.218208,-5.9198194
1.3394854,0.77551943,0.33117807,0.3739101,21.840042,-8.021531
1.3529322,0.6508265,0.29566032,-0.3848639,23.449163,-9.798675
1.343255,0.5271616,0.24348244,-0.86744356,24.859762,-11.094866
1.3179371,0.41823253,0.18675192,-1.3219402,25.900442,-11.984977
1.2922971,0.31948468,0.13273683,-1.721457,26.759817,-12.731535
1.2716695,0.22354813,0.08430836,-1.8675755,27.648067,-13.545216
1.2494276,0.12606369,0.041857406,-1.8963968,28.630234,-14.221477
1.2209585,0.035175018,0.0006331335,-2.0418284,29.595186,-14.660147
1.1877356,-0.054177884,-0.041015536,-2.3272045,30.501974,-14.840693
1.1446401,-0.15454237,-0.089413635,-2.6718998,31.226103,-14.749201
1.0933017,-0.27183628,-0.14496201,-2.7751539,31.661911,-14.356406
1.0360241,-0.40237474,-0.20446104,-2.4803102,31.905045,-13.811573
0.9831756,-0.53304714,-0.2581967,-1.8669893,31.978397,-13.04544
0.9329137,-0.6558549,-0.30455354,-1.0862162,31.84499,-12.01498
0.89050037,-0.7666359,-0.34011263,-0.11847337,31.68085,-10.815866
0.85596865,-0.8613815,-0.36693323,0.8418284,31.539906,-9.301475
0.8296412,-0.94572896,-0.38321865,1.5822604,31.403725,-7.4555273
0.80359197,-1.0319679,-0.3978708,2.2549121,31.231176,-5.182352
0.7775215,-1.1205188,-0.41493443,3.1483219,30.961248,-2.483116
0.75840104,-1.195453,-0.42334223,4.1305366,30.626478,0.8996408
0.75361896,-1.2332119,-0.42266363,4.872502,30.667637,4.9289513
0.73880184,-1.2496538,-0.4400756,6.0550766,30.967155,8.398672
0.7065536,-1.2598138,-0.47803655,7.632313,31.2452,11.38437
0.65718013,-1.2556697,-0.52792984,8.976031,31.171886,14.378406
0.5965745,-1.2407753,-0.57967144,10.115468,30.571745,17.4232
0.5474615,-1.205629,-0.61973536,11.086537,29.539688,20.28182
0.53396106,-1.1347687,-0.63310325,11.742623,28.552765,22.82191
0.5291975,-1.0565202,-0.6419669,12.048085,27.638315,25.058104
0.5202057,-0.9868578,-0.6585518,12.41296,26.79385,26.815899
0.5062431,-0.9212403,-0.680776,13.062156,25.972809,28.115047
0.49285632,-0.84615207,-0.70769876,13.634715,25.066778,29.155218
0.471469,-0.7526839,-0.74397993,14.071747,23.990211,29.931547
0.44702685,-0.65033126,-0.78664213,14.454451,22.698727,30.266565
0.42471853,-0.5515711,-0.8325879,14.64848,21.285604,30.360743
0.40328053,-0.4534251,-0.8826226,14.698298,19.766249,30.262182
0.38626152,-0.35960472,-0.9354225,14.514755,18.088541,30.019264
0.3714475,-0.26203045,-0.99133885,14.118801,16.278576,29.759212
0.35726172,-0.15853189,-1.0471373,13.582351,14.38271,29.375378
0.3429314,-0.053089235,-1.1048917,12.990274,12.397898,28.7283
0.3335356,0.051261775,-1.1632247,12.323296,10.346053,27.820702
0.3260974,0.15365075,-1.2213367,11.612487,8.160514,26.676212
0.31529495,0.25639683,-1.2813646,10.635705,5.8531203,25.417027
0.29838815,0.3479442,-1.345783,9.384231,3.3971796,24.058273
0.27632245,0.42777672,-1.4183319,7.9928465,0.76110023,22.645084
0.25839344,0.502399,-1.4921863,6.698841,-2.1181288,21.05702
0.26063207,0.583327,-1.5527998,5.4227448,-5.0877857,19.133614
0.27102017,0.67023647,-1.5990945,3.8454154,-8.084005,17.192606
0.27061334,0.74559677,-1.6430248,1.806663,-11.268102,15.242184
0.26725155,0.8042148,-1.689321,-0.22130632,-14.628447,13.099549
0.27533296,0.851588,-1.7351918,-1.9243509,-18.209068,10.664041
0.30483127,0.8977531,-1.7708149,-3.3317962,-21.98971,7.876262
0.36328048,0.9411255,-1.7847136,-4.8074493,-25.697319,5.029329
0.42738593,0.98120075,-1.7767941,-6.633036,-29.288517,2.3537207
0.4849856,1.0135894,-1.7546421,-8.885166,-32.75179,-0.0722045
0.5430253,1.0272071,-1.7280988,-11.386622,-36.15405,-2.3630013
0.6095411,1.0170921,-1.6980821,-13.084149,-39.405846,-5.2370377
0.69069296,1.007294,-1.6593045,-14.284861,-42.45292,-8.437989
0.76945865,1.0192933,-1.6050235,-15.794425,-45.301743,-11.477758
0.8336576,1.0249602,-1.5530345,-17.894396,-48.097538,-14.321457
0.8857127,1.0041935,-1.5095333,-20.195093,-51.00184,-17.184631
0.9396934,0.9548303,-1.4669566,-22.20305,-54.0208,-20.220842
1.0212289,0.8746502,-1.4012384,-23.75619,-56.77978,-23.243917
1.1134945,0.7890594,-1.3125119,-25.030546,-58.997765,-25.923197
1.1903453,0.71883065,-1.2225382,-26.375406,-60.821083,-28.22001
1.2446599,0.65304095,-1.145662,-27.8951,-62.55697,-30.296684
1.2847489,0.5846632,-1.0795399,-29.456722,-64.37939,-32.37504
1.3243335,0.5105373,-1.0136759,-30.952454,-66.13537,-34.439823
1.3664211,0.4220244,-0.94718933,-32.29116,-67.78516,-36.466736
1.4244876,0.30898044,-0.8645821,-33.40738,-69.10004,-38.194546
1.4922068,0.18098977,-0.76816547,-34.298603,-69.850945,-39.465252
1.5564727,0.056526814,-0.66834044,-34.848248,-69.8615,-40.25894
1.6110069,-0.06031351,-0.57135046,-35.192482,-69.41541,-40.717953
1.6559271,-0.17575094,-0.47274524,-35.396694,-68.5022,-40.789978
1.7167339,-0.2989255,-0.35575408,-35.478565,-66.748604,-40.23423
1.8151402,-0.4271973,-0.20724572,-35.692852,-63.758827,-38.808
1.9063036,-0.53418165,-0.0638054,-35.68943,-58.892807,-36.489
1.8700404,-0.57968014,-0.03484577,-35.355343,-54.35722,-34.677677
1.7779753,-0.61363786,-0.047183886,-35.124832,-50.64361,-32.98366
1.6787837,-0.64563364,-0.06390229,-35.05738,-47.73197,-31.275911
1.6054807,-0.6849782,-0.06116478,-34.826664,-45.21145,-29.767773
1.5495354,-0.72982275,-0.046305098,-34.034805,-42.79229,-28.548056
1.4886075,-0.75374436,-0.035334066,-33.318947,-40.53788,-27.30934
1.4204857,-0.7682635,-0.033206154,-32.695747,-38.528584,-26.1054
1.3498783,-0.7778773,-0.03603339,-32.12996,-36.77958,-24.988398
1.2844605,-0.7818045,-0.036406007,-31.697762,-35.2181,-24.018335
1.2309208,-0.7841459,-0.030196987,-31.442472,-33.63497,-23.14314
1.1864909,-0.7850443,-0.021815022,-31.299633,-32.006138,-22.27809
1.1459672,-0.78622615,-0.019049652,-31.121357,-30.43185,-21.411503
1.1102867,-0.7617464,-0.018456528,-30.152372,-29.484333,-20.74484
1.0757178,-0.73802936,-0.017881881,-29.213573,-28.566334,-20.098946
1.0422257,-0.71505105,-0.017325135,-28.304018,-27.676931,-19.473173
1.0097768,-0.69278854,-0.016785732,-27.422796,-26.815233,-18.866892
0.9783388,-0.67121947,-0.01626313,-26.569023,-25.980375,-18.279495
0.9478799,-0.6503222,-0.015756804,-25.741844,-25.171522,-17.710396
0.9183697,-0.6300758,-0.015266251,-24.940426,-24.38786,-17.15902
0.88977855,-0.61046,-0.014790975,-24.163969,-23.628605,-16.624817
0.86207783,-0.59145504,-0.0143305,-23.411692,-22.892996,-16.10725
0.83523977,-0.573042,-0.013884365,-22.682844,-22.180296,-15.605803
0.80923754,-0.55520236,-0.013452124,-21.976692,-21.48979,-15.11997
0.784045,-0.5379182,-0.0130333435,-21.292532,-20.820787,-14.649267
0.75963694,-0.52117234,-0.012627603,-20.629675,-20.172617,-14.193222
0.7359889,-0.5049479,-0.012234497,-19.98746,-19.54463,-13.751378
0.71307725,-0.48922864,-0.011853632,-19.365242,-18.936197,-13.323291
0.69087905,-0.47399884,-0.011484626,-18.762398,-18.346708,-12.908534
0.66937196,-0.45924327,-0.01112711,-18.178324,-17.775576,-12.506692
0.64853454,-0.44494712,-0.010780725,-17.612436,-17.222225,-12.117361
0.6283459,-0.43109608,-0.010445125,-17.064169,-16.686104,-11.740152
0.60878587,-0.4176763,-0.010119975,-16.53297,-16.166676,-11.374688
0.5898348,-0.40467435,-0.009804947,-16.018312,-15.663419,-11.020602
0.5714738,-0.3920772,-0.009499728,-15.519676,-15.175831,-10.677541
0.5536844,-0.37987226,-0.009204011,-15.036565,-14.703423,-10.3451605
0.53644884,-0.36804727,-0.008917501,-14.568494,-14.245723,-10.023128
0.5197499,-0.35659045,-0.008639911,-14.114996,-13.802272,-9.711121
0.50357085,-0.34549028,-0.008370963,-13.675616,-13.372627,-9.408828
0.48789546,-0.3347357,-0.008110387,-13.249915,-12.956358,-9.115945
0.47270808,-0.32431594,-0.007857924,-12.837467,-12.553047,-8.832181
0.45799348,-0.31422055,-0.0076133213,-12.437859,-12.1622925,-8.55725
0.443737,-0.30443943,-0.0073763323,-12.050692,-11.783703,-8.290878
0.4299243,-0.29496282,-0.0071467212,-11.675576,-11.416899,-8.0328
0.41654164,-0.28578123,-0.0069242585,-11.3121395,-11.061514,-7.782755
0.40357557,-0.27688545,-0.0067087207,-10.960016,-10.717192,-7.540494
0.39101312,-0.2682666,-0.0064998926,-10.6188545,-10.383589,-7.3057747
0.37884176,-0.25991607,-0.0062975655,-10.288313,-10.060371,-7.078362
0.36704928,-0.25182545,-0.0061015366,-9.968061,-9.747214,-6.858029
0.3556239,-0.24398673,-0.00591161,-9.657779,-9.443807,-6.6445546
0.3445542,-0.236392,-0.005727596,-9.357156,-9.149844,-6.4377255
0.33382905,-0.22903371,-0.00554931,-9.06589,-8.865031,-6.2373347
0.32343778,-0.22190447,-0.0053765737,-8.783691,-8.589086,-6.0431824
0.31337,-0.21499714,-0.005209215,-8.510278,-8.321729,-5.8550735
