ax,ay,az,gx,gy,gz
-0.48727718,-0.15181956,-2.3445668,-10.376457,-26.800243,-12.096474
-0.45141008,-0.26435176,-2.4562664,-7.090047,-29.531237,-13.6033125
-0.39989418,-0.44165617,-2.4914055,-5.56792,-31.151838,-13.132359
-0.43443796,-0.564389,-2.5106459,-4.5485606,-33.237885,-12.771424
-0.5178128,-0.66454464,-2.532617,-4.2653136,-35.85638,-12.093983
-0.59992677,-0.7834417,-2.553863,-4.4079137,-38.901993,-10.941018
-0.6741554,-0.9400932,-2.5697253,-3.9182289,-42.435635,-9.335904
-0.69461936,-1.0558196,-2.5222583,-2.5514603,-45.570663,-7.740842
-0.6294555,-1.0910289,-2.394739,-1.4069194,-47.858215,-6.5892878
-0.56146145,-1.1529633,-2.2911632,-0.83461875,-49.872074,-5.4143853
-0.5010693,-1.2895218,-2.2131698,-0.9161769,-51.949493,-3.5202084
-0.454196,-1.5057212,-2.1610324,-1.2211438,-54.094147,-0.88218045
-0.42043024,-1.7831995,-2.1021075,-0.056554932,-56.392506,2.0411022
-0.36229143,-2.0578017,-1.9888144,2.8710334,-58.431828,4.687493
-0.26499447,-2.2469249,-1.838742,6.5946083,-60.14768,7.4887486
-0.13935906,-2.3636012,-1.675727,10.012022,-61.448345,10.601361
-0.015479252,-2.4752758,-1.4949183,13.395834,-62.237053,13.920553
0.100114435,-2.5419893,-1.2808406,17.629877,-62.2456,17.319271
0.24548769,-2.4624174,-1.0266238,21.480331,-61.597427,20.588648
0.38553983,-2.3148952,-0.7873216,23.853796,-60.41518,23.760956
0.49953625,-2.2113535,-0.57967275,25.359781,-58.95949,26.737978
0.5863278,-2.1768255,-0.39785165,27.106611,-57.1921,29.699232
0.67010695,-2.1164994,-0.22042137,29.442709,-55.06405,32.49688
0.7720168,-1.9832689,-0.041038074,31.410889,-52.52304,35.199753
0.8703359,-1.8190265,0.12598899,32.73648,-49.583202,37.74845
0.956252,-1.6467468,0.27874658,33.496,-46.337223,40.175194
1.0258976,-1.4644432,0.4141996,33.826363,-43.025063,42.689182
1.0655918,-1.2679995,0.5292556,34.164192,-39.998524,44.962795
1.0703895,-1.0604745,0.61834383,34.69581,-37.29564,46.73523
1.1064154,-0.8297241,0.70856196,34.756466,-34.54183,47.905457
1.1691833,-0.5850976,0.7995272,34.103165,-31.430332,48.61351
1.2326101,-0.34925967,0.87136275,32.492035,-27.941189,49.051872
1.277689,-0.1387806,0.91537094,29.8702,-24.404715,49.370243
1.3016196,0.02714217,0.9211488,27.418497,-20.99472,49.22621
1.3252074,0.17960353,0.9117449,25.182775,-17.581509,48.54705
1.3453883,0.3274536,0.88819456,23.06065,-14.104476,47.37935
1.3502526,0.4618571,0.8442754,21.221174,-10.690007,45.640453
1.3432548,0.5785363,0.7796498,19.800825,-7.551062,43.37367
1.327577,0.6850166,0.70113647,18.507494,-4.691779,40.985966
1.3135147,0.79994214,0.62247854,17.18354,-2.1031888,38.4562
1.3006068,0.9286191,0.5448363,16.11502,0.2313946,35.139103
1.2875998,1.0583783,0.4712348,15.683634,2.386226,30.386545
1.2751681,1.1841047,0.40462273,15.596916,4.4109993,24.055796
1.2703654,1.2834226,0.34749794,14.850915,6.3113,18.219463
1.2545321,1.36678,0.28524885,13.25442,7.8229446,13.125482
1.23488,1.4145688,0.2312736,11.55517,9.224549,8.270486
1.2228035,1.429322,0.18135408,9.959733,10.555707,3.4809313
1.2230504,1.4127793,0.1390184,8.732634,11.899781,-1.0094081
1.2193664,1.3722827,0.10557119,7.679505,13.106797,-5.143133
1.2203711,1.3238236,0.08073371,6.5975947,14.208227,-8.892291
1.2203586,1.262075,0.06252996,5.4446073,15.180307,-12.3883505
1.2206821,1.1749125,0.054155286,4.249955,16.06173,-15.483607
1.2174857,1.0683465,0.0499408,3.165961,16.781195,-17.988155
1.216771,0.9497202,0.046383657,2.3399498,17.378187,-20.146833
1.2230729,0.82410944,0.049286183,1.7913245,17.942875,-22.077618
1.2286477,0.68510395,0.053962935,1.4079037,18.55928,-23.602955
1.2311913,0.53919727,0.05580562,1.1307992,19.227459,-24.62714
1.2358388,0.39010707,0.05790945,0.89772516,19.967522,-24.984196
1.2437828,0.24619436,0.059447877,0.60119295,20.71299,-24.780136
1.2448972,0.12097817,0.057511494,0.2794325,21.33653,-24.096231
1.2422371,0.01820493,0.047100548,-0.2986363,22.191837,-23.057766
1.2230824,-0.086251386,0.024969772,-0.83868265,23.046879,-21.940966
1.1971606,-0.21399708,-0.0007222143,-1.0443336,23.945166,-20.659842
1.1603974,-0.36818743,-0.03416808,-0.6997002,24.916735,-19.214354
1.1195233,-0.5147674,-0.07939972,0.019932406,25.89423,-17.50624
1.0763519,-0.64404607,-0.13400444,0.8424089,26.757988,-15.450769
1.0300633,-0.7589688,-0.19012037,1.836461,27.471153,-13.261674
0.9810513,-0.8577573,-0.24142973,3.16208,27.961088,-11.066445
0.9407131,-0.9234278,-0.287661,4.569835,28.298086,-8.92942
0.90813386,-0.9641656,-0.32395908,5.784539,28.536245,-6.7081985
0.87527096,-0.9922749,-0.3541763,6.8227215,28.69066,-4.3530364
0.8437847,-1.0071146,-0.38154674,7.869156,28.791431,-1.9537699
0.8177531,-1.0020304,-0.40740907,8.894558,28.848194,0.5173673
0.7916591,-0.9760228,-0.44031668,9.754567,28.79275,2.9845283
0.7562845,-0.9479861,-0.4835168,10.358192,28.410423,5.560205
0.71342826,-0.9222276,-0.53846765,11.071462,27.644636,8.014893
0.6789251,-0.8907972,-0.5901083,12.004565,26.653015,10.345113
0.6561246,-0.83559674,-0.6375108,12.889973,25.682093,12.460752
0.64236283,-0.7582057,-0.680346,13.760127,24.829323,14.2381115
0.62315065,-0.670046,-0.72286683,14.575193,24.017616,15.690461
0.58965755,-0.57250947,-0.7713865,15.277403,23.078318,16.824797
0.54833466,-0.46621576,-0.8179023,15.720665,21.934847,17.78615
0.5113603,-0.35113353,-0.85644215,15.721493,20.609251,18.524603
0.4838406,-0.23568851,-0.88714325,15.426808,19.280165,19.072424
0.45509726,-0.13101032,-0.9209142,14.94978,17.849812,19.407085
0.42639372,-0.042459264,-0.9547985,14.374929,16.382763,19.566223
0.3919844,0.03262591,-0.99331313,13.79737,14.7863245,19.55363
0.3592678,0.09826005,-1.0346466,13.079308,13.101023,19.428484
0.33075914,0.15174082,-1.0809667,12.227175,11.3698435,19.238436
0.30268654,0.19060987,-1.1340568,11.377243,9.544481,18.92625
0.28061125,0.22555102,-1.1850231,10.626968,7.652791,18.430878
0.2641835,0.26943615,-1.2327138,9.931045,5.7044954,17.786844
0.25203234,0.32764536,-1.2729152,9.027901,3.7109113,17.054306
0.24549136,0.39825076,-1.3103429,7.950871,1.7020745,16.23035
0.23631045,0.4618385,-1.3555654,6.6424885,-0.3635494,15.336967
0.2259184,0.5070943,-1.4075847,5.1482906,-2.4708366,14.416442
0.20944524,0.52369213,-1.4666538,3.626826,-4.6890917,13.526865
0.18899067,0.5155443,-1.5234234,2.4165819,-7.083521,12.661516
0.17083648,0.51393366,-1.5700307,1.4904664,-9.551296,11.69372
0.16190706,0.53239834,-1.6103913,0.65451187,-12.07104,10.550485
0.15641302,0.5650865,-1.6500757,-0.32480398,-14.643047,9.353603
0.14750066,0.6019931,-1.6906049,-1.7688634,-17.49443,8.160027
0.14005466,0.6220366,-1.7207446,-3.6515615,-20.65448,7.1106577
0.14286225,0.62010014,-1.7258717,-5.3855934,-23.90965,6.040891
0.16649172,0.6168825,-1.710396,-6.787106,-27.123621,4.829457
0.21116036,0.6234702,-1.6785245,-7.986581,-30.095837,3.4846168
0.2580165,0.6389615,-1.6443763,-9.150354,-32.83207,2.0067556
0.28952268,0.6538114,-1.6168196,-10.517576,-35.524452,0.5523403
0.30182663,0.6649211,-1.5899701,-12.331226,-38.28861,-0.7042129
0.3070402,0.6637385,-1.5664876,-14.514441,-41.28216,-1.864318
0.32790035,0.64154434,-1.5395614,-16.819658,-44.246754,-3.001426
0.36525652,0.59036183,-1.502908,-18.675941,-47.09763,-4.3579707
0.41279235,0.5267509,-1.4520311,-19.853846,-49.726143,-5.9213376
0.46273834,0.46556562,-1.382888,-20.960655,-52.112637,-7.2950377
0.51037484,0.4025838,-1.3075527,-22.082333,-54.300842,-8.460279
0.5539668,0.3293215,-1.2320472,-23.005354,-56.376926,-9.488276
0.6060449,0.25404754,-1.1498008,-23.587572,-58.410957,-10.554522
0.67111146,0.18124968,-1.0498366,-23.896719,-60.130367,-11.507589
0.74146867,0.11356103,-0.93302053,-24.114449,-61.48609,-12.324385
0.80648196,0.04620993,-0.8161442,-24.159925,-62.512295,-13.043387
0.8690294,-0.018010354,-0.70126534,-24.057547,-63.26877,-13.665791
0.9342354,-0.07841911,-0.5807193,-23.895618,-63.699272,-14.145175
0.9936681,-0.13186468,-0.45901313,-23.655067,-63.60867,-14.478382
1.0356082,-0.175294,-0.34795788,-23.363083,-63.209072,-14.704249
1.0619421,-0.21335003,-0.25095835,-23.00797,-62.614697,-14.862203
1.0853676,-0.24620079,-0.1605667,-22.70007,-61.896297,-14.950596
1.1157869,-0.28235638,-0.06614201,-22.45117,-60.85429,-14.903172
1.141084,-0.3210908,0.021911891,-22.128305,-59.379055,-14.6728115
1.1553146,-0.35790104,0.09828152,-21.67103,-57.721718,-14.398308
1.1643364,-0.39041808,0.16616586,-21.112062,-55.912655,-14.113365
1.1684679,-0.41849568,0.22744933,-20.462177,-53.922375,-13.873431
1.1644049,-0.44152504,0.27744877,-19.71281,-51.794582,-13.747418
1.153929,-0.4574216,0.31648526,-18.931683,-49.58675,-13.511296
1.1367732,-0.46998897,0.34343725,-18.053268,-47.436333,-13.196993
1.1156679,-0.4796424,0.36419338,-17.101496,-45.307316,-12.82977
1.0952204,-0.48183322,0.38115773,-16.154657,-43.164803,-12.432173
1.0801741,-0.4787558,0.39774913,-15.313362,-40.96553,-11.96143
1.0690528,-0.4708546,0.41547385,-14.578084,-38.59344,-11.436946
1.0609558,-0.45961896,0.4339852,-13.9645405,-36.065285,-10.854699
1.052208,-0.44574428,0.45117256,-13.586755,-33.340343,-10.157549
1.0404636,-0.43111873,0.46318537,-13.462097,-30.45516,-9.368099
1.0262517,-0.4181319,0.4706519,-13.582647,-27.437525,-8.48543
1.0030801,-0.40719968,0.47028914,-13.488508,-24.453081,-7.558054
0.9718505,-0.39452204,0.4556473,-13.068562,-23.691767,-7.322744
0.9415936,-0.38223928,0.4414615,-12.661695,-22.954165,-7.094763
0.91227907,-0.3703391,0.42771754,-12.267499,-22.239534,-6.8738823
0.8838776,-0.3588095,0.41440162,-11.885582,-21.547163,-6.6598816
0.85636055,-0.347639,0.4015004,-11.515558,-20.876354,-6.452545
0.8297005,-0.33681637,0.38900098,-11.157058,-20.226435,-6.2516656
0.8038707,-0.32633078,0.3768908,-10.809722,-19.596756,-6.057042
0.77884525,-0.3161717,0.36515772,-10.473202,-18.986685,-5.868479
0.75459903,-0.30632898,0.35379001,-10.1471615,-18.39561,-5.6857877
0.7311079,-0.29679275,0.3427763,-9.831274,-17.822945,-5.5087852
0.70834816,-0.28755346,0.33210555,-9.525222,-17.268108,-5.3372946
0.6862971,-0.27860186,0.32176703,-9.2287,-16.730549,-5.1711435
0.6649327,-0.269929,0.3117504,-8.94141,-16.209726,-5.0101657
0.6442335,-0.26152617,0.3020457,-8.663066,-15.705121,-4.8542004
0.62417877,-0.25338495,0.29264313,-8.393389,-15.216227,-4.703091
0.6047484,-0.24549723,0.2835333,-8.132107,-14.742554,-4.5566864
0.5859231,-0.23785508,0.27470714,-7.8789606,-14.283629,-4.41484
0.5676838,-0.23045085,0.26615575,-7.6336956,-13.838993,-4.27741
0.5500124,-0.22327717,0.25787058,-7.396066,-13.408199,-4.1442585
0.53289115,-0.2163268,0.24984337,-7.1658354,-12.990818,-4.0152526
0.51630294,-0.20959283,0.24206609,-6.9427724,-12.586431,-3.8902633
0.50023115,-0.20306851,0.23453091,-6.7266536,-12.194633,-3.7691648
0.48465973,-0.1967473,0.22723033,-6.5172634,-11.815033,-3.6518366
0.46957308,-0.19062288,0.22015701,-6.3143916,-11.44725,-3.5381608
0.45495608,-0.18468912,0.21330391,-6.1178355,-11.090918,-3.428024
0.44079414,-0.17894009,0.20666416,-5.9273987,-10.745677,-3.321316
0.42707306,-0.17337003,0.20023109,-5.7428904,-10.411185,-3.2179298
0.41377914,-0.16797337,0.1939983,-5.5641255,-10.087106,-3.117762
0.40089905,-0.1627447,0.18795954,-5.390926,-9.773115,-3.0207126
0.38841993,-0.15767881,0.18210876,-5.223118,-9.468899,-2.9266844
0.3763293,-0.15277062,0.17644012,-5.060534,-9.174153,-2.8355832
0.36461502,-0.14801522,0.17094795,-4.9030113,-8.888583,-2.747318
0.3532654,-0.14340785,0.16562673,-4.750392,-8.611902,-2.6618004
0.34226912,-0.13894391,0.16047117,-4.602524,-8.343835,-2.5789452
0.33161512,-0.13461894,0.15547611,-4.4592586,-8.084111,-2.498669
0.32129276,-0.13042858,0.15063652,-4.3204527,-7.8324733,-2.4208915
0.31129175,-0.12636867,0.14594759,-4.1859684,-7.5886683,-2.3455353
