ax,ay,az,gx,gy,gz
-1.530923,0.10000091,-4.2764025,26.245693,18.1438,15.813781
-1.5948063,0.39207473,-4.3452983,26.012848,14.268313,19.446468
-1.4937179,0.6334555,-4.32969,24.411285,11.965009,19.552639
-1.5275704,0.8027509,-4.3733416,22.604046,9.02095,17.724504
-1.6207845,0.9521621,-4.414906,19.721764,5.868178,15.070219
-1.7738984,1.0504363,-4.4912124,15.963031,0.86687773,12.667104
-1.9633119,1.0685004,-4.5966578,12.621923,-7.8289056,10.467092
-2.0948446,0.9883885,-4.6587796,10.000297,-17.56009,8.262024
-2.1562464,0.85096115,-4.673532,8.272174,-27.477562,6.1872134
-2.1364584,0.669228,-4.63711,7.3237414,-36.81537,4.394168
-2.0692575,0.45327446,-4.5580955,7.1814275,-45.126255,3.056305
-1.9833405,0.2488955,-4.4531527,8.282169,-52.922577,2.2882233
-1.8477519,0.10043569,-4.2917657,9.619412,-59.7968,1.96289
-1.6925194,-0.013407697,-4.107554,10.794273,-66.05265,1.9529886
-1.5177246,-0.12479423,-3.9024286,11.627678,-71.74737,2.1083064
-1.314371,-0.25345424,-3.6589556,12.119673,-76.56345,2.5756404
-1.095118,-0.4098361,-3.3809795,12.800462,-80.306725,3.3898256
-0.8725352,-0.56265825,-3.079239,13.601257,-82.55518,4.9318504
-0.67037785,-0.6897621,-2.7697628,14.52353,-83.80098,6.5136714
-0.49496472,-0.82455504,-2.4761727,15.926526,-84.46835,8.019585
-0.35369763,-0.953059,-2.1944852,17.901093,-84.78999,9.746699
-0.23549777,-1.0642657,-1.9228964,19.9463,-84.92238,12.379787
-0.12243911,-1.1514139,-1.6693044,22.157675,-84.850716,15.584528
0.007376592,-1.2011571,-1.4293431,24.647518,-84.30275,18.778524
0.15007651,-1.226784,-1.2028832,27.63258,-83.04986,21.38812
0.26683292,-1.2611296,-1.0058274,31.010653,-81.270546,23.71076
0.35500354,-1.27954,-0.8345069,34.61338,-79.05397,26.130665
0.43917894,-1.2360862,-0.6750219,37.685486,-76.51273,28.719309
0.5202175,-1.1463805,-0.5252017,39.842274,-73.68039,31.351576
0.58630013,-1.0372243,-0.39013967,41.264755,-70.59908,33.616695
0.6307673,-0.92175025,-0.26539215,42.197308,-67.28597,35.237564
0.65726537,-0.8145447,-0.15860802,42.491924,-63.87765,36.401493
0.6769049,-0.74212545,-0.07241919,42.46215,-60.44429,37.196804
0.7035853,-0.6826989,0.011331416,42.231987,-56.9081,37.991833
0.7312521,-0.61863256,0.0920957,41.743866,-53.235573,38.87961
0.7602424,-0.5421433,0.1688635,41.086987,-49.360657,39.65822
0.78489345,-0.45919347,0.23955865,40.54639,-45.074413,39.815742
0.8075819,-0.34636167,0.31091735,39.633278,-40.636795,39.91531
0.8260002,-0.21209607,0.37828672,37.895786,-36.137596,40.07549
0.84040713,-0.077311225,0.42778626,36.208797,-32.07556,40.060772
0.8538247,0.049709465,0.47761297,34.70558,-28.196177,39.682106
0.872448,0.17444351,0.52845615,33.125694,-24.305704,38.90015
0.886336,0.29127762,0.5704006,31.43337,-20.457102,37.953114
0.9047001,0.39831358,0.6016008,29.515282,-16.599041,36.765167
0.92595613,0.4810098,0.61152005,27.542269,-12.781593,35.341637
0.9383286,0.53278685,0.5954128,25.76859,-9.164455,33.66389
0.9508811,0.5644453,0.5710648,24.236614,-5.6459866,31.794094
0.95832783,0.5890559,0.53638744,23.018059,-2.1615665,29.855818
0.95862347,0.62983084,0.49413127,21.902386,1.1605071,27.849438
0.9540252,0.68506706,0.44621974,20.770742,4.295573,25.657394
0.9462334,0.7421651,0.39454213,19.522638,7.236472,23.256369
0.93726456,0.79659677,0.34035522,18.195517,9.945429,20.466331
0.9238594,0.8500617,0.28294984,16.859715,12.390318,17.323574
0.9060353,0.88814545,0.22627187,15.746688,14.414409,13.939575
0.88599193,0.89850956,0.18120927,14.925795,16.1853,10.378135
0.8665544,0.8706066,0.14490083,14.74139,17.880936,6.639634
0.85522425,0.82796985,0.11685462,15.474905,19.647198,2.8086417
0.8493178,0.8221701,0.099063724,16.285938,21.331652,-1.0079427
0.83437747,0.82298124,0.08034201,16.818682,22.909895,-4.827403
0.8146912,0.8025587,0.054500632,17.002468,24.306814,-8.473362
0.7949195,0.7531675,0.024275847,16.820942,25.535528,-11.911469
0.7815743,0.67667145,-0.0045669,16.424301,26.640139,-14.978076
0.77580315,0.58102024,-0.028528677,15.753462,27.692543,-17.356176
0.77439076,0.47171283,-0.051211324,15.044759,28.712528,-19.293962
0.76411456,0.3507789,-0.07929268,14.293626,29.62092,-20.72926
0.7468041,0.21660213,-0.110557534,13.5661745,30.415976,-21.664814
0.73069024,0.082846485,-0.14092118,13.129451,31.27794,-22.157814
0.7065471,-0.03660217,-0.17070712,12.935924,32.122498,-22.347141
0.6798621,-0.13201113,-0.19949184,12.815172,32.923084,-22.346882
0.64842606,-0.21600083,-0.23113984,12.595306,33.601505,-22.085827
0.6093451,-0.29795638,-0.2678148,12.314756,34.045494,-21.592506
0.5638028,-0.3794817,-0.30677032,12.029939,34.19142,-20.838045
0.52310014,-0.4560258,-0.34231058,11.845639,34.171658,-19.98449
0.48678285,-0.5256403,-0.37804398,11.742893,33.976395,-18.928669
0.4530199,-0.5938883,-0.4110838,11.670573,33.733406,-17.737358
0.4220389,-0.65914357,-0.44032103,11.596759,33.52349,-16.374496
0.38903382,-0.72195387,-0.46844634,11.5079975,33.355137,-14.8901615
0.35179657,-0.78635275,-0.509111,11.535854,33.055412,-13.209315
0.31245422,-0.83430487,-0.5590271,11.522353,32.570877,-11.432774
0.27287182,-0.87770975,-0.6020624,11.463132,31.946146,-9.573272
0.23819043,-0.9191146,-0.6372184,11.373122,31.257,-7.5834336
0.21457417,-0.9522283,-0.6674642,11.483929,30.622704,-5.5654664
0.1930699,-0.9693975,-0.7000721,11.725565,29.918575,-3.5720797
0.16879748,-0.9744151,-0.7266665,11.953693,29.077776,-1.5850929
0.14831868,-0.9729568,-0.7472878,12.038345,28.189098,0.5050878
0.12607677,-0.9700379,-0.77221113,12.012962,27.179365,2.6472907
0.10859343,-0.9690324,-0.7955857,12.1589,26.086935,4.68662
0.100074016,-0.96369874,-0.813855,12.5375805,25.006332,6.637989
0.091230035,-0.9477493,-0.83499175,13.110891,23.883587,8.536815
0.083575994,-0.9084575,-0.8551746,13.801773,22.763998,10.363786
0.07917225,-0.84253246,-0.8747168,14.32161,21.689503,12.077315
0.06695435,-0.76266474,-0.90215683,14.618543,20.457966,13.486158
0.050615825,-0.6901158,-0.9351762,14.993938,18.8451,14.441509
0.042304225,-0.6158255,-0.96133065,15.473956,17.170578,15.2062025
0.039322954,-0.5224552,-0.98693997,15.9063635,15.503155,15.767263
0.035998005,-0.41333246,-1.0172758,15.899472,13.716604,16.136923
0.02918269,-0.3031818,-1.0481552,15.297454,11.759352,16.214428
0.019738022,-0.21250585,-1.0774674,14.538916,9.699741,16.00907
0.012090703,-0.14009084,-1.1057,13.80999,7.5695815,15.611825
0.0031845884,-0.07651545,-1.1313883,13.0696745,5.348211,15.108873
-0.005441389,-0.009567779,-1.1506156,12.253512,3.110947,14.52642
-0.011985098,0.06052143,-1.1660845,11.3944025,0.83537394,13.748813
-0.0041493312,0.14033481,-1.1738869,10.375555,-1.374424,12.822239
0.0079352725,0.2164561,-1.1792281,9.118162,-3.4996066,11.778049
0.011432694,0.27377272,-1.1900505,7.7230864,-5.6209536,10.671379
0.002276449,0.31434485,-1.2054636,6.108937,-7.837649,9.477537
-0.010929423,0.3372343,-1.2187712,4.6272593,-10.116261,8.27161
-0.018636722,0.34851947,-1.2307571,3.3729115,-12.5176525,6.9683065
-0.014031851,0.35630092,-1.2395293,2.3406005,-15.030406,5.5611353
0.015222209,0.35757017,-1.229377,1.2606509,-17.555824,4.3236456
0.049672455,0.35493302,-1.204762,0.077486634,-19.730032,3.4180098
0.06156206,0.35774127,-1.1862799,-0.9297516,-21.539347,2.4493554
0.05203577,0.38387507,-1.1807841,-1.882631,-23.271114,1.2008281
0.05041365,0.42085043,-1.1711272,-3.1025448,-25.118095,-0.16277748
0.063897535,0.4514332,-1.1473091,-4.6400695,-26.958672,-1.5465313
0.08503243,0.46391797,-1.117503,-6.2493806,-28.745558,-2.9878654
0.10803133,0.4548203,-1.0866961,-7.7018847,-30.40811,-4.452634
0.12598015,0.42977098,-1.0622116,-8.831324,-32.04727,-5.964853
0.13978493,0.40385246,-1.0393955,-9.750521,-33.699898,-7.479264
0.15465425,0.37980267,-1.0123687,-10.635313,-35.394115,-8.931181
0.17339014,0.35796803,-0.9797986,-11.460143,-36.999302,-10.391018
0.2033177,0.33637878,-0.9415157,-12.354312,-38.482132,-11.81479
0.23514622,0.31203645,-0.8998168,-13.517214,-39.658188,-13.106682
0.25361446,0.27683422,-0.8638738,-14.693267,-40.725304,-14.375365
0.26508963,0.23407054,-0.82652897,-15.671023,-41.646927,-15.549332
0.26458848,0.196659,-0.79287213,-16.397717,-42.429535,-16.633444
0.25485224,0.19068937,-0.7565585,-17.107477,-43.235264,-17.624813
0.24171326,0.23719989,-0.7201627,-18.262726,-44.065296,-18.647993
0.22748905,0.29658666,-0.6939961,-20.12902,-44.930267,-19.722923
0.20072144,0.3366814,-0.68639714,-22.600515,-46.007797,-21.01713
0.18135943,0.33155277,-0.6870699,-25.350422,-47.37487,-22.461084
0.19894324,0.27638376,-0.6707495,-27.723774,-48.857094,-24.204046
0.26368654,0.16616485,-0.61828524,-29.61452,-49.931973,-25.84706
0.32743958,0.0423788,-0.5626606,-31.085207,-50.642647,-27.205097
0.3787742,-0.080383115,-0.51085573,-32.12425,-51.194317,-28.268026
0.4240563,-0.19141033,-0.45649278,-32.84584,-51.57295,-29.007061
0.4668687,-0.2821636,-0.3981879,-33.36441,-51.79537,-29.607143
0.50672805,-0.3608415,-0.332452,-33.88012,-51.73719,-30.05358
0.5378728,-0.44450966,-0.26711398,-34.30942,-51.486973,-30.324572
0.56253624,-0.5288404,-0.20353132,-34.50681,-51.016514,-30.391403
0.5773399,-0.6041613,-0.14759605,-34.49663,-50.40488,-30.277498
0.5842412,-0.6698193,-0.099038586,-34.389854,-49.665966,-29.944809
0.5812448,-0.7341792,-0.058718655,-34.13627,-48.904488,-29.516066
0.5799918,-0.795507,-0.016354447,-33.687252,-48.06791,-28.96008
0.5827941,-0.8422534,0.03020083,-33.140106,-47.067352,-28.332087
0.5874393,-0.87667847,0.075897634,-32.60431,-45.875637,-27.607746
0.5947729,-0.9042096,0.12032689,-32.144096,-44.2802,-26.712135
0.60293657,-0.9261201,0.16589417,-31.721039,-42.407627,-25.696226
0.6066744,-0.94853127,0.20854804,-31.294035,-40.41477,-24.573233
0.5877877,-0.91900206,0.20205563,-30.319805,-39.156593,-23.808231
0.5694892,-0.8903924,0.19576539,-29.375912,-37.937603,-23.067053
0.55176044,-0.8626737,0.18967104,-28.461412,-36.75657,-22.348953
0.53458375,-0.83581805,0.18376645,-27.57539,-35.612312,-21.653215
0.51794195,-0.80979866,0.17804572,-26.716955,-34.503685,-20.979141
0.5018183,-0.78458947,0.17250311,-25.885252,-33.42958,-20.326057
0.4861967,-0.7601652,0.1671331,-25.079443,-32.388916,-19.693306
0.4710615,-0.73650146,0.16193028,-24.298725,-31.380657,-19.080257
0.45639753,-0.7135744,0.15688945,-23.542316,-30.40379,-18.486298
0.44219014,-0.69136125,0.15200558,-22.809458,-29.457336,-17.91083
0.42842507,-0.6698397,0.14727375,-22.099415,-28.540352,-17.35328
0.4150886,-0.6489882,0.14268926,-21.41148,-27.651917,-16.813086
0.40216732,-0.62878585,0.13824749,-20.744963,-26.79114,-16.289713
0.38964832,-0.6092125,0.133944,-20.099197,-25.957163,-15.782633
0.37751907,-0.5902485,0.1297745,-19.473536,-25.14915,-15.29134
0.36576745,-0.5718749,0.1257348,-18.867352,-24.366293,-14.815342
0.35438165,-0.55407333,0.121820875,-18.28004,-23.60781,-14.354163
0.34335035,-0.53682595,0.11802879,-17.711012,-22.872936,-13.907342
0.33266243,-0.5201155,0.11435476,-17.1597,-22.160942,-13.474431
0.3223073,-0.50392526,0.11079511,-16.62555,-21.471111,-13.0549965
0.3122745,-0.48823902,0.10734627,-16.108028,-20.802757,-12.64862
0.30255398,-0.47304112,0.10400479,-15.606618,-20.155209,-12.254893
0.29313612,-0.45831633,0.100767344,-15.120816,-19.52782,-11.873425
0.28401142,-0.44404992,0.09763067,-14.650138,-18.91996,-11.50383
0.27517077,-0.43022764,0.09459165,-14.194112,-18.331024,-11.145741
0.26660535,-0.41683564,0.09164722,-13.752281,-17.760422,-10.7987995
0.25830653,-0.40386054,0.08879446,-13.324205,-17.207582,-10.462659
0.25026608,-0.39128932,0.086030506,-12.909455,-16.671951,-10.136981
0.24247591,-0.37910944,0.08335259,-12.507615,-16.152994,-9.821442
0.23492825,-0.36730874,0.08075803,-12.118284,-15.650192,-9.515725
0.22761554,-0.35587534,0.07824424,-11.741074,-15.163041,-9.219525
