ax,ay,az,gx,gy,gz
0.421822,1.3963764,-2.5318413,7.324612,24.08113,-42.33675
0.3918894,2.1766498,-2.3946943,-2.0687497,23.890957,-42.637997
0.235836,2.544849,-2.495944,-13.412277,21.14083,-42.153248
-0.088983566,2.3341067,-2.7716112,-22.216715,14.665463,-40.963177
-0.47926173,1.8291748,-3.1226985,-25.504314,6.039468,-39.42
-0.7372172,1.1930026,-3.4548867,-24.364368,-3.929391,-37.593155
-0.8676389,0.66419774,-3.6270318,-21.069885,-13.935515,-35.81661
-0.8764809,0.2692057,-3.6535435,-16.842129,-22.952969,-34.245583
-0.79458123,-0.0047977865,-3.599518,-13.52141,-30.411375,-31.49346
-0.70100486,-0.18808353,-3.5189877,-11.5595455,-36.683407,-28.24792
-0.6409351,-0.3316264,-3.4536028,-10.8229,-42.450394,-24.730703
-0.6071687,-0.48526967,-3.392296,-11.026316,-47.79547,-21.369635
-0.58190274,-0.71372235,-3.3485816,-10.342952,-52.94741,-18.47734
-0.5583371,-0.98558253,-3.3149052,-7.8756814,-58.04048,-15.637678
-0.5097458,-1.2362965,-3.2584972,-4.829243,-62.856194,-12.435146
-0.425738,-1.4007138,-3.146141,-1.925622,-67.242195,-8.614349
-0.2891178,-1.451025,-2.9616182,0.121618144,-70.92229,-4.2479877
-0.10815042,-1.398974,-2.7311795,0.37709674,-73.9659,0.23440158
0.08881527,-1.3510575,-2.4738646,-1.7682935,-76.511765,4.425246
0.27794108,-1.440145,-2.1869075,-3.6989846,-78.32466,8.247262
0.4373219,-1.7119282,-1.8749815,-4.0872736,-79.18632,12.008689
0.58349186,-1.9491415,-1.5504866,-3.6344285,-79.210434,16.481852
0.71066767,-2.0832174,-1.2288437,-3.047084,-78.674484,21.501156
0.82015365,-2.1412072,-0.91404045,-3.2168899,-77.686844,27.200155
0.928464,-2.172186,-0.6099815,-3.8829112,-76.351265,33.02864
1.0269271,-2.2176814,-0.34157297,-3.306546,-74.630356,37.991417
1.1269807,-2.2300782,-0.096734636,-0.57432,-72.40222,41.463936
1.2439384,-2.1675482,0.14227176,3.441831,-69.55476,43.855923
1.3751998,-2.0218825,0.37928373,7.0285873,-65.891846,46.091286
1.4989341,-1.8200247,0.5884358,10.016283,-61.80492,48.06145
1.6076925,-1.5979983,0.7705606,12.6271925,-57.258434,49.501183
1.6999878,-1.353457,0.92552257,15.1506815,-52.306107,50.20892
1.769064,-1.0815382,1.0476047,17.153128,-47.14724,50.285564
1.8107905,-0.813962,1.1300147,17.73745,-42.10033,50.040524
1.8415562,-0.5967195,1.1742084,17.83083,-37.139824,49.578636
1.8692707,-0.3940367,1.1955769,17.858572,-32.20738,48.560818
1.8905166,-0.20375106,1.2033844,17.672503,-27.297945,47.06117
1.9110516,-0.033234164,1.205986,17.219616,-22.213068,45.25907
1.92354,0.10169187,1.1844057,16.9216,-17.02113,43.033985
1.9107589,0.21834786,1.1248252,16.970173,-12.243153,40.47844
1.8885373,0.3549392,1.0605303,17.065098,-7.932683,37.60525
1.8643768,0.5080031,0.9946879,16.81859,-3.9962058,34.52012
1.8366978,0.6636843,0.9239348,16.324713,-0.40966114,30.991966
1.7992512,0.80146176,0.8520207,15.53149,2.7241046,26.848433
1.7659216,0.8986782,0.78450316,14.310676,5.5533314,22.706408
1.7471246,0.96321994,0.7198161,12.9777155,8.1176195,18.708347
1.7438067,1.0001789,0.66473496,11.609167,10.647756,14.889938
1.7356848,1.0085415,0.61093074,10.260605,13.188171,11.153362
1.7122387,0.98656625,0.55062014,9.045086,15.63938,7.5267987
1.6851747,0.93592757,0.4904186,7.885853,17.890358,4.1654773
1.6646626,0.85835725,0.43772244,6.924091,19.981606,1.0874414
1.6519876,0.755512,0.3936316,6.1632085,22.105072,-1.6018116
1.6423668,0.63613105,0.35041502,5.4516287,24.2457,-3.7626603
1.6353362,0.51039374,0.30962116,4.4724207,26.543398,-5.026155
1.6168398,0.37333158,0.26242682,3.4568455,28.881004,-5.704836
1.5844706,0.22662947,0.20149216,2.7968888,31.126518,-6.0140977
1.5468367,0.088104255,0.13238814,2.421924,33.25803,-5.9869328
1.5030575,-0.0348957,0.05401551,2.2345314,35.15653,-5.6246963
1.4386313,-0.14270851,-0.038113035,2.360945,36.470543,-5.123883
1.367146,-0.24108788,-0.13240762,2.72143,37.37009,-4.5275435
1.2961675,-0.33349714,-0.2258784,3.0830739,37.831497,-3.7143319
1.2282892,-0.42717472,-0.31280494,3.3589041,37.93269,-2.5439925
1.15983,-0.5193082,-0.38853276,3.735608,37.805496,-1.1184696
1.0977337,-0.6003916,-0.45300335,4.414161,37.533115,0.53333527
1.050414,-0.6581963,-0.5039995,5.0694175,37.305447,2.328714
1.0028471,-0.6897532,-0.5502045,5.5592604,37.063972,4.1392584
0.93971735,-0.7239243,-0.60756385,6.106792,36.682026,5.839429
0.8680031,-0.76001227,-0.6769018,6.825216,35.994736,7.5524573
0.7921523,-0.78386897,-0.75048816,7.7729115,34.76721,9.299533
0.72767216,-0.787572,-0.8181047,8.854326,33.286854,10.966722
0.6755609,-0.78185445,-0.88254505,9.897769,31.677038,12.652232
0.62988454,-0.770985,-0.9480585,10.920164,29.980932,14.390491
0.5834318,-0.755934,-1.0183922,12.061882,28.164497,16.135242
0.5386677,-0.7225398,-1.0905006,13.303416,26.162066,17.838003
0.4984142,-0.64630294,-1.1604003,14.399814,24.006878,19.347603
0.46523723,-0.5360426,-1.2246901,15.162873,21.796677,20.365503
0.43690458,-0.4197058,-1.283405,15.605837,19.614197,20.806078
0.41176763,-0.32060805,-1.3423258,15.779926,17.415958,20.920025
0.38034645,-0.24646679,-1.4023327,15.809716,14.896156,21.009104
0.35735136,-0.16400547,-1.4465249,16.082918,12.259689,20.918236
0.3554501,-0.06281581,-1.4707661,16.506897,9.5968275,20.730341
0.37407228,0.06810519,-1.4767232,16.702015,7.0159163,20.406303
0.3972235,0.2205501,-1.4733344,16.533743,4.493036,19.656824
0.41617367,0.3682606,-1.4658417,16.13675,2.016559,18.363434
0.4363392,0.52010024,-1.44533,15.55689,-0.4112643,16.775852
0.46289375,0.67942566,-1.4199163,14.602649,-2.7806478,14.913214
0.4883182,0.82839257,-1.3971341,13.242127,-5.103113,12.788253
0.5076625,0.950246,-1.3812262,11.545885,-7.363036,10.577848
0.52131176,1.0485939,-1.3742273,9.47117,-9.566364,8.257889
0.53571814,1.1257957,-1.3785449,7.183102,-11.768516,5.8758736
0.55774945,1.1897706,-1.3855764,4.6617627,-13.992547,3.5254896
0.5919836,1.2413834,-1.3899735,1.8362035,-16.147974,1.2878612
0.6267926,1.271422,-1.3958906,-1.1998423,-18.172096,-0.78909355
0.6479211,1.2827051,-1.4070026,-4.0901766,-20.172264,-2.937867
0.64426357,1.2784913,-1.422268,-6.251452,-22.19324,-5.570504
0.6459753,1.2787575,-1.432423,-7.9112067,-24.3279,-8.549472
0.6748633,1.2909889,-1.4215927,-9.514784,-26.484907,-11.632916
0.72884464,1.302241,-1.3898818,-11.355856,-28.51288,-14.63632
0.78487533,1.2918907,-1.351983,-13.211431,-30.360611,-17.573744
0.8328632,1.2670898,-1.3089979,-14.886545,-32.02244,-20.456821
0.8661927,1.2490346,-1.266334,-16.295496,-33.603428,-23.415058
0.893978,1.23901,-1.2224509,-17.635363,-35.167095,-26.453768
0.9237314,1.2251167,-1.1750135,-19.076063,-36.710236,-29.496075
0.9561402,1.1886548,-1.1247581,-20.488667,-38.153484,-32.56672
0.98425514,1.1049631,-1.0708365,-21.270243,-39.54002,-35.75244
1.0222223,1.0250822,-1.0033789,-21.452154,-40.84687,-38.733494
1.0705117,0.98891985,-0.9229668,-21.679777,-42.09562,-41.434452
1.1186292,0.9876122,-0.84357727,-22.334375,-43.248123,-44.00507
1.1629937,0.975304,-0.78083503,-23.941269,-44.366425,-46.57704
1.1931201,0.8892194,-0.73961145,-25.72626,-45.56201,-49.04562
1.2226155,0.75836885,-0.70251584,-27.25933,-46.750614,-51.20854
1.2568626,0.60149324,-0.6585366,-28.36002,-47.852543,-53.043068
1.3043483,0.44459885,-0.5968221,-29.249321,-48.628876,-54.38065
1.3567709,0.29217422,-0.5318314,-30.09367,-48.781597,-55.26355
1.3936838,0.13466482,-0.47825477,-31.023897,-48.638443,-55.789722
1.4140773,-0.036279604,-0.43308482,-31.858448,-48.366615,-55.939896
1.4181887,-0.2181198,-0.39378285,-32.280785,-47.956806,-55.756306
1.4015731,-0.3913191,-0.36645982,-32.20871,-47.419067,-55.182835
1.3656582,-0.5397272,-0.34743753,-31.994366,-47.255657,-53.9768
1.3214548,-0.65679836,-0.33140838,-31.760075,-47.4587,-52.481323
1.2756716,-0.759341,-0.31033382,-31.019667,-47.6687,-51.139023
1.2260834,-0.8491495,-0.29306367,-29.653946,-47.746662,-50.032593
1.1878872,-0.822696,-0.28393385,-28.730135,-46.25921,-48.473927
1.1508828,-0.79706776,-0.2750889,-27.83515,-44.81817,-46.963894
1.1150329,-0.7722392,-0.2665199,-26.968088,-43.422085,-45.500973
1.0803013,-0.7481851,-0.2582182,-26.128073,-42.069553,-44.083683
1.046653,-0.7248813,-0.25017545,-25.314257,-40.759205,-42.7106
1.0140541,-0.7023042,-0.24238351,-24.525822,-39.489723,-41.380344
0.98247164,-0.6804311,-0.23483454,-23.76197,-38.259827,-40.091564
0.9518739,-0.65924,-0.22752094,-23.021936,-37.068275,-38.842968
0.92223006,-0.63870955,-0.22043535,-22.304974,-35.913876,-37.633297
0.89351034,-0.6188191,-0.21357064,-21.610361,-34.795456,-36.461334
0.86568576,-0.59954864,-0.2069199,-20.937399,-33.711903,-35.3259
0.8387284,-0.5808788,-0.20047644,-20.285412,-32.662117,-34.225857
0.8126113,-0.5627908,-0.19423379,-19.653744,-31.645052,-33.1601
0.7873079,-0.54526645,-0.18818568,-19.04176,-30.65968,-32.12755
0.76279306,-0.5282882,-0.18232603,-18.448845,-29.705011,-31.127174
0.73904204,-0.5118389,-0.17664896,-17.874405,-28.780088,-30.15797
0.716031,-0.49590212,-0.17114878,-17.317862,-27.883984,-29.218964
0.69373685,-0.48046187,-0.16581993,-16.778658,-27.015795,-28.30921
0.67213726,-0.46550262,-0.16065711,-16.256252,-26.174654,-27.4278
0.65121055,-0.45100936,-0.1556551,-15.75012,-25.359716,-26.573843
0.6309356,-0.43696755,-0.15080892,-15.259753,-24.570162,-25.74649
0.61129224,-0.42336315,-0.14611368,-14.78466,-23.805202,-24.944906
0.5922607,-0.41018248,-0.14156468,-14.324366,-23.064068,-24.16829
0.57382196,-0.3974123,-0.13715737,-13.878407,-22.346018,-23.415861
0.55595744,-0.38503987,-0.1328873,-13.446338,-21.650331,-22.686867
0.5386493,-0.37305275,-0.12875025,-13.027724,-20.976309,-21.980576
0.52188015,-0.36143896,-0.124742016,-12.622148,-20.323278,-21.296282
0.5056333,-0.35018682,-0.12085861,-12.229201,-19.690584,-20.633297
0.4898923,-0.33928508,-0.11709613,-11.848492,-19.077593,-19.990957
0.4746415,-0.3287228,-0.113450825,-11.479637,-18.48369,-19.36862
0.45986557,-0.31848946,-0.10991903,-11.122268,-17.90828,-18.765661
0.44554976,-0.30857474,-0.1064972,-10.776027,-17.350788,-18.181479
0.4316797,-0.29896873,-0.10318192,-10.440567,-16.810654,-17.615486
0.41824153,-0.28966185,-0.099969864,-10.115552,-16.287338,-17.067116
0.40522176,-0.28064474,-0.09685782,-9.800657,-15.780317,-16.53582
0.39260736,-0.27190837,-0.09384268,-9.495566,-15.289083,-16.021067
0.38038573,-0.263444,-0.09092141,-9.199975,-14.813142,-15.52234
0.36854458,-0.2552432,-0.08809109,-8.913587,-14.352019,-15.039141
0.35707211,-0.2472977,-0.0853489,-8.636115,-13.905254,-14.570986
0.34595683,-0.23959959,-0.08269207,-8.367281,-13.472398,-14.117406
0.3351876,-0.23214114,-0.08011796,-8.106818,-13.053018,-13.677947
0.32475364,-0.22491488,-0.077624,-7.854463,-12.646694,-13.252171
0.31464455,-0.2179136,-0.07520767,-7.609965,-12.253021,-12.839649
0.30485013,-0.21113029,-0.072866574,-7.3730783,-11.871603,-12.439971
0.29536065,-0.20455815,-0.07059836,-7.1435666,-11.50206,-12.052735
0.28616658,-0.19819061,-0.068400756,-6.9212,-11.144021,-11.677554
0.27725875,-0.1920213,-0.066271566,-6.7057557,-10.797128,-11.314054
0.2686282,-0.18604405,-0.06420866,-6.4970183,-10.461034,-10.961869
0.26026636,-0.18025286,-0.06220997,-6.2947793,-10.135403,-10.620648
0.2521648,-0.17464197,-0.060273506,-6.098836,-9.819909,-10.29005
0.24431546,-0.16920574,-0.05839732,-5.9089923,-9.514236,-9.969743
0.23671047,-0.16393875,-0.05657954,-5.7250586,-9.21808,-9.659407
0.2293422,-0.15883571,-0.05481835,-5.54685,-8.931142,-9.358731
0.22220333,-0.15389153,-0.053111985,-5.37419,-8.653136,-9.067416
0.21528667,-0.14910126,-0.051458735,-5.2069044,-8.383785,-8.785169
0.20858534,-0.1444601,-0.04985695,-5.044826,-8.122818,-8.511708
0.20209259,-0.13996342,-0.04830503,-4.8877935,-7.8699756,-8.24676
0.19580197,-0.13560672,-0.046801418,-4.735649,-7.6250033,-7.99006
