ax,ay,az,gx,gy,gz
-1.7963799,0.73546124,-2.383658,-4.0509458,-47.053154,16.979246
-2.0806496,0.71999454,-2.542961,-7.5301332,-55.11109,17.613783
-2.0856104,0.36063582,-2.5962958,-8.528673,-65.05326,16.517351
-1.8609723,-0.014565147,-2.4258373,-5.3349924,-73.07946,14.894435
-1.4626132,-0.23741153,-2.109585,-1.5967995,-77.13385,13.677749
-1.1532111,-0.33432052,-1.8546337,1.0612663,-78.23719,13.808031
-1.018732,-0.37538022,-1.7476405,2.8524554,-79.17945,14.311283
-0.9604567,-0.44130692,-1.7264482,3.851566,-81.33255,14.583691
-0.86057174,-0.6273362,-1.6808655,5.1889133,-83.57942,15.098745
-0.7221733,-0.93729407,-1.5969379,8.0365095,-85.231,15.649789
-0.5758082,-1.1993701,-1.4819353,12.188611,-86.093895,16.290796
-0.42970896,-1.3371834,-1.3353082,16.186583,-86.30128,17.816242
-0.27901945,-1.3688344,-1.1707019,19.341564,-86.14982,20.067455
-0.11836175,-1.3490275,-0.99625456,21.124506,-85.73521,22.510672
0.051685344,-1.4099647,-0.79221076,23.087318,-84.75274,24.729317
0.2069783,-1.477334,-0.57209986,25.617807,-83.16197,26.913137
0.34469745,-1.4691744,-0.3467603,28.230577,-81.16138,29.160294
0.4802388,-1.3986118,-0.12080206,30.298391,-78.61493,31.608608
0.58547,-1.3026243,0.080789976,31.686594,-75.72918,33.768013
0.6585238,-1.2483653,0.25965253,33.187656,-72.83587,35.667088
0.72781366,-1.199017,0.42850617,34.969364,-69.78131,37.459896
0.8025513,-1.1281283,0.59054625,36.82566,-66.46094,39.326283
0.8874747,-1.0195091,0.74384266,38.3761,-62.769512,41.511536
0.97601193,-0.8592763,0.8918246,39.001522,-58.433926,44.042767
1.0447168,-0.63717884,1.0196251,38.674698,-53.947277,46.146442
1.0943413,-0.41011173,1.1165577,37.850376,-49.542183,47.36031
1.1359761,-0.21063651,1.1916828,36.67925,-45.17333,47.89085
1.1678784,-0.051233795,1.2478871,35.33925,-40.736298,48.090538
1.1868317,0.08511657,1.2794579,34.308937,-36.303677,47.75957
1.2090383,0.22248636,1.2961514,33.311737,-32.035873,47.26373
1.2350867,0.3642709,1.3076584,32.167206,-27.860302,46.625786
1.2562822,0.4980049,1.3074282,30.96516,-23.843382,45.744347
1.2735999,0.6180667,1.2985666,29.576916,-19.901772,44.841827
1.2841365,0.72930235,1.2798272,27.88955,-16.096825,43.832455
1.291704,0.83329123,1.2509406,26.154606,-12.480383,42.67538
1.3006798,0.93518233,1.2180353,24.418451,-8.997686,41.201843
1.3112065,1.0279536,1.1791904,22.892378,-5.5755315,39.156418
1.3188974,1.1054265,1.1342254,21.551025,-2.2125616,36.671196
1.3124342,1.1678623,1.07535,20.323835,0.97946924,33.854515
1.2870052,1.2474709,0.9948926,19.228039,3.7825089,30.48299
1.2648472,1.36896,0.9098494,18.293207,6.0432076,25.830383
1.2615166,1.4712657,0.8404802,17.51878,8.053055,20.155031
1.271455,1.5188354,0.7906793,16.74607,10.284367,14.327009
1.2693228,1.5277294,0.7371501,15.694727,12.860118,9.133016
1.2366205,1.5203186,0.66896296,14.220392,15.452073,4.8462753
1.1889917,1.5072416,0.58983874,12.288215,17.704176,1.3076485
1.1410147,1.4788266,0.5161182,10.5263405,19.68221,-1.8827531
1.10483,1.4407277,0.45163423,8.896735,21.370584,-4.8054175
1.0846179,1.3842766,0.39429995,7.7152376,22.770786,-7.5403523
1.0806301,1.3125253,0.34295833,6.741797,23.956367,-9.890026
1.0682309,1.2188807,0.29557288,5.997712,24.9105,-11.822936
1.0462066,1.101217,0.2516213,5.5956855,25.73986,-13.208302
1.0275586,0.9908993,0.2094741,5.5372,26.52951,-14.398254
1.0170954,0.9009604,0.17529754,5.6047497,27.279335,-15.411528
1.006392,0.8206934,0.15140265,5.5828605,28.072035,-16.23546
0.9869083,0.7501795,0.12683633,5.3482585,28.883902,-16.81353
0.962479,0.674542,0.09103178,4.9817324,29.557783,-17.08753
0.93971896,0.5920677,0.052129358,4.590433,30.115322,-17.097607
0.91591203,0.49800998,0.0122683225,4.3208303,30.533253,-16.82019
0.8838959,0.38827187,-0.027870115,4.118461,30.906496,-16.220615
0.8469344,0.27899265,-0.07373932,4.2186213,31.187288,-15.42608
0.81359947,0.18980245,-0.11955789,4.3073707,31.476038,-14.386473
0.78265154,0.121035725,-0.1670476,4.4837837,31.701488,-13.270575
0.7433897,0.05880387,-0.21876526,4.5517607,31.665297,-11.959036
0.6994593,-0.008820166,-0.26854643,4.5506425,31.447691,-10.449031
0.66332185,-0.08136037,-0.31155506,4.6612697,31.20226,-8.780867
0.6303982,-0.15374528,-0.35124475,5.038049,31.000349,-7.0676165
0.5934041,-0.22429308,-0.39007375,5.7496824,30.672497,-5.3634157
0.5522881,-0.2843575,-0.42513838,6.731728,30.248451,-3.5176911
0.51605546,-0.3140328,-0.45262045,7.661463,29.782154,-1.5585707
0.47905585,-0.3253667,-0.4791869,8.532998,29.249788,0.3799802
0.4347628,-0.32764432,-0.5083693,9.375613,28.492487,2.2270515
0.39450598,-0.3196853,-0.53233206,10.180691,27.585794,3.9045298
0.3651532,-0.30862662,-0.55325365,10.92633,26.639286,5.453176
0.33403954,-0.30293623,-0.57621294,11.690037,25.723848,6.9993277
0.30030486,-0.29154608,-0.6020284,12.548498,24.81131,8.539316
0.26903006,-0.27053785,-0.62640107,13.473507,23.901545,10.069591
0.24044661,-0.23448482,-0.65241265,14.351084,22.953882,11.555862
0.2102031,-0.18615922,-0.68376505,15.136637,21.788538,12.807075
0.18141131,-0.12855193,-0.71712947,15.692777,20.512728,13.971635
0.15307663,-0.06751211,-0.75288194,16.088657,19.153137,15.002443
0.12294753,-0.0033390285,-0.79110277,16.44106,17.68939,15.852084
0.095611684,0.06811404,-0.8274971,16.707228,16.167097,16.566883
0.064468704,0.15035261,-0.86677915,16.682795,14.421178,17.038082
0.028322175,0.23011427,-0.910647,16.386833,12.472318,17.287075
0.00023958972,0.292002,-0.9520759,15.971938,10.420944,17.324972
-0.022584168,0.34171435,-0.99309254,15.66607,8.289464,17.173922
-0.036148302,0.39432788,-1.0290377,15.42356,6.1206164,16.910902
-0.042978697,0.46028516,-1.056941,14.949542,3.978689,16.640951
-0.05498238,0.5425737,-1.079758,14.165411,1.9316357,16.295404
-0.07318357,0.6252574,-1.1028845,13.163361,0.008833197,15.859485
-0.09772809,0.71133184,-1.133388,12.091781,-1.908431,15.307433
-0.11639295,0.8124915,-1.1648663,10.910834,-3.793648,14.63529
-0.12651919,0.9293197,-1.1949106,9.339428,-5.590559,13.62537
-0.13616899,1.0364493,-1.2295423,7.586672,-7.351699,12.267422
-0.14238685,1.121214,-1.2684591,5.8320026,-9.19273,10.675593
-0.14706424,1.189236,-1.3142141,3.959055,-11.351588,8.903076
-0.13768579,1.2406117,-1.3518069,2.0535715,-13.657957,6.9403644
-0.114385374,1.2776514,-1.3783417,0.0021280947,-16.01373,4.9040513
-0.08541424,1.2946879,-1.3962625,-2.0762453,-18.423122,2.8155274
-0.049265124,1.2941667,-1.4070607,-4.083529,-20.897776,0.6497451
-0.0009499884,1.2746763,-1.4052478,-6.105874,-23.325148,-1.432719
0.04881321,1.2347248,-1.3991833,-7.973212,-25.716286,-3.4592836
0.103912316,1.1837916,-1.3831334,-9.383749,-28.053293,-5.5098686
0.1707022,1.1408858,-1.3520764,-10.5061865,-30.14934,-7.475131
0.23286967,1.1079693,-1.318405,-11.570577,-32.132027,-9.277839
0.28457075,1.0844461,-1.2845725,-12.632049,-33.987812,-11.037353
0.3149366,1.0547972,-1.2536094,-13.471778,-35.87301,-12.9073715
0.33003482,1.0083295,-1.2225559,-13.628424,-37.880028,-14.975823
0.34182227,0.96091557,-1.1912894,-13.492717,-39.923187,-16.945234
0.3615978,0.92811376,-1.1535491,-13.524938,-41.999435,-18.60366
0.38820648,0.9063469,-1.1048919,-13.853042,-43.965073,-20.063684
0.41713163,0.88569736,-1.0482168,-14.591419,-45.905357,-21.413315
0.4555953,0.8482366,-0.98019004,-15.732877,-47.60803,-22.454397
0.49881008,0.7864495,-0.9032556,-16.94519,-49.099564,-23.308828
0.53830546,0.7146563,-0.8249855,-18.032127,-50.36377,-24.03953
0.57298285,0.6358502,-0.7464809,-18.891068,-51.485756,-24.657986
0.6113448,0.5610017,-0.66164064,-19.43978,-52.365364,-25.264727
0.64523685,0.4962499,-0.574963,-19.788786,-53.038734,-25.869656
0.68177843,0.43887925,-0.47771832,-20.360802,-53.53513,-26.259804
0.7237533,0.37152246,-0.37204394,-21.133646,-53.7783,-26.409578
0.76993227,0.2910646,-0.26088238,-21.914707,-53.64501,-26.349308
0.8108072,0.20283715,-0.15272266,-22.469833,-53.124165,-26.110292
0.8411547,0.120789364,-0.051956426,-22.518995,-52.153763,-25.677185
0.858625,0.079615735,0.041616563,-22.395517,-50.936058,-25.240488
0.87122065,0.06461413,0.13124272,-22.302492,-49.43884,-24.806013
0.8749514,0.055313148,0.209726,-22.49752,-47.725967,-24.310928
0.87317765,0.033158652,0.28009313,-22.665567,-45.768044,-23.800886
0.864327,0.0032236255,0.33633763,-22.74092,-43.64687,-23.204094
0.8438243,-0.031446196,0.36968195,-22.737902,-41.70208,-22.513762
0.8205351,-0.06132919,0.3972219,-22.620932,-39.87114,-21.715677
0.8031726,-0.08103158,0.42402792,-22.579828,-38.047855,-20.85126
0.7851679,-0.09937248,0.44523388,-22.51151,-36.218685,-20.017582
0.7659182,-0.118636444,0.45983118,-22.357882,-34.38951,-19.238382
0.74698824,-0.13997802,0.46995664,-22.17102,-32.552727,-18.390331
0.7286481,-0.15841256,0.47901922,-22.009007,-30.651556,-17.367271
0.70848197,-0.16792782,0.48465452,-21.905256,-28.76021,-16.239243
0.686422,-0.16269907,0.46956387,-21.223194,-27.864706,-15.733602
0.6650494,-0.15763322,0.4549434,-20.562382,-26.997103,-15.243716
0.6443426,-0.1527252,0.4407784,-19.922157,-26.156528,-14.769093
0.62428087,-0.14797008,0.4270547,-19.301878,-25.342142,-14.309254
0.6048441,-0.14336309,0.41375852,-18.700922,-24.553123,-13.863741
0.5860128,-0.1388996,0.4008765,-18.118685,-23.788683,-13.432105
0.56776804,-0.13457513,0.38839573,-17.554583,-23.048052,-13.013914
0.55009156,-0.13038537,0.3763037,-17.00805,-22.330492,-12.6087475
0.53296566,-0.1263261,0.3645883,-16.47854,-21.635279,-12.216202
0.5163731,-0.12239325,0.35323775,-15.965523,-20.96172,-11.83588
0.5002973,-0.11858289,0.3422407,-15.468482,-20.309135,-11.467404
0.48472214,-0.11489119,0.33158612,-14.98692,-19.676876,-11.110403
0.469632,-0.11131445,0.32126334,-14.520355,-19.064304,-10.76452
0.45501179,-0.1078491,0.31126204,-14.068319,-18.47081,-10.429407
0.44084686,-0.10449166,0.30157214,-13.630359,-17.895796,-10.10473
0.427123,-0.101238765,0.292184,-13.206037,-17.338688,-9.790163
0.41382647,-0.098087154,0.2830882,-12.794928,-16.798927,-9.485391
0.40094396,-0.09503368,0.2742756,-12.396619,-16.275972,-9.190109
0.38846257,-0.09207528,0.2657374,-12.010712,-15.769302,-8.904021
0.37636983,-0.089209,0.25746506,-11.636821,-15.278407,-8.626841
0.3646536,-0.08643196,0.24945027,-11.274571,-14.802796,-8.358291
0.35330212,-0.08374138,0.24168502,-10.9236,-14.341994,-8.098102
0.34230408,-0.08113457,0.23416154,-10.583556,-13.895538,-7.8460135
0.33164847,-0.07860893,0.22687231,-10.2541,-13.462982,-7.601774
0.3213246,-0.07616191,0.21981001,-9.9349,-13.043894,-7.365139
0.31132215,-0.07379108,0.21296757,-9.625639,-12.637853,-7.135871
0.3016311,-0.07149406,0.20633818,-9.326005,-12.244452,-6.9137406
0.29224175,-0.069268554,0.19991516,-9.0357,-11.8633,-6.6985254
0.2831447,-0.06711233,0.19369212,-8.754433,-11.494014,-6.4900107
0.27433088,-0.065023236,0.1876628,-8.481921,-11.136225,-6.287987
0.26579145,-0.062999174,0.18182118,-8.217894,-10.789573,-6.092253
0.25751784,-0.061038125,0.17616142,-7.9620857,-10.453713,-5.9026127
0.2495018,-0.059138127,0.17067786,-7.7142415,-10.128309,-5.7188754
0.24173531,-0.057297274,0.165365,-7.4741125,-9.813036,-5.5408587
0.2342106,-0.05551373,0.16021752,-7.241459,-9.507576,-5.368383
0.22692013,-0.053785708,0.1552303,-7.016048,-9.211626,-5.201277
0.2198566,-0.052111477,0.15039833,-6.797654,-8.924889,-5.039373
0.21301298,-0.050489366,0.14571677,-6.5860586,-8.647078,-4.8825088
0.20638238,-0.04891775,0.14118095,-6.38105,-8.377913,-4.7305274
0.19995819,-0.047395058,0.13678633,-6.1824236,-8.117129,-4.5832777
0.19373399,-0.04591977,0.1325285,-5.9899797,-7.8644633,-4.4406114
0.18770353,-0.0444904,0.12840323,-5.803527,-7.6196623,-4.3023863
0.1818608,-0.043105528,0.12440636,-5.6228776,-7.3824816,-4.168464
