ax,ay,az,gx,gy,gz
-0.35273048,0.3090937,-8.412804,36.51033,-75.739784,0.27727526
-0.41289374,0.06128624,-9.386319,44.036922,-87.49099,0.11609827
-0.33052078,-0.6126072,-9.969854,48.85955,-98.35034,-0.19740443
-0.03980663,-1.062415,-10.331225,52.34817,-109.446655,0.14983179
0.38061827,-1.2823313,-10.547431,50.2326,-123.61875,3.3476334
0.7500549,-1.5602995,-10.509296,47.626534,-136.07936,9.1166725
0.94144434,-1.6927077,-10.233933,44.766487,-147.26027,15.42926
1.003593,-1.7127253,-9.695967,43.35935,-156.48184,20.815258
1.0947032,-1.6702594,-8.9243965,42.711628,-162.92653,25.721243
1.2907324,-1.6541374,-7.959642,41.53781,-167.56871,31.239954
1.5618154,-1.481099,-6.6271443,39.92351,-170.06543,35.641617
1.8201184,-1.0793582,-5.043723,37.078175,-170.23184,38.050236
2.062051,-0.614204,-3.3278632,33.665398,-167.68713,39.051254
2.3275805,-0.17433597,-1.6105785,30.116215,-162.26476,38.529705
2.6494846,0.16339791,0.016084095,26.571835,-152.27344,37.268597
2.9700308,0.3771796,1.4187438,22.932287,-139.5468,36.053406
3.2047086,0.50166094,2.5260339,20.581657,-124.89971,34.316013
3.33485,0.57399285,3.305198,19.273827,-109.839806,32.026924
3.3854485,0.5834606,3.8269396,18.328083,-95.06538,29.890198
3.4096348,0.5474528,4.1633344,17.2239,-79.90476,28.103575
3.4071825,0.4666112,4.3027043,15.852323,-64.7618,26.399935
3.359015,0.35448748,4.2994504,14.64327,-49.659546,25.001434
3.2513058,0.2445943,4.1320376,15.109608,-35.36287,23.687157
3.0744138,0.22263238,3.8378417,16.741146,-22.751335,21.687792
2.872732,0.30684948,3.483898,18.437925,-12.546052,18.476652
2.737709,0.4788581,3.118624,19.065802,-3.7476583,15.221234
2.681213,0.697111,2.756938,18.3832,3.569235,11.718924
2.7005205,0.9677615,2.3886452,17.045227,9.59189,6.9948444
2.7420547,1.229428,1.9830848,15.225638,14.359413,1.4104971
2.7501135,1.4826775,1.5055827,13.2281275,16.924356,-4.854486
2.7575219,1.6994979,0.9953682,10.78953,17.72746,-10.8945
2.8435175,1.8896991,0.5526152,7.3728447,17.897726,-16.05886
2.9443889,1.9990476,0.12853162,3.6091876,17.643126,-20.550667
2.9839354,1.9781616,-0.31001955,0.35486,16.786787,-24.914152
2.9435105,1.8143873,-0.7514193,-2.164333,14.688996,-28.696692
2.8230472,1.4290211,-1.2014588,-4.0361423,11.411613,-31.525526
2.6965296,0.8968219,-1.6110197,-4.790731,7.3902793,-33.165672
2.602894,0.2983986,-1.928303,-4.643609,3.1452022,-33.650654
2.5744438,-0.33045456,-2.0950632,-3.9532576,-1.1030217,-31.938019
2.5938804,-0.96262306,-2.1287014,-2.525429,-4.6915827,-27.674671
2.6425452,-1.5189003,-2.0516303,0.45644778,-7.268535,-22.679535
2.6745944,-1.9062395,-1.9229383,4.481701,-9.037389,-17.01867
2.6804051,-2.0348155,-1.7316992,8.478646,-10.45234,-10.70317
2.6712558,-1.9012883,-1.4701091,11.5744505,-11.532485,-4.6898026
2.6466062,-1.6193457,-1.1550269,13.999929,-12.068787,-0.24024606
2.5903945,-1.2243663,-0.84669006,15.793478,-12.156295,3.0386243
2.5183115,-0.7510362,-0.5705386,16.30592,-11.981081,5.3037815
2.4309442,-0.30578044,-0.3417192,15.468232,-11.658062,6.4721107
2.3477218,0.038940385,-0.1553348,13.727673,-10.871434,7.140016
2.2691066,0.28827628,-0.029537667,11.91508,-9.370907,6.9186187
2.2043467,0.4289772,0.014393398,10.360417,-7.513008,6.2364974
2.130365,0.41457996,0.013910329,10.012704,-7.2608585,6.0271893
2.0591953,0.40073,0.013445625,9.678207,-7.018294,5.825838
1.990701,0.38740066,0.012998387,9.356284,-6.7848463,5.632055
1.9247538,0.374567,0.012567781,9.046332,-6.5600805,5.4454784
1.8612342,0.36220577,0.012153027,8.747791,-6.3435884,5.26577
1.8000307,0.35029525,0.011753395,8.4601345,-6.13499,5.0926137
1.7410386,0.33881506,0.011368203,8.182872,-5.933929,4.9257145
1.6841596,0.32774612,0.010996809,7.915541,-5.740071,4.764794
1.6293018,0.3170705,0.010638612,7.65771,-5.5531006,4.609591
1.5763783,0.30677134,0.010293046,7.40897,-5.372723,4.459861
1.5253077,0.2968327,0.009959577,7.1689377,-5.19866,4.3153725
1.4760125,0.2872396,0.0096377,6.9372506,-5.0306487,4.1759076
1.4284201,0.27797788,0.009326944,6.713567,-4.868441,4.04126
1.3824617,0.26903415,0.009026856,6.4975624,-4.7118025,3.9112353
1.3380721,0.2603957,0.008737012,6.2889314,-4.5605106,3.785649
1.2951895,0.25205055,0.008457008,6.0873837,-4.4143553,3.6643264
1.2537555,0.24398725,0.008186461,5.892644,-4.2731366,3.547102
1.213714,0.236195,0.007925009,5.7044497,-4.136665,3.4338176
1.1750125,0.22866347,0.0076723057,5.5225525,-4.00476,3.324324
1.1376003,0.22138289,0.007428021,5.3467155,-3.877249,3.2184782
1.1014296,0.21434388,0.007191843,5.1767135,-3.7539694,3.1161447
1.0664546,0.20753756,0.0069634714,5.012331,-3.6347651,3.0171938
1.0326315,0.20095542,0.0067426222,4.853363,-3.5194871,2.9215024
0.9999188,0.19458935,0.0065290225,4.699613,-3.4079933,2.828952
0.9682765,0.18843159,0.0063224123,4.5508943,-3.3001478,2.7394302
0.9376665,0.18247473,0.0061225425,4.4070277,-3.1958206,2.652829
0.90805227,0.17671165,0.0059291753,4.267841,-3.0948873,2.569045
0.87939894,0.17113556,0.0057420814,4.13317,-2.9972289,2.4879794
0.85167295,0.16573994,0.0055610435,4.002858,-2.9027314,2.4095376
0.8248422,0.16051854,0.0053858506,3.876754,-2.8112848,2.3336284
0.79887587,0.15546536,0.0052163024,3.7547123,-2.7227845,2.260165
0.7737444,0.15057464,0.0050522047,3.6365945,-2.6371298,2.1890635
0.74941933,0.14584085,0.0048933728,3.5222669,-2.5542233,2.1202435
0.72587335,0.14125869,0.004739628,3.4116008,-2.4739723,2.0536275
0.70308024,0.13682303,0.004590799,3.3044732,-2.3962872,1.9891417
0.68101466,0.13252896,0.004446721,3.2007654,-2.3210819,1.9267143
0.6596524,0.12837176,0.004307235,3.100363,-2.2482736,1.8662766
0.6389701,0.12434687,0.0041721887,3.003156,-2.1777825,1.8077625
0.61894506,0.1204499,0.0040414347,2.9090385,-2.1095319,1.7511082
0.5995558,0.11667664,0.0039148307,2.817909,-2.043448,1.6962522
0.5807812,0.11302301,0.0037922414,2.7296686,-1.9794592,1.6431357
0.56260127,0.1094851,0.0036735344,2.644223,-1.9174969,1.5917011
0.54499644,0.10605911,0.0035585829,2.5614805,-1.857495,1.541894
0.5279481,0.10274141,0.0034472647,2.481353,-1.7993895,1.493661
0.511438,0.09952847,0.0033394613,2.403756,-1.7431188,1.446951
0.4954488,0.09641688,0.003235059,2.3286066,-1.6886232,1.4017147
0.47996363,0.09340339,0.0031339477,2.2558265,-1.6358455,1.3579043
0.46496624,0.09048482,0.0030360215,2.1853387,-1.5847304,1.3154739
0.45044088,0.087658115,0.0029411775,2.1170697,-1.5352241,1.2743791
0.4363724,0.08492032,0.0028493167,2.0509481,-1.487275,1.2345768
0.42274618,0.08226858,0.0027603435,1.9869049,-1.4408331,1.1960257
0.409548,0.07970016,0.0026741654,1.9248736,-1.3958502,1.1586858
0.39676425,0.07721237,0.002590693,1.86479,-1.3522797,1.1225182
0.38438165,0.07480265,0.0025098403,1.8065917,-1.3100765,1.0874856
0.37238747,0.07246852,0.0024315235,1.7502191,-1.269197,1.0535518
0.36076927,0.07020756,0.002355662,1.6956137,-1.2295991,1.0206819
0.34951517,0.06801745,0.0022821778,1.6427195,-1.1912421,0.98884195
0.3386136,0.06589595,0.0022109954,1.5914822,-1.1540866,0.95799947
0.32805339,0.06384088,0.002142042,1.5418493,-1.1180944,0.92812264
0.3178237,0.06185013,0.0020752468,1.4937698,-1.083229,0.89918107
0.30791414,0.059921674,0.0020105415,1.4471948,-1.0494545,0.871145
0.2983145,0.05805354,0.0019478602,1.4020766,-1.0167364,0.843986
0.28901508,0.056243822,0.0018871392,1.3583694,-0.9850414,0.8176762
0.28000638,0.05449068,0.0018283164,1.3160285,-0.9543373,0.7921889
0.27127922,0.052792333,0.0017713319,1.2750108,-0.9245928,0.7674982
0.26282474,0.051147047,0.001716128,1.2352749,-0.89577764,0.743579
0.25463438,0.04955316,0.0016626485,1.1967802,-0.8678627,0.72040695
0.24669981,0.048009053,0.0016108394,1.1594878,-0.84081954,0.6979586
0.239013,0.046513163,0.001560648,1.1233599,-0.81462085,0.67621124
0.23156618,0.04506397,0.0015120235,1.0883598,-0.78924,0.6551428
0.22435178,0.04366001,0.0014649167,1.0544522,-0.7646514,0.634732
0.21736254,0.04229987,0.0014192802,1.0216027,-0.74083024,0.61495817
0.21059139,0.04098217,0.0013750675,0.9897784,-0.7177523,0.5958013
0.20403148,0.03970558,0.0013322344,0.9589469,-0.6953944,0.57724214
0.19767621,0.038468808,0.0012907372,0.92907715,-0.6737339,0.5592619
0.19151916,0.037270613,0.0012505344,0.90013903,-0.652749,0.5418425
0.18555412,0.036109786,0.0012115854,0.8721034,-0.6324185,0.52496636
0.17977509,0.03498516,0.0011738508,0.844942,-0.61272204,0.5086164
0.17417625,0.033895593,0.001137293,0.8186274,-0.5936396,0.49277624
0.16875194,0.032839995,0.0011018746,0.7931332,-0.57515216,0.4774299
0.16349673,0.031817306,0.0010675605,0.76843375,-0.55724096,0.46256196
0.15840533,0.030826492,0.0010343159,0.7445042,-0.5398881,0.44815746
0.1534726,0.02986656,0.0010021075,0.72132045,-0.52307606,0.4342019
0.14869362,0.028936544,0.0009709028,0.6988592,-0.506788,0.42068127
0.14406355,0.028035508,0.00094067055,0.6770979,-0.49100748,0.40758198
0.13957776,0.027162552,0.00091138034,0.65601474,-0.47571868,0.39489087
0.13523175,0.026316794,0.00088300277,0.63558847,-0.46090627,0.38259518
0.13102113,0.025497386,0.00085550937,0.6157986,-0.44655538,0.37068257
0.1269417,0.024703506,0.00082887243,0.59662527,-0.43265155,0.3591411
0.12298934,0.023934359,0.00080306537,0.57804924,-0.41918087,0.3479592
0.119160116,0.023189172,0.0007780622,0.5600519,-0.40612984,0.33712563
0.115450166,0.022467196,0.0007538379,0.5426152,-0.3934853,0.3266295
0.111855775,0.02176771,0.00073036813,0.52572155,-0.38123468,0.3164603
0.10837334,0.021090008,0.0007076294,0.5093541,-0.36936557,0.30660787
0.10499936,0.020433417,0.0006855989,0.49349645,-0.35786617,0.29706228
0.10173047,0.019797273,0.0006642545,0.47813267,-0.3467249,0.287814
0.09856338,0.019180942,0.0006435748,0.4632474,-0.33593062,0.2788537
0.095494926,0.018583804,0.00062353915,0.44882566,-0.32547247,0.2701725
0.092522025,0.018005263,0.0006041274,0.43485305,-0.31534004,0.26176164
0.089641705,0.017444737,0.00058532023,0.42131555,-0.30552313,0.25361267
0.086851075,0.016901666,0.0005670987,0.40819958,-0.2960119,0.24571748
0.08414734,0.016375506,0.0005494445,0.39549208,-0.28679687,0.23806812
0.0815278,0.01586573,0.00053234,0.38318023,-0.27786875,0.23065697
0.07898982,0.0153718265,0.0005157682,0.37125173,-0.26921862,0.22347656
0.07653087,0.014893301,0.00049971236,0.3596947,-0.26083785,0.21651974
0.074148476,0.014429675,0.0004841564,0.34849745,-0.25271803,0.20977953
0.071840264,0.0139804855,0.0004690848,0.33764887,-0.24485102,0.20324917
0.06960392,0.013545281,0.00045448245,0.32713807,-0.23722894,0.19692214
0.0674372,0.013123627,0.00044033476,0.3169545,-0.22984418,0.1907921
0.06533794,0.012715099,0.00042662752,0.307088,-0.22268935,0.18485291
0.06330404,0.012319292,0.00041334706,0.29752865,-0.21575725,0.17909864
0.06133346,0.011935807,0.00040048006,0.28826693,-0.20904098,0.1735235
0.05942423,0.01156426,0.00038801364,0.27929357,-0.20253381,0.16812195
0.057574436,0.011204282,0.0003759353,0.27059954,-0.19622922,0.16288854
0.055782232,0.01085551,0.000364233,0.2621762,-0.1901209,0.15781808
0.054045822,0.010517595,0.00035289506,0.2540151,-0.18420276,0.15290546
0.05236347,0.010190201,0.00034191005,0.24610804,-0.17846884,0.14814578
0.05073349,0.009872999,0.00033126702,0.23844714,-0.17291343,0.14353427
0.049154256,0.009565671,0.0003209553,0.23102474,-0.16753097,0.13906632
0.047624182,0.009267911,0.00031096462,0.22383341,-0.16231607,0.13473748
0.04614174,0.00897942,0.00030128492,0.21686594,-0.1572635,0.13054338
0.04470545,0.008699911,0.0002919066,0.21011537,-0.15236823,0.12647983
0.04331387,0.008429102,0.00028282017,0.20357496,-0.14762536,0.122542806
0.041965608,0.008166723,0.00027401664,0.19723813,-0.1430301,0.118728325
0.040659316,0.007912512,0.00026548715,0.19109857,-0.13857792,0.11503259
0.03939369,0.007666215,0.00025722318,0.18515013,-0.13426432,0.11145191
0.03816746,0.0074275844,0.00024921645,0.17938685,-0.130085,0.10798268
0.036979403,0.007196382,0.00024145895,0.173803,-0.12603578,0.104621455
0.03582833,0.006972377,0.00023394296,0.16839296,-0.12211262,0.10136485
