ax,ay,az,gx,gy,gz
0.28727534,2.8709352,-4.284584,-6.7136974,-10.376457,0.0
0.2618914,2.8776367,-5.460226,-12.936976,-13.342723,-8.578788
0.19276899,2.3513167,-6.684952,-11.635919,-24.120073,-15.471339
0.34362704,1.8657857,-7.7239275,-9.564376,-35.532986,-16.16651
0.44018418,1.3834102,-8.83222,-8.869384,-48.380493,-14.819191
0.45372388,0.36260065,-9.903069,-2.7552955,-63.5047,-14.316236
0.4995787,-1.1678067,-10.800099,7.2379384,-78.823944,-12.238093
0.65093315,-2.5429904,-11.385186,17.603354,-93.922806,-5.668657
0.8596019,-3.42879,-11.586744,24.627083,-108.457504,6.6613193
0.99676025,-3.6546586,-11.345235,28.895552,-122.9573,19.21398
1.1725132,-3.3664699,-10.515063,32.781536,-135.04631,27.065895
1.5518014,-2.9049067,-9.018405,36.051777,-143.29881,32.511215
2.0557435,-2.3144886,-7.2328258,38.04481,-147.80128,37.337296
2.5878801,-1.6098168,-5.3602934,37.777565,-148.41724,41.32493
3.036519,-0.9435998,-3.568295,36.504875,-145.69165,43.900635
3.3622143,-0.35578758,-1.9188206,35.112118,-138.93396,44.646782
3.6054003,0.19990216,-0.430768,33.35694,-129.26982,44.008434
3.8021088,0.6766045,0.8079129,31.159336,-117.24383,42.286587
3.9106002,1.0311617,1.743507,29.569315,-103.74808,39.238453
3.9179864,1.2875464,2.3613677,28.372625,-90.25839,35.357265
3.8331933,1.4525906,2.7225,27.523634,-77.33696,30.902468
3.7559645,1.5185177,2.9072702,26.465889,-64.86984,26.536823
3.7040713,1.544163,3.010042,25.41227,-52.378525,22.428738
3.6375866,1.5390861,3.0139878,24.515785,-39.978878,18.188187
3.5563915,1.5226401,2.9187958,23.715637,-28.448313,13.835712
3.4649038,1.5530696,2.714083,22.547916,-19.056879,9.202987
3.4222224,1.6774764,2.4318042,21.32926,-11.168806,4.446367
3.4556541,1.8127612,2.1281562,19.235905,-4.191485,0.001987429
3.5498066,1.9562173,1.7807959,16.246973,2.1263542,-4.3034544
3.67322,2.1248984,1.3566521,12.792137,7.8015823,-8.719895
3.7636611,2.2810369,0.8385246,9.049548,11.530475,-13.591247
3.8034687,2.3622913,0.23976324,5.4230294,13.765792,-19.100376
3.813255,2.3539155,-0.35681534,1.4418523,14.360467,-24.42555
3.7829037,2.2236483,-0.94575894,-2.7444127,13.794603,-28.792665
3.6724215,1.9163203,-1.5386261,-6.058202,12.06424,-32.28
3.4734278,1.3983688,-2.1073391,-7.3366075,8.74011,-34.73071
3.2130046,0.6023455,-2.6055224,-6.9113855,4.17578,-35.977234
3.0265954,-0.29196748,-2.9479008,-5.788619,-1.0713956,-34.762726
2.9398434,-1.1805166,-3.1042178,-4.4244194,-5.8697615,-30.74899
2.8822215,-1.9376645,-3.118251,-2.2852714,-10.11871,-25.250307
2.8556747,-2.4551642,-3.016975,1.2381638,-13.822848,-19.229223
2.8886518,-2.653238,-2.7819128,5.101828,-17.011753,-12.928036
2.9775286,-2.5607738,-2.4410386,8.98775,-19.204458,-6.7210865
3.0818045,-2.1980608,-2.0232942,12.246429,-20.19332,-1.4466374
3.1650436,-1.6411238,-1.5711069,14.682549,-19.977877,2.68857
3.1972206,-0.9695081,-1.1498649,14.9613285,-18.846737,5.312098
3.158555,-0.364909,-0.8267656,14.082576,-17.25663,7.022671
3.0981374,0.12239161,-0.60637575,12.492165,-15.211977,7.981307
3.022682,0.44647947,-0.49531752,10.644959,-13.036893,8.275225
2.9396605,0.61239195,-0.4679797,8.781671,-11.258061,8.085724
2.8405137,0.5917376,-0.45219603,8.485489,-10.878358,7.8130145
2.745181,0.57187784,-0.43701953,8.200701,-10.513261,7.550796
2.6534724,0.55277306,-0.42241994,7.9267383,-10.162043,7.2985454
2.5652106,0.53438634,-0.40836912,7.6630735,-9.824026,7.055776
2.4802313,0.51668334,-0.3948408,7.409214,-9.498579,6.822035
2.3983803,0.4996321,-0.38181052,7.1646996,-9.185112,6.596898
2.3195136,0.48320255,-0.3692553,6.9291005,-8.883076,6.37997
2.2434964,0.4673666,-0.35715377,6.702014,-8.591951,6.1708803
2.1702025,0.45209795,-0.34548572,6.4830623,-8.311256,5.9692807
2.0995128,0.43737185,-0.33423227,6.271891,-8.040536,5.7748446
2.031316,0.42316502,-0.32337564,6.068166,-7.779361,5.5872645
1.9655063,0.4094555,-0.31289908,5.871572,-7.527329,5.406251
1.9019847,0.39622265,-0.30278674,5.6818132,-7.284059,5.2315307
1.8406574,0.3834469,-0.29302374,5.4986095,-7.049193,5.0628457
1.7814355,0.37110978,-0.2835959,5.321696,-6.82239,4.8999524
1.7242352,0.35919377,-0.27448988,5.150821,-6.603329,4.742619
1.6689769,0.34768233,-0.26569304,4.9857473,-6.3917055,4.5906277
1.615585,0.3365597,-0.2571933,4.8262496,-6.18723,4.44377
1.5639879,0.32581094,-0.24897929,4.672113,-5.9896274,4.3018484
1.5141171,0.31542185,-0.24104011,4.5231338,-5.798637,4.164676
1.465908,0.30537888,-0.23336545,4.379118,-5.61401,4.0320735
1.4192985,0.29566917,-0.22594546,4.2398815,-5.4355087,3.9038715
1.3742299,0.28628042,-0.21877073,4.1052475,-5.2629085,3.7799072
1.3306456,0.27720094,-0.21183233,3.9750478,-5.0959935,3.6600258
1.2884921,0.26841947,-0.2051217,3.8491223,-4.9345574,3.5440798
1.2477179,0.2599254,-0.19863065,3.727317,-4.7784038,3.431928
1.2082739,0.2517084,-0.19235136,3.6094859,-4.6273446,3.3234346
1.1701132,0.24375872,-0.18627635,3.495488,-4.4811997,3.218471
1.1331905,0.23606698,-0.18039845,3.3851888,-4.3397965,3.116913
1.0974629,0.22862418,-0.17471078,3.2784593,-4.20297,3.018642
1.062889,0.2214217,-0.16920677,3.1751761,-4.0705614,2.923544
1.0294288,0.21445127,-0.16388008,3.0752206,-3.9424188,2.8315098
0.99704444,0.20770493,-0.15872465,2.9784784,-3.818396,2.7424345
0.96569926,0.20117508,-0.15373464,2.8848407,-3.6983528,2.6562176
0.935358,0.19485436,-0.14890446,2.794202,-3.5821543,2.572762
0.90598685,0.18873575,-0.14422871,2.7064614,-3.4696712,2.4919746
0.8775532,0.18281245,-0.13970223,2.6215215,-3.3607788,2.4137664
0.8500259,0.17707793,-0.13532001,2.539289,-3.255357,2.3380506
0.8233747,0.17152594,-0.13107726,2.4596736,-3.1532905,2.2647448
0.7975706,0.1661504,-0.12696937,2.3825886,-3.054468,2.193769
0.7725856,0.16094552,-0.12299188,2.3079507,-2.9587824,2.125046
0.74839276,0.15590565,-0.1191405,2.2356794,-2.8661308,2.0585022
0.7249661,0.1510254,-0.11541109,2.1656969,-2.7764134,1.9940656
0.7022806,0.14629954,-0.11179967,2.0979283,-2.6895344,1.9316677
0.6803121,0.14172305,-0.10830239,2.0323017,-2.6054015,1.8712419
0.6590373,0.13729107,-0.104915544,1.9687471,-2.5239248,1.8127242
0.6384337,0.13299891,-0.101635545,1.9071978,-2.445019,1.7560526
0.61847955,0.12884206,-0.098458946,1.8475887,-2.3686004,1.7011675
0.59915394,0.12481613,-0.0953824,1.7898571,-2.2945888,1.6480112
0.5804366,0.120916925,-0.0924027,1.7339427,-2.2229068,1.596528
0.562308,0.11714037,-0.089516714,1.679787,-2.1534796,1.5466642
0.5447493,0.11348253,-0.08672145,1.6273338,-2.0862346,1.4983679
0.5277422,0.1099396,-0.084014006,1.5765283,-2.0211022,1.4515887
0.5112691,0.106507905,-0.081391566,1.5273181,-1.958015,1.4062784
0.49531293,0.1031839,-0.07885142,1.4796522,-1.8969073,1.3623899
0.47985724,0.099964164,-0.076390944,1.4334812,-1.8377165,1.319878
0.4648861,0.096845366,-0.074007615,1.3887578,-1.7803812,1.2786989
0.4503841,0.093824305,-0.07169896,1.3454359,-1.7248427,1.2388103
0.43633637,0.09089787,-0.069462635,1.303471,-1.6710439,1.2001711
0.4227285,0.08806307,-0.067296326,1.2628201,-1.6189296,1.1627418
0.40954658,0.085317,-0.06519783,1.2234416,-1.5684466,1.126484
0.39677712,0.08265686,-0.063164994,1.1852953,-1.5195433,1.0913608
0.38440707,0.08007993,-0.061195746,1.1483423,-1.4721695,1.0573362
0.37242386,0.07758358,-0.059288077,1.1125447,-1.4262773,1.0243757
0.3608153,0.075165264,-0.057440042,1.0778662,-1.3818196,0.99244547
0.3495695,0.07282254,-0.05564977,1.0442716,-1.3387514,0.9615132
0.33867508,0.07055301,-0.053915434,1.0117267,-1.297029,0.9315475
0.328121,0.068354376,-0.052235276,0.9801984,-1.2566099,0.90251786
0.31789654,0.06622441,-0.050607592,0.9496548,-1.2174532,0.87439483
0.30799136,0.06416096,-0.049030732,0.9200649,-1.1795192,0.84714997
0.2983954,0.06216192,-0.047503103,0.89139885,-1.1427693,0.82075566
0.28909895,0.060225282,-0.046023153,0.86362755,-1.1071666,0.7951852
0.28009266,0.05834908,-0.044589393,0.8367229,-1.072675,0.77041274
0.27136737,0.05653142,-0.04320037,0.8106578,-1.0392597,0.7464133
0.2629143,0.054770473,-0.041854683,0.7854059,-1.0068868,0.7231626
0.25472492,0.053064454,-0.04055097,0.7609417,-0.97552377,0.70063716
0.24679095,0.051411647,-0.039287925,0.7372405,-0.945139,0.6788143
0.23910442,0.049810387,-0.038064264,0.71427846,-0.9157018,0.657672
0.23165758,0.048259053,-0.036878765,0.69203246,-0.8871825,0.637189
0.22444293,0.046756092,-0.035730224,0.6704801,-0.8595524,0.6173446
0.21745318,0.04529999,-0.034617495,0.64959955,-0.8327837,0.5981189
0.21068135,0.043889273,-0.033539448,0.62937,-0.8068495,0.5794925
0.20412058,0.042522527,-0.032495007,0.60977095,-0.7817236,0.5614467
0.19776429,0.041198384,-0.031483117,0.59078276,-0.75738084,0.5439633
0.1916061,0.039915506,-0.030502763,0.5723864,-0.7337968,0.52702487
0.18563981,0.038672604,-0.029552959,0.5545632,-0.7109476,0.5106142
0.17985944,0.037468433,-0.02863275,0.53729546,-0.6888104,0.4947149
0.17425917,0.03630178,-0.027741216,0.52056575,-0.6673629,0.479311
0.16883339,0.03517148,-0.026877457,0.5043573,-0.64658374,0.46438703
0.16357663,0.03407639,-0.026040608,0.48865375,-0.6264519,0.44992802
0.15848365,0.033015415,-0.02522983,0.47343943,-0.60694724,0.43591943
0.15354933,0.031987492,-0.024444308,0.45869908,-0.5880501,0.42234725
0.1487687,0.03099159,-0.023683256,0.44441786,-0.56974167,0.4091978
0.14413698,0.030026706,-0.022945909,0.43058148,-0.5520035,0.39645797
0.13964953,0.029091876,-0.022231527,0.41717607,-0.5348179,0.38411495
0.13530183,0.028186163,-0.021539396,0.4041882,-0.51816744,0.37215635
0.13108955,0.027308658,-0.020868821,0.3916048,-0.5020356,0.3605702
0.12700845,0.026458481,-0.020219129,0.3794133,-0.48640615,0.34934485
0.123054445,0.02563478,-0.019589672,0.36760148,-0.47126344,0.33846912
0.11922357,0.02483673,-0.018979816,0.3561575,-0.45659232,0.32793206
0.115512,0.024063533,-0.018388951,0.3450699,-0.44237804,0.31772316
0.111916006,0.023314413,-0.017816486,0.33432755,-0.4286064,0.30783212
0.10843199,0.02258862,-0.017261846,0.32391968,-0.4152636,0.29824913
0.10505645,0.021885427,-0.016724478,0.31383595,-0.40233627,0.28896448
0.101786025,0.021204129,-0.016203841,0.30406615,-0.38981146,0.27996898
0.09861742,0.020544045,-0.015699416,0.29460058,-0.3776766,0.27125353
0.09554748,0.019904513,-0.0152106965,0.28542972,-0.36591962,0.26280946
0.09257313,0.019284893,-0.0147371935,0.27654442,-0.3545287,0.2546283
0.08969138,0.018684566,-0.014278433,0.26793575,-0.34349242,0.24670188
0.086899355,0.018102929,-0.013833956,0.2595951,-0.33279976,0.23902223
0.08419425,0.0175394,-0.013403317,0.25151414,-0.32244,0.23158167
0.081573375,0.016993416,-0.012986085,0.24368477,-0.31240276,0.22437279
0.07903409,0.016464433,-0.012581844,0.23609914,-0.30267805,0.21738832
0.07657386,0.015951917,-0.012190188,0.22874968,-0.29325607,0.21062131
0.07419023,0.015455355,-0.011810725,0.22162904,-0.2841274,0.20406497
0.0718808,0.014974254,-0.011443075,0.21473005,-0.27528298,0.19771273
0.06964327,0.01450813,-0.011086871,0.20804587,-0.26671386,0.19155826
0.06747539,0.014056517,-0.010741756,0.20156977,-0.25841153,0.1855954
0.06537501,0.013618964,-0.0104073845,0.19529526,-0.25036764,0.17981814
0.06334001,0.013195031,-0.010083423,0.1892161,-0.24257419,0.17422076
0.061368365,0.012784297,-0.009769546,0.18332618,-0.23502333,0.16879761
0.059458096,0.012386348,-0.00946544,0.17761962,-0.22770755,0.1635433
0.057607293,0.012000788,-0.009170801,0.17209071,-0.22061951,0.15845254
0.055814106,0.01162723,-0.008885335,0.1667339,-0.2137521,0.15352027
0.05407674,0.011265301,-0.008608755,0.16154386,-0.2070985,0.14874153
0.05239346,0.010914639,-0.008340784,0.15651537,-0.200652,0.14411156
0.050762575,0.010574892,-0.008081156,0.15164343,-0.1944062,0.13962571
0.049182463,0.010245722,-0.007829609,0.14692314,-0.1883548,0.1352795
0.047651537,0.009926798,-0.0075858934,0.1423498,-0.1824918,0.1310686
0.046168264,0.009617803,-0.007349764,0.13791882,-0.1768113,0.12698877
