ax,ay,az,gx,gy,gz
-0.50455004,-1.5227411,-10.510096,38.2858,-53.32321,-16.92379
-0.20268437,-1.4947529,-11.3233795,30.832998,-72.75963,-11.215816
0.28357834,-1.5003265,-11.575003,26.884882,-85.57877,-7.0586686
0.6452625,-1.6755289,-11.564475,21.274408,-95.55817,-2.9998393
0.80128115,-1.9313328,-11.59674,20.460827,-106.991135,-0.80620223
0.8215899,-2.253983,-11.669268,23.205837,-119.11259,0.65047336
0.89972025,-2.67603,-11.570462,25.338348,-131.07733,3.9028745
1.0416319,-3.040331,-11.198811,24.861654,-142.5243,9.53309
1.2247016,-3.072897,-10.536984,22.306717,-152.88493,16.057455
1.4893918,-2.8958566,-9.561576,19.070623,-160.4527,22.57305
1.7963241,-2.6525147,-8.18142,16.301222,-164.59238,27.953909
2.0468297,-2.320953,-6.683784,15.007269,-166.02429,31.214125
2.2839756,-1.8368318,-5.131058,14.352208,-165.4462,32.572376
2.5202322,-1.2987212,-3.5348516,13.540503,-162.48312,32.97256
2.7557716,-0.7826672,-1.9179255,11.569278,-155.65645,33.05792
2.9939463,-0.3548053,-0.40923056,9.729611,-146.215,31.822239
3.2286294,-0.036210243,0.87761223,8.3930235,-134.36879,29.705784
3.407792,0.19038194,1.8772545,7.976444,-121.23745,27.196497
3.5250144,0.35775283,2.6212153,8.020096,-107.36082,24.38674
3.5905066,0.43815467,3.1458175,8.311574,-92.467674,21.609823
3.5829566,0.43336394,3.419284,8.242118,-78.0337,19.103962
3.5539498,0.41461116,3.5259125,8.137492,-64.2698,16.57006
3.5028107,0.36564946,3.504315,9.225002,-51.330322,13.928537
3.425616,0.34504956,3.3789895,10.816115,-39.30301,11.330871
3.3215811,0.36475858,3.1655765,11.735151,-28.77331,8.523715
3.214209,0.46385413,2.84656,11.835798,-19.6345,5.6910305
3.146839,0.65392023,2.443452,11.709596,-11.923808,2.4968946
3.119125,0.9493962,1.96874,10.740473,-5.764613,-1.4857085
3.0995686,1.2717985,1.4621476,9.158242,-1.2557104,-6.286915
3.088529,1.5990163,0.93653005,6.1082177,1.522623,-11.436213
3.1143916,1.8455172,0.44135132,1.7324743,3.6410115,-16.11671
3.1379755,1.9777764,-0.061824284,-3.4837644,4.883615,-20.154667
3.1194468,1.9671799,-0.5911447,-8.320071,5.000811,-24.047771
3.0460978,1.7169557,-1.1416167,-12.564224,3.685425,-27.438873
2.9119961,1.133653,-1.7127416,-14.82349,0.50119644,-29.127586
2.7381113,0.29170853,-2.2262087,-15.24468,-3.5396955,-29.276701
2.6144657,-0.57520664,-2.5807097,-14.395694,-7.6972914,-27.40757
2.5494967,-1.3770419,-2.7628691,-12.445772,-11.862111,-23.76704
2.5399811,-2.0131218,-2.789148,-9.376272,-15.894108,-19.095076
2.5674794,-2.378153,-2.6673787,-5.605383,-19.147139,-13.855129
2.5982368,-2.3589225,-2.3635995,-2.0877006,-21.62056,-8.697412
2.6490576,-2.0650697,-1.9308656,0.754567,-23.100077,-4.1533246
2.7054536,-1.6404105,-1.4545099,2.6789427,-23.507092,-0.27906066
2.7445524,-1.1491495,-1.0015137,3.5079763,-22.975069,2.8371897
2.7453032,-0.65003103,-0.61557543,2.6289635,-21.660362,4.854952
2.693967,-0.22837463,-0.3628889,0.8450785,-20.091078,5.95246
2.6102324,0.07893391,-0.23228434,-1.2402059,-18.653969,6.136759
2.5106921,0.24905346,-0.20888346,-2.8765488,-17.248,5.6729918
2.4094424,0.3299576,-0.25805154,-4.374569,-15.952413,5.0196757
2.316563,0.34260544,-0.33643705,-5.2609496,-14.494809,4.493556
2.2394094,0.30943108,-0.41015017,-5.651682,-13.063126,4.1382203
2.164251,0.29904604,-0.39638478,-5.4620013,-12.624704,3.9993343
2.0919495,0.28905573,-0.38314268,-5.2795315,-12.202949,3.865728
2.0223656,0.27944097,-0.37039834,-5.10392,-11.797046,3.7371435
1.9553694,0.27018374,-0.35812792,-4.9348392,-11.406238,3.6133406
1.8908395,0.2612673,-0.34630919,-4.7719827,-11.029816,3.4940953
1.8286624,0.25267598,-0.3349214,-4.615064,-10.667119,3.379198
1.768732,0.24439506,-0.32394508,-4.463815,-10.317527,3.268452
1.7109483,0.2364108,-0.31336194,-4.3179846,-9.980458,3.1616733
1.6552179,0.22871023,-0.30315486,-4.1773357,-9.655367,3.0586886
1.6014527,0.2212812,-0.2933077,-4.041646,-9.341739,2.9593356
1.5495695,0.21411224,-0.28380525,-3.9107068,-9.039089,2.8634603
1.4994903,0.20719251,-0.27463317,-3.7843199,-8.746962,2.7709184
1.4511409,0.20051183,-0.26577795,-3.6622987,-8.464926,2.6815734
1.4044515,0.1940605,-0.25722674,-3.5444667,-8.192573,2.5952957
1.3593558,0.18782939,-0.24896741,-3.4306571,-7.929517,2.511963
1.3157911,0.18180984,-0.2409885,-3.3207114,-7.6753917,2.4314597
1.273698,0.17599359,-0.23327908,-3.2144792,-7.42985,2.3536754
1.2330197,0.17037286,-0.22582881,-3.111818,-7.1925616,2.2785056
1.1937025,0.16494021,-0.21862784,-3.0125918,-6.9632134,2.205851
1.1556953,0.15968855,-0.21166678,-2.9166715,-6.741506,2.1356173
1.1189493,0.15461116,-0.2049367,-2.8239343,-6.527156,2.0677142
1.0834179,0.1497016,-0.19842911,-2.7342625,-6.319891,2.0020554
1.0490569,0.14495374,-0.19213584,-2.6475441,-6.1194534,1.9385595
1.0158238,0.14036176,-0.18604916,-2.5636725,-5.9255953,1.8771478
0.98367816,0.13592003,-0.18016167,-2.4825456,-5.7380805,1.8177457
0.9525812,0.13162321,-0.17446624,-2.4040651,-5.556683,1.7602816
0.922496,0.12746616,-0.16895609,-2.3281379,-5.381187,1.7046868
0.8933869,0.123444,-0.16362472,-2.254674,-5.2113853,1.6508958
0.8652199,0.119552016,-0.1584659,-2.1835878,-5.0470786,1.5988458
0.8379623,0.1157857,-0.15347366,-2.114797,-4.8880777,1.5484765
0.811583,0.11214073,-0.14864226,-2.0482225,-4.7341995,1.4997299
0.78605175,0.10861294,-0.14396618,-1.9837884,-4.585268,1.4525505
0.7613398,0.10519835,-0.13944016,-1.9214218,-4.441116,1.406885
0.73741925,0.10189313,-0.13505909,-1.8610526,-4.301581,1.3626822
0.71426356,0.09869359,-0.13081811,-1.8026139,-4.166507,1.3198926
0.6918471,0.09559618,-0.1267125,-1.7460405,-4.0357447,1.278469
0.67014503,0.09259749,-0.12273775,-1.6912701,-3.9091506,1.2383657
0.6491337,0.08969425,-0.1188895,-1.6382431,-3.7865853,1.1995387
0.6287902,0.08688328,-0.115163565,-1.5869014,-3.6679158,1.1619457
0.6090925,0.084161535,-0.11155591,-1.5371895,-3.553013,1.1255462
0.5900193,0.08152609,-0.10806263,-1.4890537,-3.4417536,1.0903007
0.57155013,0.07897411,-0.104679994,-1.4424425,-3.3340178,1.0561714
0.5536653,0.07650287,-0.10140437,-1.3973058,-3.2296906,1.023122
0.5363457,0.07410973,-0.09823227,-1.3535959,-3.1286604,0.991117
0.51957303,0.07179216,-0.095160335,-1.3112661,-3.0308204,0.96012264
0.5033295,0.06954771,-0.09218532,-1.2702717,-2.9360673,0.93010616
0.48759806,0.067374006,-0.08930408,-1.2305695,-2.844301,0.90103585
0.4723621,0.06526878,-0.0865136,-1.1921179,-2.7554252,0.8728812
0.4576057,0.06322981,-0.083810955,-1.1548767,-2.6693468,0.84561276
0.44331345,0.06125497,-0.08119331,-1.1188068,-2.5859761,0.819202
0.42947048,0.059342213,-0.07865796,-1.0838708,-2.5052261,0.7936215
0.41606238,0.057489548,-0.07620226,-1.0500323,-2.4270127,0.7688446
0.4030753,0.05569505,-0.07382365,-1.0172563,-2.3512552,0.7448456
0.39049575,0.053956866,-0.071519695,-0.98550874,-2.277875,0.7215998
0.37831074,0.052273203,-0.069288,-0.95475703,-2.2067964,0.6990831
0.36650777,0.050642323,-0.067126274,-0.92496943,-2.1379461,0.67727226
0.35507464,0.049062546,-0.06503229,-0.89611524,-2.0712535,0.6561449
0.34399968,0.04753226,-0.0630039,-0.8681649,-2.00665,0.6356794
0.3332715,0.04604989,-0.061039016,-0.8410898,-1.9440694,0.6158547
0.3228791,0.044613916,-0.05913564,-0.81486213,-1.8834475,0.59665054
0.31281188,0.043222878,-0.057291817,-0.7894551,-1.8247225,0.5780473
0.30305958,0.041875347,-0.05550567,-0.7648428,-1.7678345,0.5600259
0.29361224,0.040569957,-0.05377538,-0.7410002,-1.7127254,0.5425681
0.28446022,0.039305378,-0.052099183,-0.71790296,-1.6593391,0.52565604
0.27559423,0.03808032,-0.05047537,-0.69552755,-1.6076213,0.5092725
0.2670053,0.03689354,-0.048902296,-0.6738513,-1.5575194,0.49340096
0.25868466,0.03574383,-0.04737836,-0.6528522,-1.5089827,0.47802517
0.25062388,0.03463003,-0.04590202,-0.6325089,-1.4619619,0.4631296
0.24281481,0.033551008,-0.04447178,-0.61280084,-1.4164093,0.44869918
0.23524952,0.032505672,-0.043086194,-0.59370804,-1.3722788,0.43471923
0.22792038,0.031492967,-0.041743852,-0.5752112,-1.3295257,0.42117566
0.22081997,0.030511865,-0.040443406,-0.5572916,-1.288107,0.40805477
0.21394111,0.029561378,-0.039183535,-0.53993124,-1.2479806,0.39534327
0.20727687,0.028640542,-0.03796297,-0.5231124,-1.2091061,0.38302836
0.2008205,0.027748434,-0.03678048,-0.50681823,-1.1714443,0.3710976
0.19456552,0.026884148,-0.03563487,-0.4910323,-1.1349571,0.35953897
0.18850559,0.026046816,-0.034524992,-0.47573864,-1.0996078,0.3483408
0.18263464,0.025235595,-0.03344972,-0.46092188,-1.0653609,0.3374918
0.17694673,0.024449669,-0.032407977,-0.44656712,-1.0321816,0.3269811
0.17143615,0.023688242,-0.031398706,-0.43265986,-1.0000368,0.31679806
0.16609736,0.022950552,-0.030420901,-0.41918612,-0.96889406,0.30693245
0.16092496,0.022235855,-0.029473573,-0.40613237,-0.938722,0.29737437
0.15591379,0.021543434,-0.02855577,-0.39348546,-0.90949035,0.28811416
0.15105878,0.020872593,-0.02766657,-0.3812327,-0.88116974,0.27914256
0.14635506,0.020222655,-0.02680508,-0.36936176,-0.8537316,0.27045053
0.14179792,0.01959297,-0.025970435,-0.35786074,-0.82714844,0.26202938
0.13738278,0.018982906,-0.025161795,-0.34671807,-0.80139357,0.25387058
0.13310519,0.01839185,-0.02437835,-0.33592254,-0.77644116,0.24596599
0.12896086,0.017819205,-0.023619313,-0.32546335,-0.7522661,0.23830767
0.12494564,0.017264402,-0.022883922,-0.31533,-0.7288442,0.23088792
0.121055506,0.016726881,-0.02217144,-0.3055123,-0.7061519,0.2236993
0.11728654,0.016206104,-0.02148115,-0.29600045,-0.68416643,0.21673462
0.11363498,0.015701547,-0.020812362,-0.28678486,-0.6628658,0.20998687
0.11009715,0.015212707,-0.020164406,-0.27785632,-0.64222866,0.2034493
0.10666951,0.0147390915,-0.01953663,-0.26920584,-0.6222342,0.19711533
0.10334862,0.014280227,-0.018928407,-0.2608248,-0.60286254,0.19097863
0.10013116,0.013835653,-0.018339124,-0.25270477,-0.5840941,0.18503307
0.09701389,0.013404924,-0.017768195,-0.24483761,-0.5659102,0.17927265
0.09399371,0.012987609,-0.017215043,-0.23721544,-0.5482926,0.17369162
0.09106757,0.012583288,-0.01667912,-0.22983064,-0.5312236,0.16828439
0.08823255,0.012191559,-0.016159883,-0.2226758,-0.5146861,0.16304554
0.08548581,0.011812028,-0.015656814,-0.21574375,-0.49866354,0.15796983
0.0828246,0.011444314,-0.015169411,-0.20902756,-0.48313993,0.15305215
0.080246255,0.01108805,-0.014697184,-0.20252049,-0.4680997,0.14828761
0.07774819,0.0107428795,-0.01423966,-0.19621602,-0.45352775,0.14367142
0.0753279,0.0104084555,-0.013796383,-0.19010785,-0.43940952,0.13919896
0.072982974,0.010084445,-0.013366907,-0.18418987,-0.42573088,0.13486575
0.07071106,0.009770522,-0.012950803,-0.17845616,-0.41247812,0.13066745
0.06850988,0.009466372,-0.012547654,-0.17290094,-0.399638,0.12659988
0.06637722,0.009171693,-0.0121570565,-0.16751869,-0.3871976,0.12265893
0.06431097,0.008886187,-0.01177862,-0.16230401,-0.37514454,0.11884069
0.062309045,0.008609571,-0.011411966,-0.15725167,-0.36346674,0.11514132
0.060369443,0.008341567,-0.011056726,-0.15235664,-0.3521525,0.11155712
0.05849023,0.008081906,-0.010712545,-0.14761399,-0.3411905,0.1080845
0.05666952,0.007830328,-0.010379081,-0.14301899,-0.33056974,0.10472
0.05490549,0.0075865826,-0.0100559965,-0.13856705,-0.32027966,0.10146024
0.053196378,0.0073504257,-0.0097429715,-0.1342537,-0.31030992,0.098301955
0.05154047,0.0071216202,-0.00943969,-0.13007462,-0.30065054,0.09524199
0.049936116,0.006899938,-0.009145851,-0.12602565,-0.29129186,0.092277296
0.048381705,0.006685157,-0.008861159,-0.12210273,-0.28222454,0.08940489
0.046875685,0.0064770617,-0.008585329,-0.11830192,-0.27343947,0.0866219
0.045416545,0.0062754448,-0.008318087,-0.11461944,-0.2649279,0.08392555
0.044002827,0.006080104,-0.008059164,-0.11105159,-0.25668126,0.08131313
0.04263312,0.0058908444,-0.0078083,-0.10759481,-0.24869138,0.078782044
0.041306052,0.0057074763,-0.007565246,-0.10424563,-0.2409502,0.076329745
0.040020294,0.0055298163,-0.0073297583,-0.10100072,-0.23345,0.07395378
0.03877456,0.005357687,-0.0071016005,-0.09785682,-0.22618328,0.07165178
0.037567608,0.0051909154,-0.0068805455,-0.09481078,-0.21914275,0.06942144
0.036398225,0.0050293356,-0.006666372,-0.091859564,-0.2123214,0.067260526
