ax,ay,az,gx,gy,gz
1.2481931,-0.26545694,-1.9181992,15.536505,-6.7691526,3.2736661
1.0841964,0.27364492,-2.066762,5.487576,-7.934994,-2.0378287
0.9503423,0.22399211,-2.4827535,8.724219,-4.759245,-10.21592
0.85013217,0.11187215,-3.048809,9.71123,-6.836622,-15.3054905
0.91363925,-0.04239737,-3.7011466,11.227299,-11.147874,-18.9694
1.052214,-0.3592448,-4.465686,12.995509,-18.353325,-20.21382
1.2305925,-0.7375798,-5.277563,14.146103,-27.433159,-18.905464
1.3760389,-1.156602,-6.156775,16.15737,-37.592327,-16.598686
1.4316851,-1.5973537,-7.0268593,19.940212,-47.76914,-14.567872
1.4048233,-2.091288,-7.8344016,24.474756,-58.590122,-10.248573
1.3697683,-2.4193103,-8.495313,27.862164,-69.7033,-5.148041
1.3840897,-2.5905561,-8.872809,29.831438,-81.93418,-0.27693754
1.4794805,-2.5792882,-8.922607,29.998951,-93.81723,4.8388767
1.5782405,-2.5264902,-8.660107,28.539536,-104.667145,10.771379
1.700738,-2.5454726,-8.119283,27.315838,-113.97922,16.887815
1.9214544,-2.4891791,-7.1634817,27.215633,-120.68199,22.148207
2.2060804,-2.2411358,-5.979053,27.021988,-124.90711,26.766762
2.509152,-1.8282496,-4.6235766,26.17136,-126.95657,30.641376
2.818954,-1.3971485,-3.186588,25.14404,-126.35371,33.448936
3.1043034,-0.99168557,-1.7816893,23.870714,-122.124176,35.02535
3.3769379,-0.5977183,-0.4787427,22.761856,-115.25684,35.544033
3.6141505,-0.22300313,0.65461856,21.723196,-106.04175,35.165977
3.7806792,0.08098218,1.5741789,20.72387,-95.210625,33.94205
3.8604333,0.33594134,2.242394,19.692978,-83.93024,32.017017
3.8718321,0.5123039,2.6780627,18.973894,-72.62207,29.427013
3.8196902,0.595314,2.8943193,18.78556,-61.515938,26.471832
3.7511277,0.6324923,3.0007942,19.157188,-50.7047,23.356098
3.7037761,0.66045576,3.0517135,19.619465,-40.06749,20.091244
3.68234,0.71362007,3.02972,19.56049,-29.720848,16.978746
3.666668,0.8119297,2.9353633,19.07242,-19.821646,13.578027
3.6517723,0.9978856,2.725209,17.994371,-10.909336,9.446473
3.6182537,1.1745623,2.4020884,16.700932,-3.3428605,4.9370856
3.607318,1.3772845,1.9878709,14.928459,2.9293327,0.29140332
3.6384742,1.5787079,1.5082866,12.586921,8.1507015,-4.474875
3.6592326,1.7233026,0.96951514,10.024075,11.821025,-9.790715
3.6460836,1.7943927,0.3521822,7.584777,13.762492,-15.230737
3.645551,1.8085234,-0.27268785,4.474615,14.015316,-20.00113
3.6452315,1.7096562,-0.893216,1.1117543,12.978319,-24.0072
3.632363,1.4739053,-1.473083,-1.7396461,11.1116,-27.421219
3.580719,1.1218538,-1.9848907,-3.0151086,8.504733,-30.42238
3.446732,0.6482892,-2.417697,-3.5445762,5.2334533,-32.476532
3.2808738,0.054648887,-2.773154,-4.072075,0.9602986,-32.754368
3.144115,-0.68085986,-3.0010877,-4.6869035,-3.8964849,-30.67805
3.0568519,-1.4752254,-3.0694034,-4.1792946,-8.434785,-26.954618
3.0213661,-2.1476204,-2.9745367,-1.907409,-11.858829,-22.443571
3.043906,-2.5585513,-2.7398171,1.0073229,-14.536974,-16.93392
3.125298,-2.6175544,-2.3922133,3.9472086,-16.563234,-11.112219
3.2383676,-2.4188137,-1.9466428,6.7258067,-17.684492,-5.954022
3.332558,-2.0315762,-1.4883924,8.72105,-17.71417,-1.4892254
3.3582726,-1.5491631,-1.0972226,9.936018,-16.935616,2.205426
3.3003535,-1.0672958,-0.8436195,10.076424,-15.524547,5.0685887
3.2180147,-0.61792725,-0.67605835,9.430983,-13.942426,7.0329733
3.1180265,-0.2508851,-0.57610214,8.379827,-12.300149,8.182515
3.0159092,0.03297489,-0.53275746,6.9601145,-11.1418705,8.43413
2.9384928,0.21275948,-0.52524555,5.2191534,-10.336011,8.029372
2.8593724,0.28075027,-0.5598559,3.6530674,-9.779376,7.270889
2.776527,0.2841126,-0.5954075,2.220339,-9.658518,6.586229
2.6855323,0.2748014,-0.5758943,2.1475723,-9.341981,6.3703794
2.5977972,0.26582378,-0.5570801,2.0774121,-9.036782,6.1622624
2.5131798,0.25716516,-0.5389344,2.009745,-8.74243,5.96154
2.4315457,0.24881184,-0.5214286,1.9444638,-8.458455,5.7678957
2.3527699,0.24075095,-0.5045356,1.881468,-8.1844225,5.58103
2.2767324,0.23297031,-0.48822993,1.8206624,-7.919916,5.4006615
2.2033217,0.22545844,-0.4724875,1.7619572,-7.6645474,5.226523
2.1324315,0.21820448,-0.45728555,1.7052674,-7.4179463,5.0583634
2.063961,0.21119814,-0.44260252,1.6505128,-7.179763,4.8959436
1.9978153,0.20442966,-0.428418,1.5976173,-6.9496655,4.7390385
1.9339036,0.19788979,-0.41471258,1.5465082,-6.72734,4.587433
1.8721402,0.19156976,-0.40146783,1.4971172,-6.5124884,4.4409237
1.8124435,0.1854612,-0.38866627,1.4493787,-6.3048253,4.2993164
1.7547357,0.17955615,-0.37629125,1.4032309,-6.104081,4.162427
1.6989428,0.17384705,-0.36432683,1.3586142,-5.909998,4.0300803
1.6449941,0.16832668,-0.3527579,1.3154725,-5.7223306,3.9021082
1.5928226,0.16298813,-0.34157005,1.2737519,-5.540845,3.7783513
1.5423635,0.15782483,-0.33074945,1.2334006,-5.3653164,3.6586568
1.4935555,0.15283048,-0.32028294,1.1943698,-5.1955314,3.542879
1.44634,0.14799906,-0.31015787,1.1566123,-5.031286,3.4308784
1.4006604,0.14332484,-0.30036217,1.1200832,-4.872383,3.3225214
1.356463,0.13880226,-0.29088432,1.0847392,-4.7186365,3.2176802
1.3136959,0.13442604,-0.28171322,1.0505393,-4.5698657,3.116232
1.2723098,0.13019115,-0.27283826,1.0174434,-4.4258986,3.0180595
1.232257,0.12609269,-0.2642492,0.98541397,-4.2865696,2.92305
1.1934919,0.12212599,-0.2559363,0.95441425,-4.1517205,2.831095
1.1559708,0.11828657,-0.24789014,0.9244093,-4.0211983,2.7420907
1.1196514,0.11457013,-0.2401017,0.8953653,-3.8948562,2.655937
1.0844933,0.11097252,-0.23256227,0.86724997,-3.772554,2.572538
1.0504575,0.10748975,-0.22526352,0.8400321,-3.6541557,2.4918013
1.0175064,0.10411798,-0.21819739,0.8136817,-3.5395312,2.4136376
0.9856041,0.100853525,-0.21135616,0.78817004,-3.4285548,2.337962
0.9547158,0.09769283,-0.20473237,0.7634692,-3.3211057,2.2646916
0.924808,0.09463247,-0.19831884,0.7395525,-3.2170675,2.1937468
0.89584845,0.091669135,-0.19210866,0.71639407,-3.1163278,2.1250517
0.8678061,0.088799655,-0.18609516,0.6939691,-3.0187788,2.058532
0.84065086,0.086020954,-0.18027191,0.6722535,-2.9243157,1.9941168
0.8143539,0.08333007,-0.1746327,0.6512243,-2.8328383,1.9317375
0.7888873,0.080724165,-0.16917157,0.63085914,-2.7442493,1.871328
0.7642242,0.07820047,-0.16388272,0.61113644,-2.6584554,1.8128242
0.7403385,0.07575633,-0.15876059,0.5920355,-2.5753658,1.7561648
0.71720517,0.07338917,-0.1537998,0.57353616,-2.4948933,1.7012899
0.69479996,0.071096525,-0.14899516,0.5556191,-2.416954,1.6481423
0.6730995,0.06887599,-0.14434165,0.5382657,-2.3414662,1.5966665
0.6520812,0.06672526,-0.13983442,0.52145773,-2.268351,1.5468087
0.6317232,0.064642094,-0.13546878,0.5051778,-2.1975331,1.4985173
0.6120044,0.062624335,-0.13124022,0.489409,-2.1289387,1.451742
0.5929044,0.060669895,-0.12714435,0.47413507,-2.0624967,1.4064348
0.57440346,0.05877676,-0.12317695,0.4593402,-1.9981387,1.3625485
0.55648255,0.056942973,-0.11933393,0.44500917,-1.9357984,1.3200381
0.53912324,0.05516665,-0.11561134,0.43112722,-1.8754117,1.2788599
0.5223077,0.053445973,-0.11200536,0.41768014,-1.8169166,1.2389716
0.50601864,0.051779173,-0.10851229,0.4046541,-1.7602531,1.2003322
0.4902395,0.050164543,-0.10512855,0.39203578,-1.7053632,1.1629022
0.47495407,0.04860044,-0.101850696,0.3798123,-1.6521908,1.1266435
0.46014675,0.04708526,-0.09867537,0.36797115,-1.6006817,1.091519
0.4458025,0.045617457,-0.09559934,0.35650033,-1.5507832,1.0574929
0.43190667,0.044195544,-0.09261947,0.34538805,-1.5024447,1.0245304
0.4184451,0.04281807,-0.08973274,0.3346231,-1.455617,0.9925981
0.4054042,0.041483637,-0.0869362,0.32419452,-1.4102523,0.9616636
0.39277065,0.04019089,-0.08422702,0.31409168,-1.3663049,0.9316954
0.38053167,0.038938515,-0.081602454,0.3043044,-1.32373,0.90266323
0.36867487,0.037725247,-0.07905984,0.29482272,-1.2824845,0.8745375
0.3571882,0.03654986,-0.0765966,0.28563705,-1.2425267,0.8472899
0.3460601,0.035411157,-0.07421026,0.27673808,-1.203816,0.8208928
0.33527926,0.03430799,-0.07189838,0.26811686,-1.1663135,0.7953195
0.32483485,0.03323925,-0.069658644,0.25976464,-1.1299812,0.7705442
0.31471625,0.03220385,-0.06748878,0.25167298,-1.0947824,0.7465418
0.3049133,0.031200746,-0.06538661,0.24383375,-1.0606815,0.7232881
0.29541615,0.030228931,-0.06335,0.23623903,-1.0276443,0.70075977
0.28621513,0.029287424,-0.061376907,0.22888115,-0.99563736,0.678934
0.27730104,0.028375275,-0.059465338,0.2217527,-0.9646285,0.65778875
0.2686649,0.027491566,-0.057613373,0.21484652,-0.93458647,0.6373028
0.26029795,0.026635408,-0.055819143,0.20815565,-0.90548104,0.61745554
0.25219187,0.025805939,-0.054080844,0.20167334,-0.8772829,0.59822696
0.24433842,0.025002323,-0.05239673,0.19539309,-0.84996367,0.5795978
0.23672977,0.024223754,-0.0507651,0.18930857,-0.8234959,0.5615492
0.22935823,0.02346945,-0.049184326,0.18341368,-0.79785305,0.5440631
0.2222164,0.02273865,-0.04765281,0.1777025,-0.7730093,0.5271219
0.21529712,0.022030625,-0.046169017,0.17216927,-0.74893963,0.5107086
0.20859343,0.021344658,-0.044731457,0.16680846,-0.72562,0.4948067
0.20209861,0.020680066,-0.043338683,0.16161466,-0.70302683,0.47940025
0.19580613,0.020036178,-0.041989304,0.15658267,-0.6811376,0.46447378
0.18970966,0.019412348,-0.04068196,0.15170744,-0.6599303,0.45001233
0.18380313,0.018807951,-0.03941534,0.14698409,-0.6393836,0.43600136
0.17808057,0.01822238,-0.038188178,0.14240786,-0.6194769,0.42242682
0.17253627,0.01765505,-0.03699924,0.13797417,-0.60019034,0.4092751
0.16716465,0.017105391,-0.035847332,0.13367859,-0.5815044,0.39653304
0.16196033,0.016572852,-0.034731302,0.1295168,-0.5634005,0.38418782
0.15691811,0.016056897,-0.03365003,0.12548462,-0.54586047,0.3722271
0.15203291,0.015557012,-0.032602433,0.12157801,-0.52886665,0.36063886
0.14729984,0.015072694,-0.03158746,0.11779306,-0.51240206,0.34941152
0.14271419,0.014603458,-0.030604094,0.11412599,-0.49645025,0.33853382
0.13827132,0.014148835,-0.029651351,0.110573106,-0.48099515,0.32799485
0.1339668,0.013708369,-0.028728276,0.10713086,-0.46602133,0.31778407
0.12979633,0.013281618,-0.027833946,0.10379581,-0.45151377,0.30789125
0.12575571,0.012868156,-0.026967464,0.1005646,-0.43745795,0.29830647
0.12184091,0.012467567,-0.02612796,0.09743401,-0.42383978,0.28902012
0.118048005,0.012079452,-0.025314597,0.09440088,-0.41064566,0.28002292
0.11437319,0.011703421,-0.02452656,0.0914622,-0.39786234,0.27130586
0.1108128,0.011339098,-0.023763057,0.08861502,-0.38547704,0.2628602
0.10736326,0.010986119,-0.023023328,0.08585649,-0.37347737,0.25467753
0.104021125,0.010644129,-0.022306629,0.08318384,-0.36185127,0.24674961
0.100783035,0.010312786,-0.021612242,0.0805944,-0.3505872,0.23906851
0.09764577,0.00999176,-0.020939477,0.07808558,-0.33967376,0.23162656
0.09460617,0.009680728,-0.020287655,0.075654864,-0.32910013,0.22441629
0.0916612,0.009379379,-0.019656127,0.073299825,-0.31885567,0.2174305
0.08880792,0.009087414,-0.01904426,0.07101811,-0.30893013,0.2106622
0.08604346,0.008804536,-0.018451441,0.06880742,-0.29931363,0.20410462
0.083365075,0.008530465,-0.017877078,0.06666556,-0.28999647,0.19775118
0.08077006,0.008264926,-0.017320596,0.06459038,-0.28096938,0.19159552
0.07825584,0.008007655,-0.016781436,0.0625798,-0.27222332,0.1856315
0.07581989,0.007758392,-0.016259063,0.06063181,-0.26374954,0.17985316
0.07345977,0.007516889,-0.01575295,0.058744464,-0.25553954,0.17425469
0.07117312,0.0072829034,-0.015262594,0.05691587,-0.24758513,0.1688305
0.06895765,0.0070562027,-0.014787503,0.055144206,-0.23987834,0.16357517
0.06681115,0.0068365587,-0.014327201,0.05342769,-0.23241147,0.15848345
0.06473147,0.0066237524,-0.013881228,0.051764607,-0.22517703,0.15355021
0.062716536,0.00641757,-0.013449138,0.050153296,-0.2181678,0.14877056
0.06076432,0.006217807,-0.013030498,0.048592143,-0.21137676,0.14413969
0.058872875,0.006024262,-0.0126248915,0.04707959,-0.20479712,0.13965297
0.05704031,0.0058367415,-0.01223191,0.04561412,-0.1984223,0.13530593
0.055264793,0.0056550587,-0.011851162,0.04419427,-0.19224592,0.1310942
