ax,ay,az,gx,gy,gz
-2.9191175,8.713716,-0.7136429,-3.218211,-44.888588,-7.9346175
-3.0148313,9.379476,-0.0520004,-23.204947,-53.832546,-17.822443
-2.8571808,10.016282,0.4272548,-34.46374,-54.89785,-21.747473
-2.8617878,10.716607,0.74079096,-42.746624,-55.33952,-27.58504
-2.728647,11.206995,1.0431079,-51.461197,-53.958458,-36.557407
-2.4314854,11.508684,1.2449877,-60.419132,-48.917725,-45.355614
-2.212187,11.635042,1.2659703,-70.028656,-43.30359,-53.308144
-2.124826,11.554737,1.0936865,-79.53681,-40.07843,-60.000954
-2.062899,11.266059,0.8281732,-88.724,-39.730877,-66.553665
-1.9311908,10.784307,0.52590567,-96.46097,-40.464867,-72.76872
-1.6863254,10.125195,0.20187612,-102.24842,-41.933777,-78.574295
-1.3237649,9.256582,-0.120584495,-105.94384,-43.516346,-82.93155
-0.8904041,8.119374,-0.44120327,-108.043976,-45.077316,-85.39879
-0.45532572,6.8711076,-0.74178034,-108.34554,-46.788506,-86.534355
0.05652925,5.5680494,-0.9985602,-106.873566,-48.417,-86.634575
0.7035382,4.2646585,-1.1788816,-103.892784,-49.25705,-85.67334
1.4854306,2.9940655,-1.2621175,-98.91703,-48.042255,-82.263435
2.3550205,1.8847018,-1.1808815,-93.26437,-44.85011,-77.076775
3.1732242,0.9375717,-1.0008334,-86.75194,-39.306267,-70.69627
3.8805819,0.24913706,-0.7181178,-79.92732,-31.498795,-63.53475
4.45014,-0.17924476,-0.3694258,-73.99256,-22.531797,-55.725903
4.911786,-0.43341106,-0.027938277,-69.38622,-12.664857,-46.43592
5.248486,-0.53662777,0.21817054,-65.53252,-2.4067848,-36.68896
5.4708138,-0.56549996,0.34703046,-61.93388,8.098696,-26.770493
5.580467,-0.5518773,0.35754806,-58.487385,18.690197,-16.70157
5.583722,-0.45861349,0.26420712,-55.36286,29.198997,-6.714278
5.4579287,-0.27140808,0.08706107,-52.93325,38.816746,2.1762962
5.1655397,-0.073953815,-0.18166094,-50.88341,46.77982,10.094548
4.8027463,0.122932345,-0.46830884,-49.14426,53.226147,17.366337
4.4002976,0.31728563,-0.7718707,-47.65233,58.511837,23.840872
3.9725106,0.49419832,-1.1059288,-45.903778,62.981796,29.097094
3.5227125,0.6469778,-1.471157,-43.20154,66.26521,32.46037
3.0512006,0.7972563,-1.845464,-40.060738,68.36909,34.556595
2.5700665,0.9856774,-2.1966166,-37.318134,68.96516,35.59515
2.0807407,1.1936134,-2.5337207,-35.36639,67.74464,35.803303
1.6098167,1.3975477,-2.8679786,-34.163506,64.61629,35.638214
1.184776,1.5917448,-3.1985846,-33.667786,59.663025,34.835087
0.7989235,1.7625796,-3.5309448,-33.25125,53.8636,33.124966
0.4263607,1.9283687,-3.8501515,-32.92919,47.54944,30.732557
0.05524179,2.0833938,-4.164648,-32.75173,40.559334,27.952808
-0.31420943,2.2240024,-4.4805913,-32.639904,32.72659,24.837029
-0.6735222,2.365657,-4.7961993,-32.771767,23.506634,21.075806
-1.0162656,2.5018992,-5.107697,-33.390484,13.2555065,16.931837
-1.3179595,2.606233,-5.403168,-34.348305,1.7767265,12.801993
-1.5227164,2.6821766,-5.6426387,-35.389187,-10.571242,8.974292
-1.6041453,2.7737017,-5.773971,-36.394913,-22.798197,4.9910398
-1.5434958,2.8672502,-5.7849483,-36.66818,-33.84033,-0.64175946
-1.164762,2.8677218,-5.6905966,-35.62826,-43.09631,-7.2557287
-0.5258073,2.790337,-5.547141,-33.851696,-51.070362,-13.278272
0.3474989,2.6665404,-5.333436,-32.699837,-58.013622,-17.101337
1.3230102,2.4754233,-5.058173,-32.50065,-63.05607,-18.414295
2.198838,2.2179232,-4.760575,-31.94246,-64.57782,-18.502989
2.7959964,1.9436862,-4.445025,-30.72649,-63.951744,-18.425184
3.178418,1.719373,-4.1257358,-29.25982,-62.218403,-17.883362
3.3827024,1.5750567,-3.7990065,-27.90431,-60.163315,-16.97552
3.4673607,1.5000097,-3.4730844,-26.792088,-58.0429,-16.020508
3.4867828,1.4514735,-3.1669052,-25.893023,-56.0018,-15.196666
3.4835453,1.41236,-2.8961062,-25.110437,-53.834408,-14.430579
3.4635339,1.3668395,-2.6732967,-24.32998,-51.351837,-13.741789
3.409022,1.317953,-2.4967422,-23.376446,-48.532047,-13.188807
3.3197277,1.2749805,-2.3590584,-22.335602,-45.7185,-12.661268
3.208613,1.2437499,-2.2469609,-21.396442,-43.21107,-12.047391
3.081421,1.2213291,-2.1615129,-20.66943,-40.978207,-11.34045
2.9411788,1.2050998,-2.095364,-20.148613,-38.99565,-10.659896
2.7954235,1.1841834,-2.0414927,-19.802752,-37.20095,-10.07539
2.6509511,1.1421788,-2.003909,-19.351114,-35.471428,-9.5539255
2.5040445,1.096056,-1.9729538,-18.685953,-33.783028,-9.374875
2.3648512,1.0563856,-1.9328068,-17.967123,-32.21999,-9.543567
2.2497547,1.0163879,-1.8762842,-17.33093,-30.871284,-9.835262
2.1716077,0.9714789,-1.7983117,-16.885345,-29.698126,-10.052978
2.1483135,0.9096308,-1.7051067,-16.588682,-28.449398,-10.098255
2.1764743,0.820901,-1.6082858,-16.224253,-26.553158,-9.973194
2.2306004,0.69166446,-1.5228896,-15.416417,-24.28352,-9.796063
2.1598558,0.66972804,-1.4745905,-14.927479,-23.51336,-9.485377
2.0914338,0.64851177,-1.427877,-14.454591,-22.768478,-9.18489
2.0252507,0.62798965,-1.382692,-13.997177,-22.047974,-8.894235
1.9612266,0.6081371,-1.338981,-13.554687,-21.350973,-8.613063
1.8992854,0.58893037,-1.2966923,-13.12659,-20.676647,-8.341038
1.8393539,0.57034683,-1.2557755,-12.712384,-20.024202,-8.077838
1.7813622,0.55236477,-1.216183,-12.3115835,-19.392872,-7.8231573
1.7252429,0.5349633,-1.1778688,-11.923725,-18.781927,-7.5766997
1.6709317,0.51812243,-1.140789,-11.548362,-18.190666,-7.338183
1.6183665,0.50182307,-1.1049016,-11.185067,-17.618414,-7.107334
1.5674881,0.48604667,-1.0701654,-10.833429,-17.064524,-6.8838925
1.5182393,0.4707756,-1.0365419,-10.493054,-16.528374,-6.667608
1.4705651,0.4559928,-1.0039935,-10.163562,-16.009367,-6.4582386
1.4244127,0.44168186,-0.9724841,-9.844587,-15.506927,-6.255553
1.3797314,0.42782706,-0.941979,-9.53578,-15.020501,-6.0593266
1.336472,0.41441324,-0.9124447,-9.236801,-14.549558,-5.869346
1.2945877,0.40142575,-0.8838492,-8.947325,-14.093582,-5.685404
1.254033,0.3888505,-0.85616136,-8.667037,-13.6520815,-5.507301
1.214764,0.37667403,-0.8293514,-8.395637,-13.224578,-5.3348446
1.1767387,0.36488312,-0.80339056,-8.132832,-12.810615,-5.16785
1.1399165,0.3534653,-0.77825105,-7.8783402,-12.409747,-5.006139
1.1042581,0.3424083,-0.7539061,-7.6318927,-12.02155,-4.8495383
1.0697255,0.33170047,-0.7303298,-7.393227,-11.645611,-4.697883
1.0362824,0.32133046,-0.70749736,-7.1620913,-11.281531,-4.551012
1.0038936,0.3112873,-0.68538463,-6.938241,-10.928929,-4.408771
0.972525,0.30156052,-0.66396844,-6.721442,-10.587433,-4.2710104
0.94214374,0.29213992,-0.6432264,-6.5114675,-10.256686,-4.1375856
0.9127181,0.2830156,-0.6231367,-6.308097,-9.936342,-4.008358
0.88421744,0.27417812,-0.6036785,-6.1111193,-9.626069,-3.8831923
0.8566121,0.26561826,-0.58483166,-5.92033,-9.325542,-3.7619588
0.82987356,0.25732717,-0.56657654,-5.735531,-9.034452,-3.644532
0.80397403,0.24929626,-0.5488943,-5.556531,-8.752497,-3.5307899
0.7788869,0.24151725,-0.53176665,-5.3831453,-8.479384,-3.4206154
0.7545863,0.2339821,-0.51517594,-5.2151957,-8.214834,-3.3138952
0.7310472,0.2266831,-0.4991052,-5.0525093,-7.9585752,-3.210519
0.70824546,0.21961273,-0.48353782,-4.8949184,-7.710343,-3.1103811
0.68615764,0.21276374,-0.4684579,-4.7422624,-7.469883,-3.0133789
0.6647612,0.20612915,-0.45385,-4.5943847,-7.23695,-2.9194129
0.64403427,0.19970214,-0.43969917,-4.451134,-7.0113053,-2.828387
0.62395567,0.19347617,-0.425991,-4.312364,-6.792719,-2.7402084
0.60450494,0.1874449,-0.41271147,-4.177934,-6.580968,-2.6547873
0.5856623,0.18160217,-0.3998471,-4.047706,-6.375837,-2.5720365
0.56740856,0.17594203,-0.38738477,-3.9215484,-6.1771164,-2.491872
0.5497252,0.17045876,-0.37531185,-3.7993326,-5.9846053,-2.4142122
0.53259414,0.16514678,-0.36361608,-3.6809347,-5.798108,-2.3389785
0.5159982,0.16000071,-0.3522856,-3.5662344,-5.6174355,-2.2660947
0.49992046,0.15501532,-0.34130886,-3.4551158,-5.4424043,-2.1954863
0.48434463,0.15018557,-0.33067486,-3.347466,-5.2728376,-2.1270826
0.469255,0.14550658,-0.32037276,-3.2431767,-5.1085634,-2.0608137
0.45463628,0.14097361,-0.31039217,-3.1421418,-4.949416,-1.9966131
0.4404737,0.13658208,-0.30072302,-3.0442595,-4.7952347,-1.9344158
0.42675298,0.13232756,-0.29135552,-2.9494312,-4.6458635,-1.8741589
0.41346028,0.12820575,-0.28228024,-2.8575609,-4.501152,-1.8157816
0.40058216,0.1242125,-0.273488,-2.7685559,-4.360954,-1.7592252
0.38810566,0.1203438,-0.26496997,-2.6823268,-4.225128,-1.7044325
0.37601823,0.11659572,-0.25671756,-2.5987864,-4.093538,-1.6513485
0.36430764,0.1129645,-0.24872243,-2.5178506,-3.96605,-1.5999194
0.35296217,0.109446496,-0.24097657,-2.4394383,-3.842537,-1.5500938
0.34197035,0.10603816,-0.23347217,-2.3634703,-3.7228742,-1.5018214
0.33132115,0.102736056,-0.22620168,-2.28987,-3.6069412,-1.4550536
0.32100385,0.099536866,-0.2191578,-2.2185638,-3.4946215,-1.4097434
0.3110081,0.09643739,-0.21233343,-2.1494799,-3.3858023,-1.3658454
0.30132383,0.09343449,-0.20572174,-2.0825489,-3.2803743,-1.3233153
0.29194134,0.090525165,-0.19931605,-2.0177033,-3.1782312,-1.2821105
0.2828512,0.08770649,-0.19310996,-1.9548782,-3.079271,-1.2421895
0.27404425,0.08497564,-0.18709724,-1.8940105,-2.983394,-1.2035123
0.2655117,0.08232986,-0.18127184,-1.8350393,-2.890504,-1.1660401
0.25724494,0.079766504,-0.1756279,-1.777905,-2.8005075,-1.1297352
0.24923572,0.077283,-0.17015979,-1.7225505,-2.7133148,-1.0945613
0.24147597,0.07487687,-0.164862,-1.6689204,-2.628838,-1.0604831
0.23395793,0.07254567,-0.15972924,-1.6169608,-2.5469925,-1.0274664
0.22667405,0.070287086,-0.15475635,-1.5666194,-2.4676964,-0.995478
0.21961704,0.06809885,-0.14993834,-1.5178461,-2.3908699,-0.9644859
0.21277982,0.06597876,-0.14527039,-1.4705918,-2.316436,-0.93445903
0.20615552,0.0639247,-0.14074782,-1.4248091,-2.2443204,-0.9053673
0.19973753,0.06193461,-0.13636608,-1.3804522,-2.1744506,-0.8771816
0.1935194,0.06000649,-0.1321208,-1.3374766,-2.106757,-0.8498736
0.1874949,0.05813842,-0.12800771,-1.2958394,-2.0411708,-0.82341605
0.18165801,0.056328513,-0.124022715,-1.2554986,-1.9776274,-0.7977823
0.17600287,0.05457497,-0.12016181,-1.2164142,-1.9160625,-0.77294683
0.17052384,0.052876025,-0.11642112,-1.1785467,-1.8564147,-0.7488847
0.16521539,0.051229987,-0.1127969,-1.1418582,-1.798624,-0.7255717
0.16007224,0.049635198,-0.10928554,-1.1063123,-1.742633,-0.7029847
0.15508923,0.048090063,-0.1058835,-1.071873,-1.6883851,-0.6811009
0.15026136,0.04659304,-0.10258739,-1.038506,-1.6358263,-0.6598985
0.14558381,0.045142625,-0.099393904,-1.0061779,-1.5849041,-0.63935626
0.14105189,0.043737367,-0.09629984,-0.9748563,-1.5355672,-0.61945355
0.13666107,0.042375863,-0.093302116,-0.9445099,-1.4877663,-0.6001705
0.13240695,0.041056745,-0.090397716,-0.91510826,-1.4414537,-0.58148783
0.12828527,0.0397787,-0.08758374,-0.886622,-1.396583,-0.5633868
0.12429193,0.038540438,-0.084857374,-0.8590227,-1.3531091,-0.5458493
0.1204229,0.03734073,-0.08221588,-0.8322825,-1.3109888,-0.52885777
0.11667432,0.03617837,-0.07965663,-0.80637485,-1.2701797,-0.51239526
0.11304244,0.035052195,-0.077177055,-0.7812737,-1.2306411,-0.49644524
0.109523624,0.033961084,-0.07477467,-0.756954,-1.1923333,-0.48099175
0.10611435,0.032903936,-0.07244707,-0.7333914,-1.1552182,-0.46601936
0.10281122,0.0318797,-0.07019193,-0.71056235,-1.1192585,-0.45151308
0.09961091,0.030887349,-0.06800699,-0.68844396,-1.0844183,-0.4374584
0.09651023,0.02992589,-0.06589008,-0.6670142,-1.0506625,-0.4238412
0.093506075,0.028994363,-0.06383906,-0.64625144,-1.0179577,-0.41064796
0.09059544,0.028091833,-0.061851896,-0.62613505,-0.98627096,-0.3978654
0.08777541,0.027217397,-0.059926588,-0.6066449,-0.9555706,-0.38548076
0.08504317,0.026370184,-0.058061212,-0.58776146,-0.9258259,-0.37348166
0.08239598,0.025549343,-0.056253906,-0.5694659,-0.89700717,-0.36185607
0.0798312,0.024754055,-0.054502863,-0.5517398,-0.86908555,-0.35059237
0.07734625,0.023983523,-0.052806325,-0.53456557,-0.8420331,-0.33967933
0.07493866,0.023236979,-0.051162597,-0.51792586,-0.8158228,-0.32910597
