ax,ay,az,gx,gy,gz
-2.58366,8.439168,-1.4745588,9.210993,-14.537405,-45.721325
-2.4470758,9.377252,-1.0659604,-15.912632,-20.435873,-55.228115
-2.2780356,10.144689,-0.6875459,-31.737215,-20.518322,-61.779297
-2.307159,10.605003,-0.53098017,-43.01863,-20.411263,-66.88665
-2.4231446,11.059797,-0.37136203,-52.85983,-21.309355,-73.63208
-2.4648242,11.443602,-0.21325926,-62.757973,-22.61104,-80.37545
-2.4394438,11.713698,-0.13843317,-74.65572,-25.385939,-86.204506
-2.3144763,11.637332,-0.23891129,-86.98796,-29.17552,-90.443146
-2.073608,11.281244,-0.46703207,-98.67918,-33.196465,-93.98509
-1.7356414,10.634137,-0.7913847,-108.21863,-36.380585,-97.97158
-1.3104328,9.739055,-1.1661289,-114.97599,-38.82257,-101.92164
-0.8434453,8.646456,-1.522878,-119.394264,-40.662666,-103.79947
-0.39527938,7.3238335,-1.8219887,-121.98675,-42.667736,-104.18287
0.073347285,5.926212,-2.0196567,-122.43292,-44.550663,-103.605865
0.61520004,4.5055804,-2.1312377,-120.76333,-45.62108,-102.197136
1.2674491,3.1199355,-2.157045,-117.06976,-45.57431,-99.30871
2.021117,1.8490704,-2.0841138,-111.120384,-43.033634,-93.99572
2.8108923,0.8108652,-1.8775465,-104.409,-38.116306,-87.03098
3.469203,0.0058528944,-1.5961643,-97.408806,-31.098846,-79.012375
3.9246309,-0.5956266,-1.3042256,-90.03393,-22.9559,-70.43354
4.22519,-1.0051064,-1.0325298,-82.58203,-14.625064,-61.617714
4.4446936,-1.2034934,-0.7753135,-75.99377,-5.6625795,-52.671284
4.55508,-1.2230611,-0.6046421,-70.02661,3.7040703,-44.00008
4.5606813,-1.164619,-0.53647244,-64.873215,12.915125,-35.492336
4.463182,-1.0493541,-0.56071013,-60.587547,21.748552,-27.326656
4.2671275,-0.91393316,-0.6724069,-56.971752,29.888124,-19.493973
3.988179,-0.75944805,-0.8567297,-53.779877,37.02064,-12.113893
3.6034188,-0.5866331,-1.1258129,-50.707146,42.814823,-5.473665
3.175604,-0.4179676,-1.4243399,-47.700806,47.239815,0.2896044
2.731168,-0.23936072,-1.7444867,-44.76285,50.379944,5.0325727
2.2726152,-0.039187502,-2.078685,-42.095074,52.368237,8.347855
1.7891631,0.14152038,-2.4382265,-39.277107,52.42039,10.007365
1.2866571,0.32775575,-2.7962425,-36.56206,50.86477,10.662088
0.8005794,0.527151,-3.133297,-34.180977,47.68202,10.557034
0.34707868,0.73099095,-3.4457145,-32.225433,43.03333,9.933727
-0.072064415,0.9301221,-3.7292895,-30.689259,37.136242,8.84936
-0.45955202,1.1233519,-3.9871135,-29.611614,29.902706,7.0025945
-0.81953114,1.3032825,-4.2354803,-28.863115,21.791718,4.617298
-1.1411182,1.4483887,-4.490959,-28.31302,12.647981,1.9453611
-1.3952824,1.566043,-4.733721,-28.087885,2.5552876,-0.58968204
-1.5958152,1.6618054,-4.9310155,-28.228874,-8.164239,-3.1029813
-1.7430007,1.7141124,-5.0902104,-27.975988,-19.142385,-6.654538
-1.7373466,1.7302526,-5.180774,-26.970318,-29.749966,-11.425024
-1.5250065,1.73758,-5.190623,-25.39908,-39.748497,-16.64286
-1.1153903,1.7124289,-5.116819,-23.721798,-49.15407,-20.94175
-0.51840824,1.6393002,-4.967783,-22.191175,-57.397545,-23.66271
0.18096824,1.5402637,-4.734704,-20.519354,-62.81933,-24.988478
0.87786716,1.4610265,-4.4014764,-18.754238,-65.843765,-26.059412
1.508686,1.3963827,-4.031809,-17.15551,-66.79938,-26.573507
2.0336404,1.3441567,-3.6579163,-16.042034,-66.45702,-26.171247
2.4379416,1.3006096,-3.3050642,-15.45157,-65.275764,-24.92832
2.7259705,1.261456,-2.9884067,-15.258704,-63.25092,-23.161684
2.8869941,1.2261963,-2.720568,-15.126188,-60.65465,-21.474432
2.9668581,1.1901995,-2.4954271,-14.986445,-57.6078,-19.954147
2.9735215,1.1568002,-2.312747,-14.82765,-54.346687,-18.526804
2.9197779,1.1304717,-2.1632922,-14.682753,-51.16939,-17.166098
2.8253443,1.1140803,-2.0364516,-14.607359,-48.192223,-15.971411
2.7042046,1.1067365,-1.9341199,-14.596696,-45.470657,-14.955897
2.5833533,1.0910637,-1.849502,-14.60239,-42.90043,-13.958827
2.4664707,1.0698568,-1.7802032,-14.66153,-40.387714,-13.023016
2.3588417,1.0346507,-1.7240998,-14.833571,-37.87837,-12.229246
2.268166,0.97974813,-1.6856083,-14.865141,-35.41929,-11.738124
2.2349052,0.87895584,-1.6577303,-14.664827,-32.943123,-11.412029
2.1628432,0.8506149,-1.6042786,-14.191977,-31.880909,-11.044061
2.0932553,0.82324696,-1.5526621,-13.73536,-30.855164,-10.688726
2.0260427,0.79681325,-1.5028075,-13.29433,-29.864431,-10.345521
1.961112,0.77127695,-1.4546455,-12.868274,-28.907335,-10.0139675
1.8983746,0.74660325,-1.4081103,-12.456607,-27.982569,-9.693613
1.8377459,0.7227588,-1.3631393,-12.058779,-27.088884,-9.384027
1.779146,0.69971234,-1.3196731,-11.674262,-26.225105,-9.084799
1.7224983,0.67743367,-1.2776549,-11.302556,-25.390102,-8.795541
1.6677305,0.6558942,-1.2370311,-10.943184,-24.58281,-8.515882
1.6147729,0.6350668,-1.1977502,-10.595692,-23.802202,-8.245466
1.5635598,0.61492544,-1.159763,-10.259645,-23.047306,-7.9839582
1.5140277,0.5954452,-1.1230229,-9.93463,-22.31719,-7.7310343
1.4661165,0.5766024,-1.087485,-9.62025,-21.610964,-7.486387
1.4197683,0.55837435,-1.0531064,-9.316126,-20.92778,-7.24972
1.374928,0.54073924,-1.0198463,-9.021896,-20.26682,-7.0207534
1.3315425,0.5236764,-0.9876653,-8.737212,-19.627306,-6.7992153
1.2895612,0.50716573,-0.95652586,-8.461742,-19.00849,-6.5848475
1.2489353,0.4911882,-0.9263919,-8.195168,-18.409655,-6.377401
1.2096184,0.4757254,-0.8972287,-7.9371805,-17.830112,-6.176638
1.1715655,0.4607598,-0.8690032,-7.6874886,-17.269201,-5.98233
1.1347338,0.44627434,-0.8416834,-7.445808,-16.72629,-5.7942567
1.0990816,0.43225288,-0.81523854,-7.211869,-16.200768,-5.6122074
1.0645694,0.4186797,-0.78963923,-6.985409,-15.692048,-5.4359784
1.0311588,0.40553984,-0.7648572,-6.766178,-15.199567,-5.265375
0.99881315,0.39281875,-0.74086493,-6.553935,-14.722783,-5.1002097
0.967497,0.38050255,-0.7176363,-6.348447,-14.261174,-4.9403005
0.9371761,0.3685778,-0.6951459,-6.14949,-13.814236,-4.7854743
0.9078178,0.35703158,-0.6733695,-5.956848,-13.381486,-4.6355624
0.87939024,0.34585145,-0.65228355,-5.7703147,-12.962457,-4.490404
0.8518631,0.3350254,-0.6318654,-5.5896893,-12.556698,-4.3498425
0.82520676,0.32454187,-0.61209315,-5.4147778,-12.163776,-4.2137284
0.7993929,0.31438965,-0.5929459,-5.245394,-11.783273,-4.081916
0.77439415,0.304558,-0.57440317,-5.08136,-11.414785,-3.9542656
0.7501841,0.29503655,-0.5564455,-4.9225,-11.057922,-3.8306427
0.72673726,0.28581524,-0.5390539,-4.768648,-10.712309,-3.7109165
0.7040289,0.27688438,-0.5222101,-4.6196423,-10.377582,-3.5949616
0.6820353,0.26823464,-0.50589645,-4.4753265,-10.0533905,-3.4826565
0.6607336,0.25985694,-0.49009597,-4.3355503,-9.739396,-3.373884
0.64010143,0.2517426,-0.47479218,-4.2001677,-9.435272,-3.2685306
0.6201174,0.24388319,-0.45996913,-4.0690384,-9.140703,-3.166487
0.6007609,0.23627055,-0.4456115,-3.9420261,-8.855382,-3.0676472
0.58201176,0.2288968,-0.43170446,-3.8189998,-8.579015,-2.971909
0.5638507,0.22175433,-0.41823357,-3.699832,-8.3113165,-2.879174
0.54625905,0.21483578,-0.40518504,-3.5844002,-8.05201,-2.789346
0.5292187,0.20813403,-0.3925454,-3.472586,-7.80083,-2.7023332
0.512712,0.20164222,-0.3803017,-3.364274,-7.5575175,-2.618046
0.49672225,0.19535367,-0.36844137,-3.2593536,-7.321824,-2.536398
0.481233,0.18926196,-0.35695228,-3.1577175,-7.093508,-2.4573054
0.46622837,0.18336087,-0.3458227,-3.0592613,-6.872336,-2.380688
0.45169312,0.17764436,-0.33504122,-2.9638848,-6.658082,-2.3064668
0.43761238,0.17210661,-0.3245969,-2.871491,-6.4505277,-2.234567
0.42397183,0.16674198,-0.31447908,-2.7819855,-6.2494626,-2.1649146
0.4107576,0.16154502,-0.3046775,-2.6952775,-6.054681,-2.097439
0.39795625,0.15651043,-0.29518217,-2.6112785,-5.865986,-2.032072
0.38555482,0.15163313,-0.28598344,-2.5299037,-5.683185,-1.9687469
0.3735407,0.14690815,-0.277072,-2.4510703,-5.5060935,-1.9073995
0.3619017,0.1423307,-0.26843888,-2.3746986,-5.3345313,-1.8479677
0.35062608,0.13789617,-0.2600752,-2.3007112,-5.168326,-1.7903913
0.3397024,0.13360004,-0.25197265,-2.229033,-5.0073075,-1.7346121
0.32911965,0.12943798,-0.24412292,-2.1595917,-4.851315,-1.6805737
0.3188671,0.1254058,-0.23651814,-2.0923173,-4.7001896,-1.6282214
0.30893442,0.12149943,-0.22915062,-2.0271418,-4.553779,-1.5775025
0.29931158,0.117714904,-0.22201294,-1.9639995,-4.411936,-1.5283656
0.28998888,0.11404842,-0.21509786,-1.9028264,-4.274516,-1.4807614
0.2809569,0.11049628,-0.20839845,-1.8435612,-4.1413827,-1.4346417
0.27220657,0.107054904,-0.20190793,-1.786144,-4.0124006,-1.3899602
0.26372907,0.10372082,-0.19561978,-1.730517,-3.8874397,-1.3466718
0.25551587,0.10049069,-0.18952768,-1.6766242,-3.7663748,-1.3047329
0.24755868,0.097361244,-0.18362547,-1.6244115,-3.6490836,-1.2641015
0.23984954,0.09432935,-0.17790724,-1.5738261,-3.5354488,-1.2247365
0.23238066,0.09139194,-0.17236724,-1.5248173,-3.4253554,-1.1865983
0.22514454,0.08854609,-0.16699989,-1.477336,-3.318693,-1.1496488
0.21813393,0.08578891,-0.1617998,-1.4313343,-3.2153547,-1.1138507
0.21134177,0.08311766,-0.15676175,-1.386766,-3.1152363,-1.0791681
0.20476124,0.08052963,-0.15188067,-1.3435864,-3.0182374,-1.0455661
0.19838573,0.078022234,-0.14715166,-1.3017521,-2.9242606,-1.0130111
0.19220884,0.07559296,-0.14257,-1.2612212,-2.8332117,-0.9814702
0.1862244,0.07323936,-0.13813105,-1.2219528,-2.7449992,-0.950912
0.18042636,0.07095908,-0.1338304,-1.1839077,-2.6595347,-0.9213057
0.17480895,0.06874982,-0.1296637,-1.1470478,-2.5767324,-0.89262164
0.1693665,0.06660939,-0.12562679,-1.111336,-2.496509,-0.86483103
0.16409355,0.06453562,-0.12171562,-1.0767365,-2.4187846,-0.837906
0.15898485,0.06252644,-0.11792626,-1.0432146,-2.3434808,-0.81181955
0.15403526,0.060579836,-0.11425492,-1.0107367,-2.2705226,-0.78654563
0.14923981,0.058693856,-0.11069792,-0.9792702,-2.1998363,-0.76205873
0.1445937,0.056866612,-0.1072517,-0.9487838,-2.1313515,-0.7383345
0.14009228,0.05509627,-0.103912786,-0.91924673,-2.064999,-0.715349
0.13573104,0.053381056,-0.100677855,-0.8906295,-2.0007133,-0.69307935
0.13150561,0.051719252,-0.097543664,-0.86290336,-1.9384292,-0.6715031
0.12741175,0.050109196,-0.09450706,-0.83604056,-1.8780847,-0.6505988
0.12344537,0.048549276,-0.09156502,-0.8100143,-1.819619,-0.6303454
0.119602494,0.04703793,-0.08871458,-0.7847984,-1.7629739,-0.6107226
0.11587927,0.045573637,-0.08595289,-0.7603676,-1.7080926,-0.5917108
0.11227197,0.04415494,-0.083277196,-0.7366975,-1.65492,-0.57329094
0.10877699,0.042780414,-0.08068481,-0.7137644,-1.603403,-0.55544466
0.105390824,0.041448683,-0.07817314,-0.6915453,-1.5534899,-0.538154
0.10211008,0.040158417,-0.07573967,-0.670018,-1.505131,-0.52140164
0.09893149,0.03890832,-0.07338196,-0.649161,-1.4582776,-0.5051709
0.09585185,0.037697148,-0.07109766,-0.6289533,-1.4128829,-0.48944542
0.0928681,0.036523677,-0.06888447,-0.6093747,-1.3689015,-0.47420958
0.089977235,0.035386745,-0.066740185,-0.59040564,-1.3262894,-0.45944804
0.087176375,0.034285203,-0.06466266,-0.57202715,-1.2850039,-0.44514608
0.0844627,0.03321796,-0.06264981,-0.55422086,-1.2450037,-0.43128937
0.08183352,0.032183938,-0.060699623,-0.5369688,-1.2062488,-0.41786402
0.07928619,0.031182108,-0.058810152,-0.52025396,-1.1687003,-0.40485665
0.07681815,0.030211467,-0.0569795,-0.5040594,-1.1323209,-0.3922542
0.07442695,0.029271042,-0.055205837,-0.488369,-1.0970739,-0.3800441
0.07211019,0.028359894,-0.05348739,-0.47316706,-1.0629241,-0.36821407
0.06986555,0.027477108,-0.05182244,-0.45843834,-1.0298376,-0.35675234
0.06769078,0.026621806,-0.050209317,-0.44416815,-0.997781,-0.34564742
0.06558372,0.025793128,-0.048646413,-0.4303422,-0.96672225,-0.3348882
0.063542254,0.024990248,-0.04713216,-0.41694662,-0.9366304,-0.32446387
0.06156433,0.024212359,-0.045665048,-0.40396804,-0.9074753,-0.31436408
0.05964798,0.023458688,-0.044243604,-0.39139348,-0.87922776,-0.3045787
0.057791285,0.022728475,-0.042866413,-0.37921038,-0.85185957,-0.2950979
0.055992387,0.022020996,-0.041532088,-0.36740652,-0.8253433,-0.28591225
0.054249488,0.021335538,-0.0402393,-0.35597008,-0.7996525,-0.27701253
