ax,ay,az,gx,gy,gz
-1.5009228,6.1382375,-6.5036955,0.2218202,13.37194,26.301147
-1.28512,7.1896873,-6.195566,-8.0266905,5.1105075,16.532076
-0.9315377,8.19548,-5.667007,-20.83741,1.979512,4.9565706
-0.43395698,9.03236,-5.182776,-34.90665,-2.73365,-5.939222
0.21063928,9.571926,-4.67199,-48.576206,-4.1211877,-17.026894
0.7594635,10.016775,-4.292358,-62.43562,-1.2573539,-30.350006
1.0601237,10.270005,-4.1421576,-74.997955,2.406648,-43.937496
1.2425747,10.37393,-4.14063,-87.080086,4.957454,-57.506817
1.3626927,10.278714,-4.2168956,-98.28753,5.5460615,-69.86372
1.4685675,10.039348,-4.2703886,-109.01088,4.409078,-79.9199
1.6453645,9.650543,-4.2518835,-119.14432,2.904727,-87.73983
1.7827474,9.135301,-4.1897774,-127.57843,1.9603395,-95.05666
1.8730351,8.531464,-4.142016,-135.00476,0.79525393,-102.056496
1.9892454,7.79256,-4.109433,-141.42007,-0.60697865,-108.06778
2.1473022,6.9134984,-4.0804176,-146.47702,-1.9923197,-112.30681
2.3125887,5.9503245,-4.045,-149.27446,-2.9492176,-114.429924
2.4390786,4.9513097,-3.9889212,-149.67918,-3.475723,-115.36973
2.528553,4.026228,-3.8830676,-148.37831,-3.7239761,-115.26152
2.5753932,3.1809435,-3.7417495,-145.77968,-3.645915,-113.980194
2.570016,2.4162283,-3.5986717,-142.48898,-3.3097515,-111.62583
2.5067153,1.721209,-3.4911659,-138.40395,-2.7842379,-108.41868
2.3980112,1.084609,-3.4237463,-133.82515,-2.234352,-104.96517
2.2897997,0.5166472,-3.3781939,-128.56476,-1.7848121,-101.23435
2.1879919,0.05134477,-3.3380716,-122.720955,-1.6889012,-97.19565
2.0843182,-0.28892928,-3.28263,-116.469376,-2.172829,-93.50699
2.0077865,-0.54898876,-3.1834702,-110.2042,-3.0105548,-90.462
2.0072107,-0.81559485,-3.0566978,-103.933846,-3.611507,-87.74637
2.0357587,-1.1186974,-2.9658034,-97.41885,-4.269048,-84.55947
2.0970922,-1.4377278,-2.8784783,-90.9737,-5.3941765,-80.19519
2.2117572,-1.7379379,-2.7604127,-84.51448,-6.7223783,-74.54636
2.3898926,-2.011983,-2.6009068,-77.67007,-7.4171805,-67.71541
2.6378565,-2.2369537,-2.4004354,-69.937675,-6.598834,-61.19769
2.8750646,-2.4050024,-2.2023158,-61.36182,-3.9507134,-55.28481
3.0593164,-2.4886181,-2.040864,-52.503193,-0.3534293,-49.818653
3.186567,-2.5112739,-1.9030821,-43.685116,3.6708431,-44.752777
3.2703657,-2.502682,-1.7740922,-34.975918,8.1996,-40.398495
3.3504596,-2.4782608,-1.6147052,-26.859167,13.868467,-36.091114
3.4049673,-2.3954732,-1.4767407,-19.502878,20.754225,-31.847761
3.3857527,-2.2423942,-1.4073145,-12.295464,28.607656,-28.710857
3.2672157,-2.0547242,-1.4426255,-4.768863,36.209797,-27.038345
3.0872295,-1.8748285,-1.5213864,1.3437679,42.35032,-25.529064
2.914,-1.7258621,-1.6391371,6.366189,47.72996,-23.161753
2.7312577,-1.552868,-1.7816209,10.176747,52.363773,-20.10695
2.5324645,-1.3558168,-1.9462767,12.9650955,56.101074,-16.85322
2.334133,-1.1420375,-2.1159863,14.720214,59.10009,-13.8450575
2.1411273,-0.93291134,-2.3138182,15.744251,61.199223,-11.419026
1.9078295,-0.7433182,-2.576836,16.445883,62.221615,-9.428006
1.6442908,-0.57734007,-2.8761246,16.744278,61.843872,-7.697886
1.3737079,-0.43627998,-3.1923118,16.587502,60.270145,-6.101523
1.0949547,-0.33486208,-3.546773,16.107872,57.29136,-5.0296474
0.80948853,-0.30080217,-3.9290793,16.248047,52.56767,-4.7282724
0.516847,-0.32554382,-4.324602,16.675756,46.38285,-4.471247
0.25036314,-0.3816497,-4.7252345,17.068834,38.461414,-3.5348024
0.016980004,-0.47193632,-5.1198883,17.562857,28.860323,-1.575836
-0.20583591,-0.5251083,-5.493539,18.145676,17.784382,0.83800495
-0.42203343,-0.5161613,-5.8150535,19.160248,5.5772867,1.5112991
-0.5590571,-0.5156957,-6.0518446,20.679745,-6.2770257,0.7049576
-0.5650527,-0.5714195,-6.2099786,22.632393,-17.617023,0.36579266
-0.46014914,-0.61779654,-6.277409,24.311724,-28.471046,1.7197222
-0.29428354,-0.5897254,-6.2567124,25.26338,-38.74653,4.3078685
-0.04458302,-0.4390815,-6.1178274,25.626358,-47.624794,6.130681
0.4171332,-0.16703668,-5.727864,24.964205,-54.434345,7.7057953
0.95868486,0.112096734,-5.2122636,22.93048,-59.01883,9.662054
1.4537677,0.32093728,-4.7073803,20.205404,-61.57339,11.649146
1.8325307,0.408389,-4.3123646,16.996521,-62.59491,13.456081
2.1003356,0.35594237,-4.0305314,14.206835,-62.35278,14.897585
2.2753391,0.25021783,-3.8377135,12.088882,-61.92911,16.028027
2.4263568,0.17180145,-3.6546395,10.669232,-61.428005,16.72197
2.583444,0.13789055,-3.4656467,9.402565,-60.879387,17.11384
2.7462764,0.11930399,-3.2643561,8.26393,-59.99104,17.264893
2.896965,0.10942397,-3.0609205,7.2428946,-58.35495,17.181572
3.0003655,0.10638991,-2.8879867,6.2499213,-56.476246,17.02922
3.0567493,0.11774554,-2.7464268,5.4021816,-54.79917,16.823765
3.0989707,0.12844169,-2.6010299,4.582364,-53.0728,16.774137
3.1172187,0.14027566,-2.463162,3.8029857,-51.085995,16.834417
3.0977817,0.15944374,-2.341767,2.9853773,-48.691013,16.601055
3.0403795,0.18434066,-2.2264507,2.0786762,-45.87829,15.894885
2.9646003,0.20027925,-2.118644,0.92774326,-42.798508,14.955298
2.8690968,0.20345747,-2.0315642,-0.563336,-39.66072,13.978796
2.7786388,0.1970428,-1.9675124,-0.54557496,-38.410282,13.538068
2.6911018,0.19083524,-1.9055287,-0.5283874,-37.200222,13.11157
2.606385,0.18482769,-1.845542,-0.51175356,-36.029144,12.698813
2.524392,0.17901327,-1.7874838,-0.49565455,-34.89572,12.299327
2.4450297,0.17338543,-1.7312887,-0.4800721,-33.798664,11.912659
2.3682094,0.16793783,-1.6768934,-0.46498874,-32.736744,11.538376
2.2938454,0.16266443,-1.6242373,-0.45038763,-31.70878,11.17606
2.2218552,0.15755935,-1.5732621,-0.43625262,-30.713629,10.825309
2.1521592,0.15261698,-1.5239116,-0.42256814,-29.750195,10.485738
2.0846817,0.14783192,-1.4761318,-0.4093192,-28.817425,10.156974
2.0193489,0.14319895,-1.4298706,-0.39649135,-27.914303,9.83866
1.9560901,0.13871305,-1.385078,-0.3840707,-27.039848,9.53045
1.8948368,0.13436936,-1.3417054,-0.37204385,-26.19312,9.232013
1.8355235,0.13016325,-1.2997066,-0.3603979,-25.373205,8.943027
1.7780867,0.12609021,-1.2590364,-0.3491204,-24.579233,8.663183
1.7224652,0.1221459,-1.2196517,-0.33819935,-23.810354,8.392184
1.6686,0.118326135,-1.1815106,-0.32762313,-23.065754,8.129743
1.6164342,0.114626884,-1.1445727,-0.31738058,-22.344645,7.8755813
1.5659128,0.111044236,-1.1087993,-0.3074609,-21.646265,7.6294312
1.5169828,0.10757444,-1.0741527,-0.2978537,-20.969885,7.3910346
1.4695929,0.10421386,-1.0405966,-0.28854886,-20.314795,7.160142
1.4236937,0.10095899,-1.008096,-0.27953672,-19.680311,6.9365115
1.3792372,0.097806424,-0.97661704,-0.27080786,-19.06577,6.719911
1.3361773,0.09475291,-0.946127,-0.26235324,-18.470535,6.510115
1.2944695,0.09179526,-0.9165943,-0.25416404,-17.89399,6.306906
1.2540704,0.08893043,-0.8879884,-0.24623185,-17.335537,6.1100745
1.2149385,0.08615545,-0.8602797,-0.23854847,-16.794601,5.919416
1.1770334,0.08346747,-0.83343965,-0.23110595,-16.270624,5.7347355
1.1403162,0.08086373,-0.80744076,-0.22389667,-15.763066,5.555842
1.1047491,0.07834154,-0.7822562,-0.21691321,-15.271407,5.382552
1.0702957,0.075898334,-0.75786024,-0.21014841,-14.795144,5.2146883
1.0369207,0.0735316,-0.73422796,-0.20359536,-14.333787,5.0520787
1.00459,0.07123892,-0.71133506,-0.19724736,-13.886867,4.8945575
0.97327065,0.069017954,-0.6891583,-0.19109792,-13.453926,4.7419634
0.9429307,0.06686644,-0.667675,-0.18514077,-13.034524,4.594141
0.9135392,0.06478219,-0.64686334,-0.17936987,-12.628232,4.45094
0.8850662,0.06276307,-0.6267021,-0.17377932,-12.234639,4.3122144
0.85748297,0.060807053,-0.60717076,-0.16836345,-11.853344,4.1778235
0.8307614,0.058912132,-0.5882496,-0.16311677,-11.48396,4.0476303
0.80487436,0.057076395,-0.5699194,-0.15803395,-11.126113,3.9215038
0.77979565,0.055297974,-0.5521615,-0.15310985,-10.77944,3.7993155
0.75549984,0.05357508,-0.53495806,-0.14833947,-10.443589,3.6809418
0.73196244,0.05190596,-0.5182916,-0.14371799,-10.118221,3.566263
0.70915955,0.05028893,-0.50214523,-0.13924073,-9.803008,3.455163
0.6870682,0.04872236,-0.48650268,-0.13490318,-9.49763,3.3475296
0.6656661,0.047204662,-0.47134814,-0.13070096,-9.20178,3.2432544
0.6449316,0.04573431,-0.45666635,-0.12662981,-8.915158,3.142232
0.62484384,0.044309814,-0.4424425,-0.12268566,-8.637477,3.0443604
0.6053825,0.042929746,-0.42866224,-0.11886451,-8.368455,2.9495409
0.586528,0.04159271,-0.41531166,-0.1151625,-8.107821,2.8576784
0.56826144,0.040297363,-0.40237734,-0.111575924,-7.8553143,2.7686799
0.5505643,0.0390424,-0.38984627,-0.10810116,-7.6106796,2.682456
0.53341883,0.037826553,-0.37770584,-0.10473472,-7.3736706,2.5989199
0.5168078,0.03664861,-0.3659438,-0.101473205,-7.144049,2.5179877
0.5007145,0.035507377,-0.35454836,-0.09831334,-6.9215846,2.439578
0.48512268,0.03440171,-0.34350806,-0.095251955,-6.7060533,2.363612
0.4700168,0.0333305,-0.3328118,-0.092285976,-6.497238,2.290013
0.4553816,0.032292668,-0.32244885,-0.08941241,-6.29493,2.2187076
0.44120243,0.031287175,-0.3124088,-0.086628385,-6.098925,2.1496239
0.42746502,0.030313008,-0.30268154,-0.083931096,-5.909027,2.0826926
0.4141556,0.02936919,-0.29325733,-0.08131784,-5.725045,2.0178463
0.4012608,0.028454777,-0.28412673,-0.078786,-5.5467954,1.9550204
0.3887677,0.027568847,-0.27528054,-0.07633303,-5.374098,1.8941516
0.37666374,0.026710514,-0.26670992,-0.07395646,-5.20678,1.8351787
0.3649368,0.025878917,-0.25840625,-0.071653925,-5.0446734,1.7780429
0.3535751,0.025073223,-0.2503612,-0.0694231,-4.887616,1.7226865
0.34256732,0.02429262,-0.24256675,-0.06726176,-4.7354507,1.6690544
0.33190233,0.02353633,-0.23501505,-0.06516774,-4.588024,1.6170926
0.3215695,0.022803593,-0.22769852,-0.063138925,-4.4451895,1.566749
0.31155846,0.022093678,-0.22060986,-0.061173297,-4.3068023,1.5179733
0.3018592,0.021405868,-0.21374194,-0.05926888,-4.172725,1.4707165
0.29246193,0.020739477,-0.2070879,-0.057423767,-4.0428233,1.4249313
0.28335732,0.020093838,-0.20064105,-0.05563611,-3.9169664,1.3805718
0.27453622,0.019468304,-0.19439496,-0.053904124,-3.7950287,1.3375938
0.2659898,0.018862247,-0.18834336,-0.052226063,-3.6768878,1.2959539
0.25770947,0.018275062,-0.1824802,-0.050600257,-3.5624256,1.2556106
0.24968699,0.017706158,-0.1767996,-0.04902507,-3.451527,1.2165234
0.24191429,0.01715497,-0.17129585,-0.04749893,-3.3440819,1.1786532
0.23438358,0.016620941,-0.16596349,-0.046020307,-3.239982,1.1419623
0.22708736,0.016103541,-0.16079713,-0.04458772,-3.1391232,1.1064136
0.2200183,0.015602251,-0.15579164,-0.04319974,-3.0414045,1.0719718
0.21316932,0.015116566,-0.15094198,-0.04185497,-2.9467285,1.0386022
0.20653358,0.014646003,-0.14624332,-0.04055207,-2.8549998,1.0062717
0.20010443,0.01419009,-0.14169094,-0.039289728,-2.7661269,0.97494763
0.19387545,0.013748371,-0.13728029,-0.038066693,-2.680021,0.9445988
0.18784037,0.013320404,-0.13300695,-0.03688173,-2.5965958,0.91519475
0.1819932,0.012905761,-0.12886664,-0.03573366,-2.5157678,0.8867062
0.17632805,0.012504025,-0.124855235,-0.034621328,-2.4374561,0.85910445
0.17083926,0.012114797,-0.12096871,-0.033543628,-2.3615823,0.832362
0.16552135,0.011737686,-0.117203176,-0.032499474,-2.2880707,0.8064521
0.160369,0.011372314,-0.113554865,-0.03148783,-2.2168474,0.7813488
0.15537703,0.011018316,-0.11002013,-0.030507676,-2.1478412,0.757027
0.15054046,0.010675339,-0.106595434,-0.029558035,-2.0809834,0.73346233
0.14585446,0.010343039,-0.10327735,-0.028637957,-2.016207,0.71063125
0.14131434,0.010021083,-0.10006255,-0.027746521,-1.953447,0.68851084
0.13691555,0.00970915,-0.096947834,-0.026882837,-1.8926406,0.6670791
0.13265368,0.009406927,-0.09393007,-0.026046036,-1.8337271,0.6463145
0.1285245,0.009114112,-0.09100626,-0.025235286,-1.7766477,0.62619627
0.12452384,0.008830412,-0.08817346,-0.024449773,-1.721345,0.6067043
0.12064773,0.008555544,-0.08542884,-0.023688713,-1.6677638,0.58781916
0.11689227,0.008289231,-0.082769655,-0.022951344,-1.6158506,0.56952184
