ax,ay,az,gx,gy,gz
-1.6272875,4.6545877,-3.6363966,-8.711898,77.12706,69.747
-2.1422112,5.1908097,-4.5095716,-12.354537,65.737564,63.298496
-2.3715909,5.545384,-4.860022,-20.532078,51.475746,53.80954
-2.1658077,5.7330575,-4.9177914,-29.864859,38.978626,45.866135
-1.623249,5.768759,-4.749134,-39.194195,29.108177,39.83914
-0.98557526,5.769957,-4.458181,-47.737743,24.078909,34.71075
-0.47138956,5.9839115,-4.1647077,-53.346676,22.889719,26.637848
-0.1312893,6.232489,-3.9390488,-57.649258,23.204044,15.175524
0.1357532,6.481906,-3.7146425,-62.06473,24.22531,2.0855672
0.3725255,6.6800537,-3.4912767,-67.45004,25.562737,-10.500089
0.53636116,6.80681,-3.3200908,-75.43683,25.785782,-20.587988
0.6171417,6.83138,-3.196884,-83.79258,24.973463,-28.731531
0.6900016,6.834235,-3.0380034,-91.78352,24.512709,-36.688805
0.73234266,6.798558,-2.895064,-99.17089,25.000181,-45.559223
0.68664944,6.655856,-2.8186383,-105.92878,25.303944,-55.628227
0.5933492,6.308193,-2.8032758,-112.427,24.015345,-65.21386
0.5954888,5.610182,-2.8748512,-118.31014,21.444529,-72.228386
0.6914293,4.7205963,-2.95069,-122.78889,18.42192,-76.59234
0.83329934,3.7288072,-3.0155277,-124.83519,15.724759,-79.53511
1.0126356,2.6905794,-3.053935,-124.14298,13.710274,-81.158936
1.2084113,1.6959156,-3.0736594,-120.98477,11.750225,-80.028404
1.3984793,0.8003776,-3.0447717,-116.61626,9.670803,-76.73693
1.5801631,0.026253993,-2.9543061,-111.294365,7.5782843,-71.774956
1.7653179,-0.6306258,-2.7949119,-104.91201,6.2956314,-65.94138
1.9417573,-1.1521888,-2.5824504,-97.25424,6.529437,-60.182236
2.0827112,-1.508644,-2.354817,-88.574585,8.723765,-55.407715
2.177011,-1.737623,-2.152023,-80.05448,11.527164,-51.170494
2.2633421,-1.8778294,-1.9688863,-71.74607,14.344816,-46.57967
2.3387754,-1.9632756,-1.8045594,-63.725506,17.02835,-41.763977
2.3984194,-2.0435786,-1.6666124,-55.660046,19.81812,-36.809753
2.4590335,-2.1166933,-1.5496312,-47.144184,23.307198,-31.415264
2.5258436,-2.0973377,-1.4310782,-38.786312,27.733063,-25.94493
2.5639896,-2.003836,-1.3324242,-31.166485,32.859306,-20.927502
2.5393229,-1.9109272,-1.302736,-23.81757,38.31068,-16.613148
2.4537177,-1.8329878,-1.3357562,-16.888615,43.601986,-12.474128
2.3309476,-1.73802,-1.4239148,-10.63229,47.88939,-7.995595
2.200803,-1.5703906,-1.5201002,-5.599296,51.34838,-3.530984
2.0575655,-1.3748856,-1.628885,-1.6606647,54.06434,0.1456242
1.8936555,-1.1801447,-1.7655065,1.4884299,56.024822,2.873881
1.7288663,-0.99244744,-1.9171993,3.9581742,57.364086,4.9269423
1.5643889,-0.83453834,-2.0896397,5.8324256,57.95887,6.677741
1.3795314,-0.7105487,-2.3106182,7.495141,57.74519,8.39113
1.1744385,-0.5840426,-2.5559952,8.769604,56.39931,10.080827
0.96170706,-0.44546357,-2.807791,9.5861635,54.19049,11.723024
0.7436615,-0.29252827,-3.0659301,10.073126,51.174374,13.023868
0.52544385,-0.12873362,-3.333194,10.183348,46.901825,13.519371
0.32316503,0.012945199,-3.6013417,10.059389,41.697376,13.276055
0.15993595,0.08898539,-3.8533163,9.99908,36.00303,12.487855
0.026901856,0.09754358,-4.097012,10.272037,30.078823,11.718724
-0.09681242,0.08321744,-4.3504143,10.71632,23.660025,11.385554
-0.23621364,0.05815073,-4.619915,11.19065,15.928853,11.335046
-0.3983434,0.03565928,-4.879216,11.566856,7.2496147,11.032452
-0.52748406,-0.0048522335,-5.0779815,12.261128,-1.6828475,10.164317
-0.5920641,-0.05721263,-5.209902,13.31299,-10.399342,9.456743
-0.5816599,-0.053263392,-5.2600274,13.616042,-19.01815,9.509424
-0.53513914,-0.017877208,-5.2374206,13.184812,-26.81611,9.854242
-0.44154868,0.013390785,-5.1117597,12.8636465,-33.420555,9.929603
-0.22087103,0.058276795,-4.8669214,11.767963,-39.274292,10.562328
0.13385035,0.11093101,-4.4873366,9.431408,-44.005093,12.434575
0.5149571,0.1599879,-4.061697,6.340887,-46.969376,14.639898
0.8316282,0.17902291,-3.6751678,2.9231699,-47.662178,16.390762
0.9987792,0.12501547,-3.4089842,-0.12178343,-47.957024,17.892492
1.1043053,0.0719485,-3.1922588,-2.7413416,-48.862965,19.296637
1.2280797,0.049572904,-2.9566443,-5.2802463,-50.306366,20.544037
1.4005635,0.04765619,-2.6924727,-7.690736,-51.596123,21.532621
1.5911449,0.029236611,-2.4345574,-9.321276,-51.83453,21.713345
1.7534634,0.0057698847,-2.2094665,-10.1961775,-51.421284,21.044844
1.8999023,-0.00436383,-2.0114286,-10.535818,-50.713512,19.79756
2.0456986,-0.0022443589,-1.8217082,-10.780207,-49.881374,18.410894
2.186457,-0.0006422228,-1.6433742,-11.014473,-48.833813,17.1991
2.3089619,-0.003964951,-1.4821256,-11.213743,-47.209003,16.227825
2.3816159,-0.016175581,-1.3505514,-11.319058,-45.042324,15.302388
2.4027765,-0.025537498,-1.246126,-11.370499,-42.536366,14.405605
2.3692286,-0.021682886,-1.1709248,-11.482216,-40.031662,13.646764
2.2996225,-0.0053782435,-1.1129229,-11.9228325,-37.730984,13.040435
2.2185287,0.0026715267,-1.0666605,-12.654183,-35.652393,12.732073
2.1432416,-0.018751627,-1.0300635,-13.460084,-33.60494,12.576535
2.0753942,-0.058648642,-1.0029634,-14.286037,-31.456388,12.528228
2.0099056,-0.056798,-0.9713152,-13.835245,-30.46379,12.132903
1.9465367,-0.055007253,-0.94069123,-13.399043,-29.503319,11.750373
1.8852137,-0.05327433,-0.9110561,-12.976925,-28.573858,11.380195
1.8258666,-0.051597234,-0.8823757,-12.568407,-27.674343,11.021942
1.7684274,-0.049974058,-0.8546175,-12.173022,-26.80375,10.675207
1.7128314,-0.04840297,-0.8277499,-11.790326,-25.961088,10.339599
1.659016,-0.046882197,-0.80174285,-11.419886,-25.145418,10.014739
1.6069212,-0.045410052,-0.77656734,-11.061291,-24.355827,9.700267
1.5564895,-0.043984897,-0.7521955,-10.714142,-23.591442,9.395833
1.5076652,-0.04260517,-0.7286004,-10.3780575,-22.85142,9.101102
1.4603946,-0.04126935,-0.7057563,-10.0526705,-22.134949,8.815751
1.4146267,-0.03997599,-0.6836383,-9.737625,-21.441252,8.53947
1.3703115,-0.03872369,-0.6622223,-9.43258,-20.769575,8.271959
1.3274014,-0.037511088,-0.64148545,-9.137207,-20.119194,8.01293
1.2858503,-0.036336895,-0.6214053,-8.851189,-19.48941,7.7621045
1.2456137,-0.035199847,-0.6019604,-8.57422,-18.879553,7.5192146
1.2066488,-0.034098737,-0.58313006,-8.306004,-18.288969,7.284001
1.1689144,-0.0330324,-0.5648944,-8.046257,-17.717033,7.056215
1.1323704,-0.0319997,-0.54723394,-7.7947054,-17.163141,6.8356147
1.0969783,-0.030999554,-0.53013027,-7.551083,-16.62671,6.6219687
1.0627011,-0.030030912,-0.5135653,-7.3151345,-16.107176,6.4150524
1.0295027,-0.029092759,-0.49752173,-7.0866127,-15.603995,6.2146487
0.99734867,-0.028184114,-0.4819828,-6.865279,-15.116641,6.020549
0.9662053,-0.027304033,-0.46693233,-6.6509027,-14.644607,5.8325505
0.93604034,-0.0264516,-0.45235467,-6.4432616,-14.187401,5.650458
0.90682244,-0.025625931,-0.43823472,-6.2421393,-13.744551,5.4740825
0.8785215,-0.024826173,-0.4245579,-6.047329,-13.3155985,5.303242
0.8511082,-0.0240515,-0.41131002,-5.8586287,-12.9001,5.13776
0.8245543,-0.023301113,-0.3984775,-5.675844,-12.497627,4.9774666
0.7988326,-0.02257424,-0.3860471,-5.498788,-12.107767,4.822196
0.77391654,-0.021870138,-0.37400606,-5.3272777,-11.730119,4.6717887
0.7497807,-0.021188082,-0.3623421,-5.1611376,-11.364296,4.5260916
0.7264003,-0.020527374,-0.3510432,-5.0001984,-11.009924,4.3849545
0.7037515,-0.019887341,-0.3400978,-4.8442945,-10.666639,4.248234
0.68181115,-0.019267328,-0.32949483,-4.6932673,-10.334094,4.11579
0.6605569,-0.018666703,-0.31922343,-4.546963,-10.011947,3.9874873
0.6399671,-0.018084854,-0.3092731,-4.4052324,-9.69987,3.8631957
0.62002075,-0.017521191,-0.29963377,-4.2679315,-9.397548,3.7427888
0.6006977,-0.01697514,-0.29029563,-4.1349206,-9.1046715,3.626144
0.58197826,-0.016446147,-0.2812492,-4.006065,-8.820944,3.513143
0.5638434,-0.015933674,-0.2724853,-3.8812332,-8.546078,3.4036713
0.5462749,-0.015437204,-0.26399505,-3.7602997,-8.279795,3.297618
0.52925485,-0.014956233,-0.25576985,-3.6431415,-8.021824,3.1948755
0.51276606,-0.014490276,-0.24780141,-3.5296402,-7.771906,3.0953398
0.4967918,-0.014038859,-0.24008164,-3.4196813,-7.5297875,2.9989104
0.48131603,-0.0136015285,-0.23260276,-3.3131533,-7.2952237,2.9054902
0.46632308,-0.013177842,-0.2253572,-3.2099488,-7.0679784,2.8149843
0.4517978,-0.012767373,-0.21833767,-3.109964,-6.847821,2.7273018
0.4377256,-0.012369705,-0.21153706,-3.0130973,-6.634531,2.6423542
0.42409223,-0.01198444,-0.20494854,-2.9192517,-6.4278927,2.5600557
0.410884,-0.011611187,-0.19856548,-2.8283322,-6.227698,2.4803233
0.3980876,-0.011249573,-0.19238144,-2.7402477,-6.033745,2.4030771
0.3856901,-0.010899232,-0.18639018,-2.6549094,-5.845838,2.328239
0.3736791,-0.010559812,-0.18058568,-2.572231,-5.6637893,2.255734
0.36204246,-0.010230972,-0.17496212,-2.49213,-5.487415,2.1854887
0.3507685,-0.009912381,-0.16951382,-2.4145255,-5.316538,2.117433
0.33984593,-0.009603719,-0.16423532,-2.3393395,-5.1509857,2.0514982
0.3292637,-0.009304675,-0.15912132,-2.2664964,-4.990593,1.987618
0.3190112,-0.00901495,-0.15416667,-2.1959233,-4.835198,1.9257284
0.3090782,-0.008734252,-0.1493664,-2.127549,-4.6846447,1.8657671
0.29945463,-0.0084623005,-0.14471568,-2.061305,-4.538782,1.807674
0.2901309,-0.008198821,-0.14020985,-1.9971248,-4.397464,1.7513908
0.28109765,-0.007943549,-0.1358444,-1.934944,-4.260548,1.696861
0.27234575,-0.0076962295,-0.13161492,-1.8747002,-4.1278977,1.6440299
0.2638665,-0.007456614,-0.12751721,-1.8163329,-3.9993792,1.5928444
0.25565135,-0.007224462,-0.12354713,-1.7597839,-3.8748636,1.5432533
0.24769211,-0.006999541,-0.1197007,-1.704996,-3.7542264,1.4952067
0.23998074,-0.006781625,-0.115974076,-1.6519146,-3.6373465,1.4486567
0.23250954,-0.006570496,-0.11236351,-1.6004864,-3.524107,1.4035563
0.22527102,-0.006365943,-0.108865395,-1.5506598,-3.414394,1.3598607
0.21825792,-0.006167759,-0.105476215,-1.5023849,-3.3080976,1.3175257
0.21146323,-0.0059757475,-0.10219259,-1.4556135,-3.2051115,1.2765092
0.20488012,-0.0057897153,-0.099011205,-1.4102985,-3.1053326,1.2367699
0.19850202,-0.005609476,-0.09592889,-1.3663945,-3.0086608,1.198268
0.19232251,-0.0054348493,-0.092942566,-1.3238578,-2.914999,1.1609652
0.18633543,-0.00526566,-0.09004922,-1.2826455,-2.8242538,1.1248238
0.18053477,-0.005101739,-0.08724597,-1.2427164,-2.7363343,1.0898079
0.17491472,-0.004942922,-0.08453,-1.2040308,-2.6511521,1.0558821
0.16946967,-0.0047890497,-0.0818986,-1.1665494,-2.5686224,1.0230128
0.16419414,-0.0046399687,-0.07934913,-1.1302353,-2.4886622,0.9911668
0.15908287,-0.004495529,-0.07687904,-1.0950516,-2.4111915,0.9603123
0.15413074,-0.0043555866,-0.07448585,-1.0609635,-2.336133,0.9304185
0.14933279,-0.004220001,-0.07216717,-1.0279367,-2.2634113,0.9014554
0.14468421,-0.004088637,-0.06992068,-0.99593806,-2.1929536,0.873394
0.14018036,-0.0039613624,-0.067744136,-0.9649357,-2.1246896,0.8462063
0.13581672,-0.0038380504,-0.065635346,-0.9348985,-2.0585506,0.819865
0.13158895,-0.0037185773,-0.06359221,-0.90579647,-1.994471,0.79434377
0.12749279,-0.0036028237,-0.061612684,-0.8776004,-1.9323862,0.7696171
0.123524144,-0.0034906736,-0.059694786,-0.85028213,-1.8722341,0.7456602
0.119679056,-0.003382015,-0.05783659,-0.82381433,-1.8139547,0.72244906
0.11595366,-0.0032767393,-0.05603624,-0.7981705,-1.7574897,0.69996053
0.11234425,-0.0031747406,-0.05429194,-0.773325,-1.7027824,0.6781721
0.1088472,-0.0030759173,-0.052601945,-0.749253,-1.6497781,0.657062
0.10545901,-0.0029801703,-0.050964553,-0.7259303,-1.5984241,0.636609
0.1021763,-0.002887404,-0.049378138,-0.7033336,-1.5486685,0.61679274
0.09899578,-0.0027975256,-0.047841106,-0.6814404,-1.5004619,0.59759337
0.09591427,-0.002710445,-0.04635192,-0.6602287,-1.453756,0.57899165
0.092928685,-0.0026260754,-0.044909097,-0.63967735,-1.408504,0.560969
0.090036035,-0.0025443318,-0.043511182,-0.61976576,-1.3646606,0.5435074
0.08723344,-0.002465133,-0.042156786,-0.60047394,-1.322182,0.52658933
0.084518075,-0.0023883998,-0.040844552,-0.5817827,-1.2810259,0.51019794
0.081887245,-0.0023140549,-0.039573167,-0.5636733,-1.2411509,0.4943168
