ax,ay,az,gx,gy,gz
-2.1491106,0.81818926,-3.528214,38.78581,42.22584,20.752007
-1.996112,1.2831309,-3.6210232,36.416428,35.89129,18.628866
-1.7391589,1.6201506,-3.6617346,27.863058,31.846773,18.190697
-1.6776732,1.896012,-3.9472451,23.716492,25.738878,16.516777
-1.5863842,2.1978905,-4.083339,16.965704,21.17833,15.991587
-1.5249239,2.5785356,-4.2620125,12.370264,17.006935,14.648209
-1.4958184,3.047889,-4.4015975,7.2857103,13.01158,12.156732
-1.4190595,3.4971578,-4.4912477,2.397101,9.144524,8.826625
-1.2369238,3.924356,-4.4678354,-3.7255898,5.4334197,5.8443623
-0.9856169,4.366438,-4.3534517,-11.491224,2.4674156,2.3578053
-0.696406,4.8005004,-4.184395,-19.112726,0.15927996,-2.479246
-0.39483497,5.147568,-3.9879315,-25.96365,-1.1111587,-8.544149
-0.1268519,5.3962793,-3.8205495,-32.283436,-1.9273202,-14.929552
0.102860376,5.537921,-3.6734402,-38.927814,-2.4745033,-20.929344
0.286748,5.6024003,-3.5507534,-46.24243,-3.1970415,-26.388107
0.46157122,5.592205,-3.43838,-53.320084,-4.0447793,-31.621319
0.66652197,5.5031776,-3.2967596,-60.105125,-4.5094476,-36.54175
0.8826962,5.344106,-3.1353476,-66.46712,-3.7434182,-41.245216
1.046564,5.1323905,-3.0113218,-72.35549,-2.341927,-46.22686
1.1635721,4.8415546,-2.9194238,-78.02988,-1.0842294,-51.132046
1.2620374,4.40192,-2.8196154,-83.27924,0.1022491,-55.160385
1.3293945,3.8772192,-2.7311554,-87.7597,1.4240915,-58.38877
1.349369,3.2850626,-2.6802573,-90.76811,2.916332,-61.04216
1.3202046,2.6622126,-2.6587505,-92.58235,4.249693,-62.898117
1.2578862,2.039305,-2.6461585,-93.224754,5.103929,-63.414303
1.1581148,1.4381387,-2.6198916,-93.02083,5.519053,-62.85947
1.0303226,0.8885763,-2.5881073,-92.017586,5.333764,-61.386703
0.8954867,0.37971357,-2.5401406,-90.195045,4.8224287,-59.359684
0.75947,-0.06486578,-2.4659786,-87.26765,4.1941943,-57.187164
0.6288703,-0.42947367,-2.3645205,-83.48414,3.2443802,-54.881794
0.544762,-0.7085492,-2.2221973,-79.4579,2.1267002,-52.439526
0.52161956,-0.9275969,-2.0462904,-75.360596,1.0616753,-50.01773
0.56797874,-1.113589,-1.8326484,-71.150154,0.4939951,-47.71067
0.6762625,-1.2944709,-1.6073092,-66.8939,0.6669407,-45.460304
0.8114764,-1.486143,-1.4001116,-62.13434,1.8451632,-43.03115
0.94718736,-1.668259,-1.2320834,-57.09549,3.4322653,-40.23228
1.074982,-1.8167398,-1.0884688,-51.773373,5.1676965,-37.023083
1.2066798,-1.9219503,-0.9558572,-46.360023,7.0160275,-33.4794
1.3396136,-1.9909815,-0.82630336,-41.002018,9.039307,-29.749924
1.4620864,-2.0236719,-0.6989704,-36.213074,11.795365,-25.858965
1.5706278,-2.0243716,-0.60367817,-31.69772,15.184672,-22.290827
1.6397647,-1.9958767,-0.5686437,-26.51031,18.567755,-19.551434
1.6696078,-1.9473773,-0.5569216,-21.300594,21.914057,-17.623396
1.6839767,-1.9072263,-0.56108624,-16.131903,25.364809,-16.082592
1.6886677,-1.8687874,-0.5870189,-11.425015,28.988846,-14.12469
1.666891,-1.8098242,-0.6537381,-7.1381626,32.533066,-11.746209
1.6088735,-1.7265432,-0.75173795,-3.3336008,35.71623,-9.099277
1.5198749,-1.6157769,-0.8744989,0.025447173,38.389084,-6.400747
1.4036173,-1.4809071,-1.019417,3.1377034,40.586636,-4.1369224
1.2679443,-1.3455294,-1.1808224,6.089848,42.29598,-2.6536362
1.1160723,-1.2105688,-1.3642037,8.55235,43.566147,-1.3763623
0.94547534,-1.0830485,-1.5744278,10.535,44.27943,-0.10929238
0.74972683,-0.95910627,-1.8178849,12.169045,44.162224,1.1748556
0.5398483,-0.8280477,-2.0783024,13.362043,43.127747,2.416823
0.32952592,-0.68649167,-2.3507342,13.928359,40.89227,3.4084055
0.11589056,-0.5596181,-2.6404622,13.974285,37.605057,4.1016192
-0.091369346,-0.46269065,-2.9167984,13.912159,33.488396,4.3460865
-0.29097673,-0.40033406,-3.1787584,13.986286,28.658318,4.311672
-0.48454437,-0.36160976,-3.4416578,14.057757,22.99632,4.344287
-0.65986603,-0.3471927,-3.7095478,13.987538,15.903289,4.512907
-0.8044491,-0.36667582,-3.944377,14.090295,8.227683,4.7529216
-0.9152665,-0.40873834,-4.141374,14.61856,0.12672077,5.1466837
-0.9761453,-0.4355709,-4.279393,15.426303,-8.306056,5.958721
-0.9659516,-0.3979239,-4.340902,15.966056,-16.878544,7.0103645
-0.8785356,-0.31922802,-4.3219543,15.915797,-25.213661,7.8472056
-0.70021665,-0.22892994,-4.2156105,15.779083,-33.10159,8.336028
-0.39684325,-0.10442566,-3.99478,15.28317,-39.968628,8.393585
0.028853016,0.00774762,-3.6535735,14.749334,-44.783955,8.781135
0.4561448,0.12716867,-3.2698941,13.664259,-47.577785,10.093268
0.7908568,0.2261083,-2.9298878,11.716345,-48.682228,12.122445
0.98645306,0.2556203,-2.6795352,9.827503,-49.1416,13.767274
1.1037327,0.22816098,-2.4825125,8.360342,-49.286892,14.707397
1.1841747,0.15816958,-2.316771,7.0928617,-49.221924,15.180365
1.2587637,0.07637019,-2.1673987,5.9058537,-49.060368,15.384156
1.3407564,0.00514405,-2.017196,4.9240947,-48.536766,15.339579
1.402978,-0.03090403,-1.8731105,4.2603083,-47.767612,14.85802
1.4454664,-0.04990641,-1.7388787,3.801469,-46.954098,14.1529255
1.4765924,-0.05982639,-1.6112561,3.4288712,-46.12656,13.488109
1.5006499,-0.050996542,-1.4888473,3.1203647,-45.420254,12.931542
1.5271133,-0.029336685,-1.3621082,2.7198486,-44.613625,12.48726
1.5485007,-0.009856868,-1.2423282,2.2168987,-43.586937,12.124645
1.5568587,0.006256567,-1.1319792,1.5533905,-42.268604,11.756399
1.5551643,0.016441071,-1.034647,0.9073765,-40.643215,11.396154
1.5414836,0.024035234,-0.95427084,0.36461678,-38.94715,11.103115
1.5208576,0.03484225,-0.8875913,-0.0936481,-37.282413,10.969047
1.50692,0.042477638,-0.8220075,-0.58517855,-35.4505,10.984934
1.4943061,0.044910606,-0.7634759,-1.0686764,-33.378223,11.08458
1.4791143,0.04425468,-0.7126444,-1.6458939,-31.033125,11.290181
1.432739,0.042867143,-0.6903006,-1.5942895,-30.060131,10.936195
1.3878376,0.04152371,-0.6686669,-1.5443254,-29.118061,10.593461
1.3443618,0.04022292,-0.64772,-1.4959472,-28.205898,10.261606
1.3022642,0.038963377,-0.62743723,-1.449103,-27.322655,9.940273
1.2615,0.03774372,-0.6077968,-1.4037422,-26.467384,9.629117
1.2220254,0.03656265,-0.5887777,-1.3598167,-25.639174,9.327805
1.1837984,0.035418913,-0.5703598,-1.3172793,-24.837137,9.0360155
1.1467785,0.034311287,-0.55252343,-1.2760851,-24.060427,8.75344
1.1109265,0.033238605,-0.53524977,-1.2361907,-23.30822,8.479779
1.0762047,0.03219974,-0.51852065,-1.1975538,-22.579727,8.214745
1.0425766,0.031193595,-0.50231844,-1.1601338,-21.874178,7.9580593
1.0100069,0.03021912,-0.48662624,-1.1238917,-21.190838,7.7094526
0.97846174,0.029275296,-0.4714276,-1.0887896,-20.528992,7.468666
0.94790816,0.028361142,-0.45670673,-1.0547909,-19.88795,7.2354484
0.9183144,0.027475705,-0.44244832,-1.0218602,-19.267048,7.0095572
0.88964987,0.02661807,-0.4286376,-0.9899636,-18.66564,6.7907586
0.86188483,0.025787348,-0.41526026,-0.9590679,-18.083105,6.5788264
0.8349906,0.024982681,-0.40230253,-0.9291412,-17.51884,6.3735414
0.80893964,0.024203243,-0.38975102,-0.9001528,-16.97227,6.174692
0.783705,0.02344823,-0.37759286,-0.87207276,-16.442823,5.9820743
0.7592608,0.022716867,-0.36581552,-0.84487236,-15.929962,5.7954903
0.735582,0.022008404,-0.35440695,-0.8185236,-15.433161,5.614748
0.7126444,0.021322116,-0.3433555,-0.7929996,-14.951909,5.439664
0.69042444,0.020657303,-0.33264986,-0.76827425,-14.485716,5.2700577
0.6688996,0.020013286,-0.32227907,-0.74432236,-14.034105,5.1057568
0.64804786,0.019389408,-0.31223258,-0.7211194,-13.596617,4.9465938
0.6278479,0.018785032,-0.30250016,-0.69864184,-13.172805,4.7924066
0.60827935,0.018199544,-0.29307193,-0.67686677,-12.7622385,4.6430383
0.5893222,0.017632352,-0.2839383,-0.6557721,-12.364501,4.4983373
0.57095724,0.01708288,-0.27508998,-0.6353364,-11.979188,4.358156
0.55316585,0.016550565,-0.266518,-0.6155389,-11.605909,4.2223535
0.53593004,0.016034873,-0.25821367,-0.5963596,-11.244286,4.0907907
0.5192323,0.015535282,-0.25016862,-0.57777905,-10.893952,3.9633358
0.5030557,0.015051284,-0.24237467,-0.5597785,-10.554554,3.839859
0.487384,0.014582391,-0.23482397,-0.5423397,-10.225747,3.7202358
0.4722013,0.014128128,-0.22750887,-0.52544504,-9.907201,3.604345
0.45749226,0.013688038,-0.22042198,-0.5090775,-9.598592,3.49207
0.44324207,0.013261677,-0.21355617,-0.49322048,-9.29961,3.3832974
0.42943633,0.012848613,-0.2069045,-0.47785804,-9.0099535,3.2779171
0.41606116,0.012448431,-0.20046027,-0.46297473,-8.729331,3.1758235
0.40310305,0.012060728,-0.194217,-0.4485555,-8.4574585,3.0769134
0.39054894,0.011685113,-0.18816838,-0.43458587,-8.194062,2.9810872
0.37838623,0.011321208,-0.18230832,-0.42105174,-7.938878,2.8882484
0.3666027,0.010968648,-0.17663094,-0.4079395,-7.6916485,2.7983036
0.3551864,0.010627076,-0.17113054,-0.395236,-7.452125,2.7111626
0.34412596,0.010296151,-0.16580155,-0.38292837,-7.220067,2.6267374
0.3334102,0.009975539,-0.16063865,-0.37100434,-6.9952407,2.544943
0.3230284,0.009664917,-0.15563664,-0.35945192,-6.777421,2.465698
0.31297007,0.009363975,-0.15079048,-0.34825945,-6.5663886,2.3889222
0.30322513,0.00907241,-0.14609534,-0.33741572,-6.3619313,2.3145385
0.29378384,0.008789929,-0.14154647,-0.32690984,-6.1638446,2.2424722
0.28463668,0.008516248,-0.13713932,-0.31673127,-5.9719286,2.1726513
0.27577445,0.008251093,-0.13286947,-0.3068698,-5.7859917,2.1050055
0.2671883,0.007994198,-0.12873262,-0.29731554,-5.605847,2.0394669
0.25886965,0.007745306,-0.12472464,-0.28805885,-5.431314,1.9759698
0.25081006,0.0075041656,-0.1208415,-0.27909052,-5.262217,1.9144505
0.24300152,0.0072705364,-0.11707931,-0.2704015,-5.098387,1.8548474
0.23543619,0.007044184,-0.1134343,-0.26198313,-4.9396596,1.7971008
0.22810648,0.006824881,-0.10990281,-0.25382695,-4.7858753,1.7411525
0.22100504,0.0066124075,-0.10648129,-0.24592477,-4.636881,1.6869467
0.21412475,0.0064065517,-0.10316634,-0.23826869,-4.4925265,1.634429
0.20745872,0.006207106,-0.09995461,-0.23085102,-4.3526673,1.5835468
0.20100029,0.006013871,-0.09684291,-0.22366436,-4.2171636,1.5342491
0.19474296,0.005826654,-0.0938281,-0.21670148,-4.0858793,1.4864864
0.18868047,0.0056452663,-0.090907164,-0.20995541,-3.9586833,1.4402112
0.18280677,0.0054695266,-0.08807719,-0.20341942,-3.8354478,1.3953767
0.17711596,0.005299259,-0.08533533,-0.19708693,-3.7160494,1.3519384
0.17160234,0.0051342933,-0.08267884,-0.19095162,-3.6003687,1.3098525
0.16626039,0.004974464,-0.08010507,-0.18500733,-3.48829,1.2690771
0.16108477,0.0048196106,-0.077611424,-0.17924812,-3.379701,1.2295712
0.15607029,0.0046695787,-0.075195424,-0.17366824,-3.2744927,1.1912954
0.15121195,0.0045242184,-0.072854646,-0.16826206,-3.1725602,1.1542113
0.14650485,0.0043833833,-0.07058675,-0.16302422,-3.0738013,1.1182816
0.1419443,0.0042469334,-0.06838945,-0.15794945,-2.978117,1.0834707
0.13752575,0.004114731,-0.06626057,-0.15303266,-2.8854117,1.0497435
0.13324475,0.003986645,-0.064197965,-0.14826895,-2.7955928,1.0170664
0.12909703,0.0038625465,-0.062199574,-0.14365356,-2.7085698,0.9854066
0.12507844,0.0037423114,-0.0602634,-0.13918184,-2.6242561,0.95473236
0.12118495,0.0036258192,-0.058387496,-0.13484934,-2.5425675,0.9250131
0.11741268,0.0035129539,-0.056569997,-0.13065171,-2.4634218,0.8962191
0.113757834,0.0034036022,-0.054809075,-0.12658477,-2.38674,0.8683214
0.110216774,0.0032976544,-0.053102974,-0.122644424,-2.3124454,0.84129226
0.106785946,0.0031950052,-0.051449984,-0.11882675,-2.2404635,0.8151045
0.10346192,0.0030955514,-0.049848456,-0.11512792,-2.1707225,0.789732
0.10024138,0.0029991935,-0.04829678,-0.11154424,-2.1031528,0.76514935
0.09712108,0.0029058352,-0.04679341,-0.10807212,-2.037686,0.74133193
0.09409793,0.0028153833,-0.04533684,-0.104708076,-1.9742577,0.718256
0.09116888,0.002727747,-0.04392561,-0.10144876,-1.9128038,0.69589835
0.088331014,0.0026428388,-0.04255831,-0.098290905,-1.8532628,0.6742367
0.08558149,0.0025605736,-0.041233573,-0.09523135,-1.7955753,0.6532494
0.08291755,0.0024808694,-0.039950076,-0.09226704,-1.7396835,0.6329154
0.08033654,0.0024036462,-0.038706534,-0.089395,-1.6855316,0.6132143
