ax,ay,az,gx,gy,gz
-0.08727352,6.0682373,-3.2973027,-40.22764,8.433713,-28.353893
0.38074735,6.494086,-3.5887563,-46.593887,2.9030213,-35.695347
1.0045393,6.6530557,-3.6166272,-54.89024,-2.0785882,-38.558807
1.4883919,6.779118,-3.5312808,-63.775963,-4.6029005,-40.3107
1.8377469,6.9852815,-3.4019885,-73.98941,-5.7540145,-41.71421
2.1014142,7.1628056,-3.2404723,-84.602875,-5.731009,-43.992474
2.2644923,7.281725,-3.0784094,-94.26267,-3.980886,-47.40059
2.3316615,7.2926927,-2.9387436,-102.336105,-1.7011992,-51.077496
2.3696992,7.2297688,-2.8251104,-109.68061,0.6858362,-54.029163
2.3647382,7.104084,-2.7303596,-116.76249,2.6616323,-56.42168
2.3226955,6.886465,-2.6399422,-123.47444,4.553942,-58.787636
2.2421687,6.5689507,-2.5757632,-129.55312,6.959085,-62.935596
2.1514068,6.025827,-2.5630357,-134.8982,9.141288,-67.39729
2.095522,5.300034,-2.5994434,-139.52072,10.622382,-70.78239
2.0908191,4.39252,-2.6825495,-142.71843,11.623255,-72.24645
2.0796592,3.3953598,-2.820324,-144.20348,11.641903,-71.61891
2.0384164,2.4002848,-2.945877,-143.21921,10.808545,-69.18413
1.9699016,1.4973469,-2.9881065,-140.29228,10.097289,-66.42749
1.8996859,0.72332245,-2.9649255,-135.83777,9.982327,-63.760384
1.8121189,0.073003754,-2.9319043,-130.34027,10.10303,-61.456444
1.7340357,-0.49298593,-2.8838704,-124.22855,10.2784195,-59.295418
1.6494979,-0.97768074,-2.82835,-117.351006,10.213789,-56.772602
1.5567852,-1.356234,-2.7465966,-110.37019,9.7895975,-53.7396
1.5056188,-1.6597745,-2.6558626,-103.52716,9.175591,-50.326073
1.5116072,-1.8987854,-2.5560803,-96.64936,8.885437,-46.987083
1.5484992,-2.096687,-2.450485,-89.57498,9.120414,-44.15669
1.603545,-2.2802317,-2.338661,-82.25204,10.213023,-41.563816
1.6675436,-2.4357243,-2.2389235,-75.087746,11.546895,-38.64188
1.761012,-2.544128,-2.1530144,-67.840576,13.052499,-35.490124
1.8924776,-2.6098344,-2.0403285,-60.487564,14.727225,-32.763557
2.0604367,-2.6876185,-1.8826898,-52.608437,17.279535,-30.721615
2.2556045,-2.766937,-1.7066001,-44.457863,21.143553,-28.592451
2.4943435,-2.8076806,-1.5324061,-36.833332,25.781166,-25.462257
2.6858742,-2.7813318,-1.4092517,-29.595383,30.797127,-21.705166
2.7675884,-2.6948717,-1.3638048,-22.465736,35.67148,-18.373413
2.7797863,-2.5953112,-1.3428955,-15.635652,40.43336,-15.789639
2.7712846,-2.4998736,-1.3335572,-9.146067,45.933437,-13.823495
2.7134974,-2.3914263,-1.3732997,-3.010597,51.80564,-12.113955
2.598369,-2.2591908,-1.463677,2.6942022,57.201206,-10.213768
2.4211211,-2.1006348,-1.5884511,7.3806434,61.253742,-8.097279
2.2275975,-1.9393518,-1.72913,11.451294,64.12964,-5.9036765
2.0361323,-1.7638938,-1.8694887,15.086527,66.48828,-4.3322854
1.8240128,-1.5500759,-2.0189297,18.682505,68.9184,-4.299773
1.566256,-1.3311849,-2.2078054,22.130981,70.8469,-5.990857
1.263734,-1.1341932,-2.4437184,24.650524,70.92433,-8.107578
0.96624935,-0.96856844,-2.6865606,25.92548,69.09814,-9.649863
0.67523664,-0.81705827,-2.929292,26.050274,65.398575,-10.732496
0.3771803,-0.68991417,-3.1792102,26.354212,61.016117,-12.258904
0.102475725,-0.5910093,-3.421921,26.94356,56.546883,-14.22987
-0.16901393,-0.51645297,-3.6884472,27.73728,51.691185,-16.149956
-0.45606643,-0.46611655,-3.9998024,28.302471,45.596016,-17.34886
-0.714255,-0.4525537,-4.322774,28.43828,37.680706,-17.075907
-0.9303574,-0.4652633,-4.637477,28.850283,29.05495,-16.381075
-1.1161842,-0.4862433,-4.9221897,29.898514,20.331146,-16.335636
-1.2372596,-0.53244835,-5.1612988,31.67205,11.978236,-16.558762
-1.283123,-0.567613,-5.3349094,33.414555,3.328564,-15.524837
-1.2749311,-0.5303689,-5.419883,34.49541,-6.1497397,-13.480947
-1.1672745,-0.38376385,-5.3561106,35.137157,-15.59564,-12.375029
-0.9614149,-0.22130607,-5.176588,35.70008,-23.77195,-12.327657
-0.6445657,-0.06400202,-4.908853,35.82154,-30.59807,-11.842626
-0.1936932,0.09054874,-4.5419054,34.45178,-36.3449,-9.634006
0.29533774,0.21908441,-4.135546,32.742393,-39.741104,-6.9569316
0.6960724,0.3065024,-3.770527,30.843914,-41.443172,-5.0061107
1.0047407,0.32254365,-3.4730601,28.776825,-41.893837,-3.7780342
1.2390745,0.2812144,-3.2446208,26.690361,-41.67705,-2.674584
1.4270065,0.24360774,-3.0590103,24.630037,-41.55587,-1.2090099
1.6100645,0.232724,-2.8749583,22.616203,-41.454445,0.37307253
1.7727036,0.23813926,-2.689925,20.869564,-41.00304,1.7259923
1.8773072,0.2523788,-2.5184247,19.433077,-40.032692,2.1757314
1.918304,0.25775558,-2.3732622,18.398888,-38.707516,1.7326717
1.9140596,0.25031286,-2.2556376,17.418577,-37.449825,1.1139399
1.8906243,0.23748928,-2.1583545,16.645447,-36.363884,0.80682796
1.8681226,0.23175798,-2.073877,15.806773,-35.559967,0.9653187
1.8577477,0.22409053,-1.9906598,14.8815155,-34.83673,1.6586707
1.8528771,0.22244036,-1.907735,13.833905,-34.005768,2.6463692
1.847533,0.23448312,-1.8235996,12.893961,-32.74811,3.3622599
1.8282956,0.24825108,-1.7550439,12.050277,-31.062603,3.3910193
1.8046938,0.22591405,-1.7139847,11.166579,-29.358688,3.3610148
1.7978877,0.17363057,-1.6795275,10.315404,-27.740856,3.842382
1.8039762,0.11701732,-1.635781,9.412861,-26.086884,4.76615
1.7471445,0.113330856,-1.5842481,9.1163225,-25.265053,4.615999
1.6921437,0.10976316,-1.5343754,8.829337,-24.4697,4.470686
1.6389112,0.106310174,-1.4861062,8.5515785,-23.699919,4.3300447
1.587387,0.10296798,-1.4393858,8.282733,-22.954838,4.1939163
1.5375129,0.09973283,-1.3941617,8.022498,-22.23362,4.0621476
1.4892335,0.09660112,-1.3503838,7.770584,-21.535463,3.9345922
1.4424953,0.09356938,-1.3080032,7.526711,-20.859592,3.8111086
1.3972467,0.09063428,-1.2669734,7.2906113,-20.205263,3.6915607
1.3534383,0.08779258,-1.2272494,7.062026,-19.571758,3.5758178
1.3110223,0.08504121,-1.188788,6.840706,-18.958391,3.4637535
1.2699527,0.08237717,-1.1515477,6.626411,-18.364492,3.3552465
1.2301852,0.0797976,-1.1154879,6.418911,-17.789425,3.25018
1.1916772,0.07729974,-1.0805702,6.2179823,-17.232569,3.1484408
1.1543875,0.07488088,-1.0467572,6.0234103,-16.69333,3.0499206
1.1182764,0.07253849,-1.0140129,5.834988,-16.171137,2.954514
1.0833055,0.070270054,-0.9823026,5.6525154,-15.66543,2.86212
1.0494379,0.06807319,-0.9515927,5.4758,-15.175678,2.772641
1.0166378,0.06594557,-0.9218508,5.3046546,-14.701365,2.6859825
0.984871,0.06388497,-0.8930458,5.1389003,-14.241993,2.6020539
0.954104,0.06188923,-0.8651474,4.978363,-13.797079,2.5207667
0.92430484,0.059956267,-0.83812654,4.8228755,-13.366159,2.4420364
0.89544237,0.058084063,-0.8119551,4.672276,-12.948786,2.365781
0.8674866,0.056270678,-0.78660583,4.5264072,-12.544524,2.2919214
0.84040856,0.054514226,-0.7620525,4.3851185,-12.152955,2.2203805
0.8141803,0.052812893,-0.73826957,4.2482634,-11.773674,2.1510847
0.7887747,0.051164925,-0.71523273,4.115701,-11.406289,2.0839624
0.7641656,0.049568623,-0.69291806,3.9872947,-11.050423,2.0189447
0.74032766,0.048022345,-0.6713027,3.8629122,-10.705708,1.9559642
0.71723646,0.0465245,-0.65036434,3.7424257,-10.371791,1.8949566
0.69486827,0.045073558,-0.63008165,3.6257122,-10.048329,1.8358593
0.6732002,0.04366803,-0.6104339,3.5126517,-9.734993,1.7786118
0.6522101,0.042306483,-0.5914008,3.4031289,-9.43146,1.7231555
0.63187665,0.040987525,-0.5729632,3.2970319,-9.137423,1.669434
0.61217904,0.03970981,-0.55510205,3.1942527,-8.85258,1.6173923
0.59309715,0.03847204,-0.5377993,3.0946867,-8.576641,1.5669775
0.57461166,0.037272956,-0.52103734,2.9982324,-8.309327,1.5181384
0.5567038,0.036111336,-0.50479907,2.9047918,-8.050365,1.4708253
0.53935534,0.034986004,-0.48906812,2.8142705,-7.7994933,1.4249903
0.5225487,0.03389582,-0.47382846,2.726576,-7.556456,1.3805866
0.50626683,0.032839675,-0.45906466,2.64162,-7.3210077,1.3375696
0.49049327,0.0318165,-0.44476175,2.559316,-7.0929103,1.2958955
0.47521207,0.030825267,-0.4309053,2.479581,-6.8719325,1.2555221
0.46040776,0.029864965,-0.4174813,2.4023347,-6.6578507,1.2164088
0.44606543,0.02893463,-0.40447617,2.3274984,-6.450449,1.1785159
0.4321705,0.028033318,-0.39187676,2.254997,-6.2495184,1.1418053
0.41870904,0.027160123,-0.37967038,2.1847572,-6.0548553,1.1062398
0.40566745,0.026314162,-0.36784473,2.1167083,-5.8662634,1.0717835
0.39303258,0.025494583,-0.35638788,2.0507815,-5.6835537,1.0384018
0.38079166,0.024700562,-0.34528828,1.9869105,-5.506541,1.0060611
0.36893246,0.023931297,-0.33453473,1.9250308,-5.3350472,0.97472876
0.35744292,0.023186013,-0.32411647,1.8650804,-5.1689,0.94437313
0.34631157,0.022463962,-0.31402296,1.8069987,-5.007932,0.91496384
0.33552718,0.02176442,-0.30424407,1.7507275,-4.8519816,0.8864712
0.32507893,0.021086678,-0.29476994,1.6962101,-4.7008915,0.85886663
0.31495628,0.02043006,-0.2855911,1.6433918,-4.55451,0.8321224
0.30514908,0.019793903,-0.27669826,1.5922194,-4.4126906,0.8062115
0.29564747,0.01917757,-0.26808256,1.5426415,-4.27529,0.781108
0.28644192,0.018580439,-0.2597353,1.4946084,-4.1421704,0.7567867
0.2775232,0.018001912,-0.2516481,1.4480718,-4.013199,0.7332232
0.2688823,0.01744141,-0.24381286,1.4029851,-3.888245,0.7103938
0.2605106,0.01689837,-0.2362217,1.359303,-3.767184,0.6882755
0.2523997,0.016372245,-0.22886702,1.3169816,-3.649894,0.66684633
0.24454145,0.015862508,-0.22174144,1.2759784,-3.5362577,0.6460846
0.23692797,0.01536865,-0.21483782,1.2362525,-3.4261608,0.62596965
0.22955163,0.014890173,-0.20814921,1.1977639,-3.3194933,0.60648113
0.22240503,0.014426599,-0.20166893,1.1604741,-3.216148,0.58759964
0.215481,0.013977463,-0.19539046,1.1243457,-3.1160212,0.5693062
0.20877261,0.013542315,-0.18930754,1.0893424,-3.0190127,0.55158246
0.20227315,0.013120718,-0.18341406,1.0554291,-2.9250255,0.5344107
0.19597608,0.01271225,-0.17770411,1.022572,-2.833965,0.5177737
0.18987511,0.012316503,-0.17217197,0.99073815,-2.7457402,0.5016548
0.18396412,0.011933079,-0.16681209,0.95989555,-2.6602628,0.48603782
0.1782372,0.011561594,-0.16161911,0.93001336,-2.577447,0.47090712
0.17268859,0.011201677,-0.15658784,0.90106165,-2.49721,0.4562476
0.16731276,0.0108529655,-0.15171324,0.8730114,-2.4194713,0.4420445
0.16210432,0.010515113,-0.1469904,0.84583455,-2.3441532,0.42828366
0.15705805,0.01018778,-0.14241461,0.8195039,-2.2711802,0.41495126
0.15216888,0.009870638,-0.13798131,0.79399306,-2.2004793,0.402034
0.14743195,0.009563371,-0.13368602,0.76927656,-2.1319797,0.38951892
0.14284252,0.009265671,-0.12952448,0.7453295,-2.0656126,0.37739348
0.13839595,0.008977238,-0.1254925,0.7221281,-2.001312,0.36564556
0.13408783,0.008697786,-0.12158605,0.699649,-1.9390132,0.3542634
0.12991384,0.008427034,-0.11780122,0.67786974,-1.878654,0.34323558
0.12586978,0.008164711,-0.114134215,0.6567685,-1.820174,0.33255112
0.12195164,0.007910556,-0.11058138,0.6363243,-1.7635145,0.32219929
0.11815547,0.0076643126,-0.107139155,0.6165165,-1.708619,0.3121697
0.114477485,0.007425735,-0.10380409,0.5973253,-1.6554326,0.3024524
0.110914,0.0071945847,-0.10057285,0.5787316,-1.6039017,0.29303756
0.10746145,0.0069706305,-0.0974422,0.56071675,-1.5539752,0.28391585
0.10411638,0.006753648,-0.09440901,0.5432627,-1.5056031,0.2750781
0.100875445,0.0065434207,-0.09147025,0.52635205,-1.4587367,0.26651546
0.097735405,0.0063397377,-0.08862297,0.5099678,-1.4133292,0.2582194
0.09469312,0.0061423955,-0.08586433,0.49409363,-1.3693353,0.2501816
0.091745526,0.0059511964,-0.083191566,0.47871357,-1.3267109,0.24239397
0.088889696,0.005765949,-0.080602,0.46381232,-1.2854135,0.23484881
0.08612277,0.0055864686,-0.07809305,0.44937494,-1.2454016,0.22753851
0.08344198,0.0054125753,-0.0756622,0.435387,-1.2066352,0.2204558
0.08084463,0.0052440953,-0.07330702,0.42183444,-1.1690756,0.21359354
0.07832814,0.0050808596,-0.071025155,0.4087038,-1.1326852,0.20694491
0.07588999,0.0049227057,-0.06881433,0.3959819,-1.0974276,0.20050324
