ax,ay,az,gx,gy,gz
1.466377,2.8927536,-0.2218202,-31.627562,21.695652,22.972027
1.5086029,3.680471,-0.49920967,-43.86535,26.596758,6.006931
1.5995408,4.105605,-0.5434156,-36.09988,29.126255,-15.777016
1.751434,4.6736555,-0.5251981,-31.520784,30.49785,-36.523968
1.7740388,5.015658,-0.54331136,-34.345486,28.924152,-52.403313
1.8091162,5.039214,-0.46845838,-38.05536,28.076818,-62.245605
1.8834605,4.9482665,-0.35306934,-40.098164,29.095917,-70.09609
1.9222333,4.9734917,-0.2569264,-40.244167,30.340647,-80.20174
1.9019705,4.9673653,-0.17475179,-40.420094,30.326183,-92.19619
1.9026866,4.816254,-0.054569818,-41.39478,30.264837,-103.67067
1.9256616,4.4553485,0.071964614,-43.70495,30.618647,-112.66262
1.9835857,3.8917906,0.20964041,-46.486324,31.871946,-118.321365
2.029394,3.0903037,0.3267122,-47.696648,33.44169,-122.30144
2.0096202,2.1451867,0.4084883,-47.515823,34.80759,-124.51553
1.9487079,1.1140159,0.4763917,-46.34435,35.902332,-124.10532
1.8682482,0.0784897,0.5517604,-44.334152,36.93449,-120.15139
1.7595079,-0.89643824,0.617964,-40.125996,38.171886,-111.832855
1.6318405,-1.6780652,0.6504214,-34.17803,39.536648,-101.92361
1.5128973,-2.242621,0.65626323,-27.524063,40.831436,-91.16819
1.4148865,-2.6118915,0.65167403,-21.075277,41.978935,-79.72184
1.3465955,-2.8071163,0.64287907,-15.259376,43.061966,-68.03241
1.2980952,-2.8670483,0.61595213,-10.378425,44.08019,-56.602432
1.2699074,-2.8066607,0.56290406,-5.8678584,45.088337,-46.084103
1.252073,-2.6467617,0.48931152,-1.7383786,46.097626,-37.147545
1.236291,-2.4338336,0.3951466,1.7768458,47.09463,-29.736334
1.2169869,-2.2009213,0.27819532,4.669361,47.963333,-23.51066
1.192988,-1.963947,0.13121797,6.833574,48.42552,-18.436884
1.1598551,-1.7276155,-0.05751556,8.549797,48.480854,-14.214824
1.123903,-1.4955606,-0.27182236,9.787548,48.093674,-10.834961
1.0843618,-1.262612,-0.50492376,10.546526,47.19731,-8.22421
1.0454167,-1.0212619,-0.75291944,10.602663,45.753242,-6.179878
1.0042224,-0.7813077,-1.0147163,9.659666,43.591095,-4.892806
0.9533072,-0.59127724,-1.2935517,8.706387,40.845074,-4.2597666
0.90009934,-0.41938487,-1.5714089,7.8486195,37.54004,-4.370896
0.84226996,-0.26725256,-1.8456081,7.003387,33.545918,-4.9549036
0.7810416,-0.12174485,-2.1176946,5.8676214,28.924192,-5.9224806
0.7080807,0.0089973835,-2.3809118,4.5768723,23.095495,-7.6237497
0.6485449,0.10754614,-2.611684,3.4044955,16.411322,-9.914072
0.6313044,0.15327445,-2.790477,2.4870315,9.252743,-12.272297
0.66910225,0.17776346,-2.8973413,1.5413306,2.212311,-14.164709
0.72543454,0.209633,-2.9523616,0.033679157,-4.585637,-15.700382
0.7794049,0.21857806,-2.9652262,-1.561423,-11.383429,-17.644041
0.8891639,0.16944925,-2.882257,-3.1532474,-17.821926,-19.638453
1.0368707,0.09832822,-2.6995823,-5.440173,-23.173653,-20.861721
1.1714188,0.03090494,-2.439295,-8.076087,-27.45547,-21.265923
1.269399,-0.0426573,-2.1445012,-10.542111,-30.785744,-21.335009
1.3334469,-0.1274058,-1.8387417,-12.280711,-33.026424,-21.28748
1.3696158,-0.20000042,-1.5286638,-13.785401,-34.767883,-21.072346
1.4059734,-0.25744945,-1.2062105,-15.279813,-35.896515,-20.699343
1.4360138,-0.32998988,-0.8898403,-16.45451,-36.332882,-20.388664
1.4540575,-0.4232799,-0.60208446,-17.007046,-36.070858,-20.040676
1.4498938,-0.50012696,-0.36265185,-17.034397,-35.33549,-19.562668
1.4251093,-0.5571154,-0.17277715,-16.873127,-34.444572,-18.982529
1.4009569,-0.6067062,-0.008167493,-16.45807,-33.329323,-18.225254
1.3696196,-0.64335513,0.12398425,-15.910833,-32.049294,-17.407158
1.3372247,-0.67848986,0.22853318,-15.023201,-30.572668,-16.35332
1.3141662,-0.69803935,0.3113487,-13.577841,-28.640095,-15.044848
1.2899088,-0.70495313,0.36229908,-11.694652,-26.381287,-13.6976595
1.2601172,-0.7050527,0.3895357,-9.66556,-23.90029,-12.502424
1.2352929,-0.6842695,0.4074007,-8.517709,-21.070093,-11.162788
1.2044902,-0.6562935,0.4066081,-8.110195,-18.0978,-9.943735
1.1723036,-0.6232385,0.3737373,-8.996294,-15.006108,-9.259734
1.1409128,-0.5775652,0.32129338,-10.597231,-11.686574,-8.601486
1.0959353,-0.5410469,0.25231424,-11.6075535,-8.420702,-8.032882
1.022194,-0.48853695,0.15044034,-12.082428,-6.323463,-6.735586
0.94865793,-0.46578646,0.0733965,-12.964418,-5.358056,-5.2395725
0.8967832,-0.4456351,0.024286237,-13.33331,-4.509551,-3.776755
0.84346145,-0.4181987,-0.03452197,-13.543287,-3.5022397,-3.0486848
0.77998763,-0.39414367,-0.0850618,-12.911913,-3.2539527,-2.612146
0.7203277,-0.35686335,-0.1272143,-12.286103,-3.4479542,-2.3186545
0.6768241,-0.3328605,-0.15271112,-11.671433,-4.0863748,-2.1379428
0.6698983,-0.29916158,-0.14998588,-11.9912195,-3.985571,-1.827397
0.67294985,-0.30439588,-0.12956838,-11.943804,-3.6012316,-1.5464866
0.6705728,-0.31554717,-0.10937935,-11.125585,-3.1347222,-1.2903059
0.6562991,-0.29614228,-0.10182773,-10.334225,-2.9116793,-1.2165474
0.63901156,-0.26677132,-0.09616875,-10.463012,-2.7654583,-1.1046654
0.6213712,-0.26241598,-0.08298084,-10.305896,-2.70892,-1.0350012
0.60070425,-0.2554862,-0.07401191,-9.866675,-2.8836074,-1.1121898
0.58206475,-0.24243873,-0.06593352,-9.834595,-2.9832697,-1.2254021
0.5629565,-0.2405332,-0.053450394,-9.684249,-3.0162082,-1.4176807
0.53964525,-0.23701951,-0.041527856,-9.292621,-3.0711756,-1.6556689
0.51812387,-0.22895992,-0.031469006,-9.128808,-3.0244532,-1.8667866
0.507833,-0.22852077,-0.012704943,-8.931884,-2.814107,-2.0596027
0.49457136,-0.23322012,0.0015272539,-8.591601,-2.6354406,-2.194422
0.48264563,-0.23085678,0.018759698,-8.298663,-2.4394982,-2.2654784
0.47003356,-0.23293373,0.029286569,-8.103234,-2.1195066,-2.3419247
0.45302233,-0.23899294,0.038441733,-7.5501137,-1.8384461,-2.5135982
0.43671015,-0.23704833,0.044732895,-7.102673,-1.4667809,-2.6797998
0.4138626,-0.23651381,0.043769315,-6.893368,-1.2313551,-2.7354898
0.39474982,-0.23960032,0.04750594,-6.6907153,-1.0454695,-2.7645261
0.38297895,-0.24603474,0.054569855,-6.4753866,-0.8119479,-2.7486584
0.37621576,-0.2548016,0.060501695,-6.0757437,-0.4444157,-2.8709195
0.36832073,-0.26973915,0.064148396,-5.3697214,0.03186642,-3.1841671
0.35964286,-0.28495514,0.06439409,-4.262032,0.65157336,-3.7587106
0.34720394,-0.29249543,0.060283862,-2.983143,1.2001418,-4.4354043
0.3405366,-0.28710112,0.065591246,-1.9526905,1.8440307,-5.0372868
0.32989034,-0.2781254,0.06354065,-1.891643,1.7863804,-4.879805
0.31957966,-0.26943266,0.061554704,-1.8325201,1.7305474,-4.7272873
0.30959377,-0.26101372,0.059631307,-1.7752594,1.676473,-4.579574
0.2999222,-0.25285974,0.05776845,-1.7198011,1.6241007,-4.43651
0.29055482,-0.24496226,0.055964187,-1.666087,1.5733758,-4.297946
0.28148192,-0.23731303,0.054216642,-1.6140616,1.5242453,-4.163738
0.27269405,-0.22990412,0.052523993,-1.5636705,1.4766582,-4.033746
0.2641821,-0.2227278,0.050884493,-1.5148616,1.4305654,-3.907835
0.25593725,-0.21577671,0.049296442,-1.4675844,1.385919,-3.7858756
0.247951,-0.20904364,0.0477582,-1.42179,1.3426728,-3.6677415
0.24021514,-0.20252165,0.046268184,-1.3774314,1.3007826,-3.553311
0.23272169,-0.19620404,0.04482486,-1.3344628,1.260205,-3.4424665
0.22546297,-0.19008432,0.04342675,-1.2928401,1.2208985,-3.335094
0.21843153,-0.18415624,0.042072415,-1.2525208,1.1828228,-3.2310836
0.2116202,-0.1784137,0.040760472,-1.2134634,1.1459389,-3.130329
0.20502198,-0.17285085,0.039489582,-1.1756283,1.1102091,-3.0327268
0.19863015,-0.167462,0.03825844,-1.1389766,1.0755969,-2.9381776
0.19243822,-0.16224167,0.037065804,-1.1034709,1.042067,-2.8465853
0.18643984,-0.15718454,0.035910446,-1.0690753,1.0095855,-2.757856
0.18062894,-0.15228546,0.0347912,-1.0357547,0.97811896,-2.6719
0.1749996,-0.14753945,0.033706926,-1.0034752,0.9476357,-2.5886297
0.16954611,-0.1429417,0.032656524,-0.9722041,0.9181047,-2.5079606
0.16426295,-0.13848755,0.031638924,-0.9419096,0.88949597,-2.429811
0.15914476,-0.13417248,0.030653102,-0.91256106,0.8617806,-2.3541017
0.15418635,-0.12999211,0.029698057,-0.8841288,0.8349304,-2.2807558
0.14938271,-0.12594225,0.028772822,-0.85658395,0.80891836,-2.2096994
0.14472899,-0.12201876,0.027876459,-0.8298988,0.7837181,-2.1408606
0.14022048,-0.11821771,0.027008068,-0.8040462,0.75930417,-2.0741696
0.13585262,-0.114535235,0.026166769,-0.7790003,0.7356519,-2.0095594
0.13162102,-0.11096763,0.025351714,-0.7547356,0.71273744,-1.9469647
0.1275214,-0.107511304,0.02456208,-0.7312277,0.6905377,-1.8863224
0.12354962,-0.10416277,0.023797072,-0.70845294,0.6690303,-1.8275712
0.1197017,-0.10091864,0.023055919,-0.6863884,0.64819354,-1.7706519
0.115973756,-0.097775675,0.022337873,-0.66501176,0.6280064,-1.7155074
0.112362035,-0.09473068,0.021642214,-0.6443016,0.6084487,-1.6620821
0.1088629,-0.09178062,0.02096824,-0.624237,0.5895006,-1.6103221
0.105472825,-0.08892251,0.020315275,-0.6047978,0.57114315,-1.5601755
0.10218842,-0.08615347,0.01968266,-0.5859645,0.55335784,-1.5115919
0.09900637,-0.08347073,0.019069761,-0.5677181,0.5361268,-1.4645224
0.09592348,-0.0808716,0.018475961,-0.5500403,0.5194327,-1.4189197
0.09293666,-0.07835345,0.017900664,-0.5329134,0.5032588,-1.3747379
0.0900429,-0.075913765,0.017343292,-0.5163201,0.4875889,-1.3319328
0.087239295,-0.0735501,0.016803287,-0.50024384,0.4724072,-1.2904614
0.08452304,-0.07126006,0.016280105,-0.48466837,0.45769846,-1.2502819
0.081891395,-0.069041364,0.015773222,-0.46957815,0.44344795,-1.2113543
0.07934174,-0.06689179,0.015282127,-0.45495802,0.42964137,-1.1736392
0.0768715,-0.064809166,0.014806331,-0.44079328,0.41626483,-1.1370989
0.07447821,-0.06279142,0.014345355,-0.42706975,0.40330496,-1.1016967
0.072159454,-0.060836516,0.013898738,-0.4137737,0.39074877,-1.0673974
0.069912925,-0.058942504,0.01346603,-0.40089172,0.37858364,-1.0341662
0.067736365,-0.057107475,0.013046799,-0.38841096,0.3667974,-1.00197
0.06562758,-0.0553296,0.012640624,-0.3763189,0.35537818,-0.97077656
0.06358448,-0.053607088,0.012247099,-0.3646034,0.34431463,-0.9405545
0.061605,-0.051938217,0.011865828,-0.35325274,0.3335956,-0.91127366
0.05968716,-0.05032132,0.01149643,-0.34225556,0.32321036,-0.8829046
0.057829045,-0.04875477,0.011138536,-0.33160084,0.31314853,-0.855419
0.056028787,-0.047237,0.010791786,-0.3212779,0.3034,-0.8287892
0.054284588,-0.04576649,0.010455833,-0.31127635,0.29395503,-0.80298865
0.052594695,-0.044341773,0.01013034,-0.30158627,0.28480414,-0.7779914
0.050957423,-0.04296141,0.009814983,-0.29219788,0.27593818,-0.75377256
0.04937113,-0.041624032,0.009509445,-0.28310183,0.2673483,-0.73030776
0.047834225,-0.040328294,0.00921342,-0.27428898,0.25902584,-0.7075736
0.046345174,-0.039072897,0.008926611,-0.26575053,0.25096253,-0.68554723
0.04490248,-0.037856586,0.008648732,-0.2574779,0.24315025,-0.6642066
0.043504708,-0.036678143,0.008379505,-0.24946284,0.23558119,-0.6435305
0.042150453,-0.03553639,0.008118659,-0.24169733,0.22824779,-0.623498
0.040838357,-0.034430187,0.007865936,-0.23417357,0.22114271,-0.60408926
0.039567113,-0.033358417,0.0076210788,-0.22688405,0.21425882,-0.58528477
0.038335446,-0.03232002,0.0073838457,-0.21982147,0.20758925,-0.5670657
0.03714212,-0.031313945,0.0071539977,-0.21297877,0.20112732,-0.5494138
0.035985947,-0.030339194,0.006931306,-0.20634909,0.19486655,-0.53231144
0.034865767,-0.029394789,0.0067155464,-0.1999258,0.1888007,-0.5157415
0.03378046,-0.028479783,0.0065065036,-0.19370247,0.18292367,-0.49968743
0.03272894,-0.02759326,0.006303969,-0.1876729,0.17722961,-0.48413312
0.031710155,-0.02673434,0.0061077387,-0.18183102,0.17171282,-0.46906304
0.030723084,-0.025902154,0.0059176176,-0.17617099,0.16636775,-0.45446208
0.02976674,-0.025095876,0.005733415,-0.17068717,0.16118908,-0.44031566
0.028840167,-0.024314698,0.0055549466,-0.16537406,0.15617162,-0.4266096
0.02794244,-0.023557836,0.0053820335,-0.16022635,0.15131037,-0.41333023
0.027072657,-0.022824537,0.0052145035,-0.15523887,0.14660043,-0.40046424
0.02622995,-0.022114063,0.005052189,-0.15040666,0.14203711,-0.38799876
0.025413476,-0.021425707,0.0048949267,-0.14572486,0.13761584,-0.3759213
0.024622418,-0.020758778,0.0047425595,-0.14118882,0.13333221,-0.3642198
0.023855986,-0.020112611,0.004594936,-0.13679397,0.12918192,-0.3528826
