ax,ay,az,gx,gy,gz
0.7263703,0.83091664,0.4436404,19.975636,-31.128466,-6.8246074
0.22733292,1.0892015,0.07740864,4.6416726,-32.204105,-10.435938
-0.13698265,1.4362166,-0.2074326,-1.9669644,-36.59008,-14.302315
0.042946704,1.7735084,-0.095694415,-5.5347996,-36.866695,-15.8812475
0.46026334,2.0967958,0.072351575,-7.8508387,-33.01274,-18.576424
0.92259854,2.4197004,0.085698076,-7.925336,-27.71115,-23.613039
1.2553531,2.8980222,-0.025586093,-8.675891,-22.75421,-29.816675
1.4764802,3.4166415,-0.14564882,-12.318072,-18.65987,-36.370556
1.6031295,3.8926904,-0.23529124,-18.110775,-15.114217,-43.205727
1.6523198,4.283905,-0.30932146,-25.940569,-11.982796,-51.674965
1.6289712,4.4699044,-0.3670289,-33.244717,-9.191365,-60.763153
1.5549681,4.4426885,-0.4030384,-39.335598,-7.2636566,-69.87832
1.4594924,4.155958,-0.37032744,-44.12838,-6.0893264,-77.41402
1.3973701,3.6420865,-0.25303882,-47.43667,-4.775299,-82.84675
1.3374653,2.9167495,-0.10726295,-48.290123,-3.6221716,-86.84075
1.331547,1.9274012,0.13553008,-47.26857,-2.5428162,-88.7443
1.3722045,0.88209414,0.44087887,-45.31874,-0.9607903,-87.53744
1.4315213,-0.12038149,0.7720501,-42.532528,1.737464,-83.137955
1.4620423,-0.96609515,1.064898,-38.73984,5.2525177,-76.76348
1.4531142,-1.5782328,1.3012701,-33.98072,9.603819,-68.66764
1.4041018,-1.947755,1.4602034,-28.743843,14.036848,-60.235313
1.3399031,-2.109886,1.5441061,-23.403809,18.335066,-52.234833
1.2788196,-2.1524425,1.5809749,-18.309418,22.571362,-44.870323
1.2235086,-2.098612,1.574835,-13.746077,26.60881,-38.134796
1.1859571,-1.9925872,1.5299236,-10.037875,30.50451,-31.981123
1.1703142,-1.8712776,1.4261816,-6.924037,34.031746,-26.516613
1.1600789,-1.7478006,1.286139,-4.218535,37.143898,-21.69499
1.149251,-1.6153198,1.1141737,-2.0482082,39.80654,-17.359137
1.1345984,-1.4812481,0.9100002,-0.44342318,42.0796,-13.591557
1.1069294,-1.3498559,0.6670305,0.7215998,43.448895,-10.490958
1.0773207,-1.2271495,0.38317144,1.604251,44.1216,-7.773893
1.0548879,-1.1178526,0.07551425,2.2790287,44.07222,-5.3267736
1.0434865,-1.0139247,-0.24771325,2.771602,43.502876,-3.313343
1.0278238,-0.9059206,-0.5943245,2.9774656,42.27209,-1.8191195
1.00018,-0.80642796,-0.96169263,2.9234667,39.890907,-0.8027207
0.96791685,-0.7148528,-1.3336476,2.7296429,36.681564,-0.14301011
0.92949253,-0.64076436,-1.6920656,2.577913,32.57018,0.26637945
0.8917289,-0.56655335,-2.0374506,2.2306604,27.669197,0.40695685
0.84144515,-0.5084789,-2.3782196,1.8054115,21.770407,0.22274505
0.79458815,-0.48147586,-2.6879234,1.3756027,14.740957,-0.062129334
0.77588475,-0.47530368,-2.9253266,0.7600848,7.270646,-0.19467354
0.79870284,-0.4597965,-3.0725296,-0.13199526,-0.15604673,0.026854323
0.8320686,-0.41197565,-3.1410704,-1.6292101,-7.443054,0.22123
0.85707295,-0.36707723,-3.1423376,-3.4252434,-14.773235,-0.10732217
0.8964114,-0.34635398,-3.0481033,-5.3989024,-21.923286,-0.7743587
0.9645417,-0.3509634,-2.8400867,-7.470104,-28.49153,-0.98076063
1.0774246,-0.3451315,-2.5356185,-9.959392,-33.922977,-0.60140395
1.2134696,-0.32986444,-2.1658666,-12.57157,-38.112255,-0.42794594
1.3367049,-0.36167914,-1.7791045,-14.513158,-41.191174,-0.95439917
1.455245,-0.4342796,-1.3808583,-15.48828,-42.871746,-1.356595
1.57109,-0.47433817,-0.9731002,-16.793888,-43.430817,-1.1811593
1.6474736,-0.5062776,-0.5917679,-18.135323,-43.001537,-0.67856634
1.6827692,-0.53235936,-0.2615458,-19.179018,-41.909573,-0.39492056
1.6939532,-0.56334823,0.018377915,-19.625204,-40.156208,-0.21936272
1.6863353,-0.576389,0.25049084,-19.870806,-37.74418,-0.032146342
1.6614742,-0.58043534,0.41640562,-19.63198,-35.126865,0.17639428
1.6265037,-0.5863729,0.53944165,-18.629171,-32.287888,0.2528679
1.5848,-0.5911455,0.6185081,-17.17651,-29.28344,0.23858327
1.5435123,-0.6004516,0.6669404,-16.27439,-25.906052,0.1869137
1.5008578,-0.60209805,0.67531353,-15.362566,-22.247082,0.12714541
1.4771179,-0.5943641,0.6470113,-14.558253,-17.99151,0.14282964
1.4470816,-0.58038896,0.59225905,-14.373321,-13.702998,0.45854917
1.4009285,-0.57135963,0.5064782,-16.043095,-9.405778,0.82246655
1.3333799,-0.5590953,0.39786538,-18.286911,-5.280631,2.4569585
1.2375205,-0.5694202,0.28484145,-15.673911,-3.4120893,4.365249
1.1561394,-0.5495954,0.19950059,-13.410737,-2.0032039,4.8737845
1.0944104,-0.49118486,0.1084682,-12.853815,-0.7203795,5.26138
1.0303198,-0.45557323,0.020958437,-12.90731,0.015356558,5.452321
0.96487033,-0.4451434,-0.049397767,-12.847897,0.09087653,5.5881395
0.90648955,-0.4330856,-0.10305071,-12.519943,-0.3557591,5.647381
0.8626943,-0.41060397,-0.13893253,-12.543029,-0.96046776,5.716302
0.839684,-0.3979937,-0.1459297,-12.728365,-1.3723968,5.916859
0.82168937,-0.3903729,-0.14145459,-12.485052,-1.6137162,5.9983764
0.8004816,-0.36844572,-0.13151325,-12.104561,-1.9032234,6.0423536
0.78133225,-0.3397938,-0.12037766,-11.924131,-2.1619704,5.86833
0.7582843,-0.3108769,-0.09900541,-11.612456,-2.6285753,5.5783257
0.7438282,-0.27155435,-0.07137558,-11.561798,-3.056785,5.237971
0.7359063,-0.23471121,-0.04297071,-11.990827,-3.2590172,4.820004
0.7246127,-0.2152195,-0.018516714,-12.402084,-3.3911364,4.246118
0.71021646,-0.20692062,0.0045467913,-12.5075445,-3.5209026,3.6080754
0.6938593,-0.20040189,0.026708085,-12.657673,-3.5503616,3.1829007
0.6792568,-0.19393577,0.052373763,-12.583925,-3.3482778,2.7887385
0.65502566,-0.1696203,0.07419425,-12.1362095,-3.2141297,2.2824209
0.62946564,-0.11989712,0.09022159,-12.107719,-3.078533,1.6484578
0.60547835,-0.07418577,0.10136836,-12.831873,-2.7363636,0.87563133
0.57654303,-0.06042631,0.10433988,-13.360386,-2.4511058,0.058526784
0.5546827,-0.05611331,0.1069341,-13.7015505,-2.1979585,-0.74401253
0.5366872,-0.056454804,0.10357976,-14.188839,-1.8724513,-1.5611554
0.5213652,-0.07387304,0.09791797,-14.922796,-1.3678668,-2.2393875
0.5039917,-0.12195177,0.08870674,-14.921863,-0.92905563,-2.572796
0.48431897,-0.16026546,0.08069637,-14.119818,-0.69535905,-2.9969618
0.46630338,-0.17622735,0.06601955,-13.887911,-0.38499355,-3.2910964
0.44632283,-0.19813205,0.054656096,-14.028275,-0.095914215,-3.4249747
0.4284764,-0.22967005,0.05084926,-13.883416,0.21650037,-3.4820516
0.4049064,-0.2591477,0.038028497,-13.473927,0.39873165,-3.468599
0.37801528,-0.28081468,0.023360971,-13.071644,0.33854118,-3.3486829
0.35825646,-0.29432616,0.01859768,-12.579009,0.27643552,-3.203913
0.3416834,-0.29784778,0.018610254,-12.134346,0.317397,-3.1190274
0.33100682,-0.28854093,0.01802874,-11.755185,0.3074793,-3.0215673
0.3206663,-0.27952704,0.01746553,-11.387958,0.29787377,-2.9271748
0.31065103,-0.27079666,0.016920034,-11.032282,0.28857037,-2.8357515
0.30095062,-0.26234072,0.016391687,-10.687786,0.27955943,-2.747202
0.29155493,-0.25415042,0.015879938,-10.354113,0.27083158,-2.661434
0.28245422,-0.2462173,0.015384256,-10.030916,0.26237777,-2.5783591
0.27363914,-0.23853311,0.014904129,-9.717862,0.25418922,-2.4978914
0.2651005,-0.23108995,0.014439062,-9.414627,0.24625753,-2.4199474
0.25682962,-0.22388014,0.013988576,-9.120898,0.23857449,-2.344447
0.24881788,-0.21689627,0.013552206,-8.836374,0.23113222,-2.2713127
0.24105711,-0.21013114,0.013129505,-8.560763,0.22392309,-2.2004693
0.23353936,-0.20357786,0.01272004,-8.293781,0.21693969,-2.1318438
0.2262569,-0.1972297,0.012323392,-8.035157,0.21017486,-2.0653667
0.21920232,-0.19108017,0.011939154,-7.7846246,0.20362172,-2.0009696
0.21236841,-0.18512301,0.011566936,-7.541929,0.19727354,-1.9385868
0.2057482,-0.17935212,0.011206357,-7.306823,0.19112389,-1.8781548
0.19933495,-0.17376165,0.01085705,-7.0790663,0.18516648,-1.8196119
0.19312213,-0.1683459,0.010518662,-6.858428,0.17939527,-1.7628988
0.18710345,-0.16309936,0.0101908455,-6.644684,0.17380437,-1.7079577
0.18127277,-0.15801673,0.009873269,-6.4376163,0.16838814,-1.654733
0.1756242,-0.15309283,0.009565612,-6.237016,0.16314106,-1.6031704
0.17015201,-0.14832267,0.009267562,-6.04268,0.15805782,-1.553218
0.16485065,-0.14370145,0.008978816,-5.8544106,0.15313329,-1.504825
0.15971476,-0.13922445,0.008699083,-5.672018,0.14836244,-1.4579425
0.15473917,-0.1348872,0.00842808,-5.4953175,0.1437405,-1.4125232
0.14991882,-0.13068527,0.008165534,-5.32413,0.13926278,-1.3685211
0.14524886,-0.12661444,0.007911178,-5.158284,0.13492475,-1.3258917
0.14072457,-0.12267058,0.0076647564,-4.997611,0.13072206,-1.2845922
0.13634141,-0.11884974,0.007426021,-4.84195,0.12665044,-1.2445809
0.13209493,-0.11514806,0.007194731,-4.691143,0.122705795,-1.2058172
0.12798087,-0.111561805,0.006970653,-4.5450387,0.11888415,-1.1682624
0.12399508,-0.10808737,0.0067535616,-4.4034896,0.11518167,-1.1318784
0.12013355,-0.10472124,0.006543238,-4.2663536,0.11159462,-1.0966288
0.1163924,-0.101460055,0.0063394713,-4.1334925,0.108119376,-1.062478
0.11276785,-0.09830052,0.0061420556,-4.0047727,0.104752466,-1.0293916
0.10925628,-0.09523945,0.0059507927,-3.8800645,0.10149049,-0.99733657
0.105854146,-0.09227379,0.0057654907,-3.759243,0.09833017,-0.96628046
0.102558024,-0.08940054,0.0055859634,-3.6421866,0.09526834,-0.93619215
0.099364616,-0.08661682,0.00541203,-3.5287776,0.09230191,-0.9070414
0.09627071,-0.083919846,0.005243516,-3.4189024,0.08942792,-0.8787989
0.0932732,-0.08130689,0.0050802524,-3.3124504,0.086643465,-0.8514364
0.09036907,-0.07877534,0.004922075,-3.209315,0.08394576,-0.8249263
0.087555416,-0.07632266,0.0047688256,-3.1093924,0.081332095,-0.7992421
0.08482941,-0.07394638,0.00462035,-3.0125825,0.078799844,-0.774358
0.082188316,-0.07164412,0.0044764993,-2.9187884,0.07634648,-0.750249
0.07962949,-0.06941357,0.004337129,-2.8279157,0.07396953,-0.726891
0.07715037,-0.0672525,0.0042021,-2.7398734,0.07166662,-0.70426047
0.07474845,-0.06515874,0.0040712766,-2.6545734,0.06943543,-0.68233484
0.07242135,-0.063130185,0.003944528,-2.57193,0.06727373,-0.66109204
0.070166714,-0.061164808,0.0038217262,-2.4918602,0.065179355,-0.64051086
0.0679823,-0.059260637,0.0037027488,-2.414284,0.063150205,-0.62057054
0.065865904,-0.057415765,0.0035874767,-2.3391237,0.061184246,-0.6012513
0.06381542,-0.055628344,0.0034757943,-2.266304,0.059279505,-0.5825336
0.06182879,-0.05389658,0.0033675896,-2.195752,0.05743408,-0.56439877
0.059904017,-0.052218743,0.0032627543,-2.1273966,0.055646118,-0.5468287
0.058039177,-0.050593153,0.0031611833,-2.0611699,0.05391383,-0.52980566
0.056232408,-0.049018178,0.003062775,-1.9970052,0.05223548,-0.5133127
0.054481894,-0.04749224,0.0029674307,-1.9348384,0.05060939,-0.4973333
0.05278588,-0.046013817,0.0028750552,-1.8746073,0.049033932,-0.4818514
0.051142678,-0.044581424,0.002785556,-1.8162515,0.047507524,-0.46685156
0.049550638,-0.04319363,0.0026988431,-1.7597127,0.046028644,-0.45231873
0.048008163,-0.041849047,0.0026148302,-1.7049341,0.044595804,-0.43823838
0.04651371,-0.04054632,0.0025334328,-1.6518611,0.04320758,-0.4245964
0.045065787,-0.03928416,0.0024545698,-1.6004403,0.04186257,-0.41137916
0.043662943,-0.038061287,0.0023781618,-1.5506204,0.040559437,-0.39857343
0.04230377,-0.03687649,0.0023041328,-1.5023516,0.039296877,-0.38616633
0.040986914,-0.035728578,0.0022324084,-1.4555856,0.038073618,-0.37414554
0.039711054,-0.0346164,0.002162917,-1.4102755,0.036888447,-0.36249897
0.038474917,-0.03353885,0.002095589,-1.3663759,0.03574017,-0.35121498
0.03727726,-0.032494843,0.0020303568,-1.323843,0.03462764,-0.34028226
0.036116887,-0.031483337,0.0019671556,-1.2826343,0.033549745,-0.3296899
0.034992635,-0.030503323,0.0019059218,-1.2427083,0.032505408,-0.31942728
0.033903386,-0.029553816,0.0018465943,-1.2040253,0.031493578,-0.30948415
0.032848045,-0.028633866,0.0017891136,-1.1665465,0.03051325,-0.29985055
0.031825557,-0.027742557,0.0017334224,-1.1302344,0.029563436,-0.29051685
0.030834896,-0.026878992,0.0016794648,-1.0950527,0.028643193,-0.2814737
0.029875077,-0.02604231,0.0016271869,-1.0609663,0.027751597,-0.27271208
0.028945137,-0.025231674,0.0015765365,-1.0279409,0.026887754,-0.2642232
0.028044144,-0.024446273,0.0015274626,-0.99594355,0.026050802,-0.25599855
0.027171198,-0.023685321,0.0014799165,-0.9649422,0.025239905,-0.24802995
0.026325427,-0.022948056,0.0014338504,-0.934906,0.024454251,-0.2403094
0.025505984,-0.022233741,0.0013892183,-0.90580475,0.023693053,-0.23282918
