ax,ay,az,gx,gy,gz
-0.117273785,2.9363904,0.06545514,-26.190239,-59.148724,19.753817
1.2927225,4.284606,0.7203804,-32.294144,-47.949974,17.059483
2.1275496,5.1918597,0.92223614,-37.617607,-32.690735,3.4792488
2.0622964,5.3850474,0.58875036,-33.18987,-22.132736,-19.860037
1.8357284,5.6028657,0.31671208,-30.940586,-16.958982,-37.534077
1.6189816,5.888027,0.10758049,-36.668427,-15.031193,-48.089672
1.5033752,6.046165,-0.08190144,-46.157017,-13.9137535,-55.355824
1.4461501,5.9809237,-0.28750288,-52.130154,-12.464356,-65.864136
1.3766544,5.6517515,-0.463954,-52.980297,-11.083622,-77.844154
1.2579086,5.3255873,-0.61065227,-52.613228,-10.58256,-89.32577
1.1173512,4.9761233,-0.73623323,-53.33618,-11.975201,-98.426094
1.0561522,4.554048,-0.81297565,-55.54014,-14.466646,-104.6435
1.1176276,4.020938,-0.79726493,-57.967163,-16.717346,-108.80995
1.2395742,3.3009171,-0.7011516,-58.62359,-18.188677,-112.348526
1.3681278,2.5005846,-0.56533575,-58.069157,-18.585651,-114.429535
1.4776325,1.6463158,-0.42248455,-57.00994,-18.367184,-114.27108
1.5503932,0.7898515,-0.28365508,-55.410866,-17.882362,-111.68178
1.6127925,-0.017150505,-0.14105533,-53.20835,-17.104874,-107.31345
1.6500353,-0.7955022,-0.00026070993,-49.926453,-15.416545,-101.47749
1.6474113,-1.528227,0.10814658,-45.275356,-13.225174,-94.89714
1.6133751,-2.1452525,0.18514079,-39.736614,-10.854973,-87.30197
1.5522239,-2.6145208,0.25472394,-33.981335,-8.552781,-78.43534
1.4877081,-2.9048152,0.33712676,-28.26051,-6.2434893,-68.62315
1.4457573,-3.008104,0.43849954,-22.65881,-3.835959,-59.31987
1.4242095,-2.994358,0.55034727,-17.385937,-1.2248703,-50.745296
1.4046322,-2.8886116,0.6579073,-12.61189,1.5075829,-43.276848
1.3719591,-2.7337806,0.74850607,-8.070053,4.064287,-37.01624
1.3564281,-2.5322177,0.8305472,-4.459919,6.683925,-31.436836
1.3804394,-2.284505,0.8959808,-1.8392259,9.534413,-26.371712
1.4080224,-2.0445104,0.92379415,0.3686973,12.516799,-22.17274
1.436722,-1.8365864,0.91465,2.4110448,15.822919,-18.86573
1.4510967,-1.6493113,0.85794365,4.130849,19.17501,-16.004524
1.4491317,-1.4660842,0.7596551,4.7691846,22.379385,-13.19005
1.4239078,-1.2901014,0.601894,5.0093465,25.254227,-10.765503
1.3754839,-1.1180966,0.40811062,5.0068088,27.59664,-9.003454
1.3125235,-0.9577692,0.19066383,4.859441,29.342936,-7.802752
1.2351948,-0.8279716,-0.04658309,4.712598,30.444666,-6.9028163
1.1539792,-0.723183,-0.29590398,4.696132,30.798662,-6.122506
1.0736799,-0.6250276,-0.5622317,4.7436123,30.607845,-5.607577
0.97964454,-0.5342704,-0.8436698,4.8603077,29.711845,-5.4917884
0.8736473,-0.44787392,-1.1279323,4.814714,28.074812,-5.513954
0.7542452,-0.37104267,-1.405182,4.372721,25.62931,-5.624869
0.6265053,-0.32669795,-1.6720527,4.0935144,22.169888,-5.9001784
0.51210546,-0.3008201,-1.919226,3.9017663,18.158833,-6.195809
0.41059905,-0.2777258,-2.1493492,3.5366096,13.6544285,-6.318634
0.319325,-0.25528687,-2.3501916,3.099817,8.651679,-6.4935775
0.24272287,-0.24564701,-2.5191405,2.65153,3.1832576,-7.0573416
0.20370144,-0.27169117,-2.6418192,2.6631732,-2.7036326,-7.7719593
0.23494206,-0.291306,-2.6793292,2.4912293,-8.471426,-8.048023
0.30356678,-0.29895803,-2.6410398,1.6162814,-13.945331,-7.965533
0.37838852,-0.3464812,-2.5466356,0.78364635,-19.103065,-7.9336085
0.46076965,-0.42865783,-2.4027014,0.26368555,-23.945625,-8.005343
0.5673462,-0.5022653,-2.1996627,-0.32216546,-28.192223,-7.5380993
0.7028802,-0.52391046,-1.9124173,-1.2433037,-31.450895,-6.645824
0.8119735,-0.53842336,-1.6047801,-2.150395,-33.795773,-5.871637
0.89177173,-0.5576162,-1.2956634,-2.601115,-35.425884,-5.3737235
0.96205086,-0.54036504,-0.9853875,-3.0233657,-36.452637,-4.783576
1.032773,-0.4834594,-0.68304515,-3.9844506,-36.560177,-4.116728
1.0810987,-0.43202257,-0.41387954,-4.952956,-36.109528,-3.750936
1.1079029,-0.415312,-0.18079245,-5.6803083,-35.19379,-3.6744897
1.1275579,-0.42777506,0.015945993,-6.1758156,-33.98718,-3.604702
1.152583,-0.458722,0.18302186,-6.487875,-32.472813,-3.4048836
1.1689818,-0.49802992,0.31581658,-6.473465,-30.630392,-3.1350627
1.1720134,-0.53520614,0.41797113,-5.941974,-28.332067,-2.8686616
1.1874244,-0.56402767,0.5070627,-5.381595,-25.448896,-2.2559776
1.206291,-0.57173294,0.5734301,-5.104924,-21.999773,-1.6014988
1.1676317,-0.55341005,0.5550528,-4.9413214,-21.294724,-1.550174
1.1302782,-0.53570604,0.5372963,-4.783245,-20.61349,-1.5005827
1.0941803,-0.5185971,0.52013654,-4.6304817,-19.955153,-1.4526584
1.0592904,-0.50206065,0.503551,-4.48283,-19.318846,-1.4063376
1.0255629,-0.48607516,0.48751807,-4.340098,-18.703737,-1.3615601
0.99295443,-0.47062013,0.47201714,-4.2021017,-18.109041,-1.3182685
0.96142393,-0.45567593,0.4570286,-4.0686674,-17.534002,-1.276408
0.930932,-0.441224,0.44253376,-3.939628,-16.977905,-1.2359262
0.901441,-0.42724645,0.42851472,-3.8148243,-16.440062,-1.1967733
0.87291497,-0.4137263,0.41495442,-3.6941047,-15.919818,-1.1589015
0.8453196,-0.40064722,0.4018365,-3.5773234,-15.416546,-1.1222652
0.818622,-0.38799363,0.38914537,-3.4643412,-14.929647,-1.0868208
0.7927906,-0.37575057,0.37686598,-3.3550248,-14.458547,-1.0525266
0.76779526,-0.3639038,0.36498404,-3.2492466,-14.002692,-1.0193422
0.7436069,-0.35243952,0.35348573,-3.1468835,-13.561558,-0.9872292
0.7201979,-0.3413446,0.34235787,-3.0478187,-13.134635,-0.9561509
0.69754153,-0.3306064,0.3315878,-2.9519386,-12.721438,-0.92607176
0.67561215,-0.32021275,0.3211633,-2.8591352,-12.3215,-0.8969578
0.6543851,-0.310152,0.31107268,-2.769304,-11.934371,-0.8687763
0.63383675,-0.30041292,0.3013047,-2.6823452,-11.55962,-0.8414959
0.61394435,-0.29098472,0.2918485,-2.5981622,-11.196832,-0.8150863
0.59468603,-0.28185704,0.2826937,-2.5166624,-10.845607,-0.7895185
0.57604057,-0.27301985,0.27383032,-2.4377565,-10.50556,-0.76476437
0.55798775,-0.26446357,0.26524863,-2.3613584,-10.176321,-0.74079704
0.54050803,-0.2561789,0.25693932,-2.2873857,-9.857534,-0.7175906
0.5235825,-0.24815686,0.24889351,-2.215758,-9.548854,-0.69511986
0.50719297,-0.2403889,0.24110249,-2.1463993,-9.24995,-0.67336076
0.491322,-0.2328667,0.23355797,-2.0792346,-8.960503,-0.6522901
0.47595266,-0.22558224,0.22625189,-2.0141926,-8.680203,-0.6318854
0.4610686,-0.21852781,0.2191765,-1.9512045,-8.408754,-0.612125
0.4466541,-0.21169592,0.21232434,-1.8902036,-8.14587,-0.592988
0.43269402,-0.2050794,0.20568818,-1.8311256,-7.891272,-0.57445425
0.41917363,-0.1986713,0.19926105,-1.7739085,-7.644694,-0.5565043
0.40607885,-0.19246489,0.19303621,-1.7184923,-7.4058766,-0.53911936
0.3933959,-0.1864537,0.18700719,-1.6648192,-7.1745715,-0.5222812
0.38111168,-0.18063147,0.18116768,-1.6128334,-6.950537,-0.5059724
0.36921334,-0.17499214,0.17551161,-1.5624806,-6.7335415,-0.4901759
0.3576886,-0.16952989,0.17003313,-1.5137088,-6.5233583,-0.4748754
0.34652552,-0.16423903,0.16472657,-1.4664676,-6.3197713,-0.46005502
0.33571258,-0.15911414,0.15958646,-1.4207081,-6.1225696,-0.4456995
0.32523862,-0.1541499,0.1546075,-1.3763832,-5.9315505,-0.43179408
0.3150929,-0.14934124,0.14978456,-1.3334472,-5.7465177,-0.41832438
0.30526498,-0.14468321,0.1451127,-1.2918563,-5.5672803,-0.4052766
0.29574478,-0.14017102,0.14058712,-1.2515676,-5.393656,-0.3926374
0.28652257,-0.13580008,0.1362032,-1.21254,-5.225466,-0.3803938
0.27758893,-0.1315659,0.13195644,-1.1747336,-5.062538,-0.36853328
0.26893476,-0.12746416,0.12784255,-1.1381098,-4.904707,-0.3570438
0.26055118,-0.12349069,0.123857275,-1.1026313,-4.7518115,-0.3459136
0.25242972,-0.11964144,0.11999659,-1.0682619,-4.603696,-0.33513132
0.24456206,-0.11591249,0.11625657,-1.0349666,-4.460209,-0.32468605
0.23694023,-0.11230005,0.112633415,-1.0027117,-4.3212056,-0.31456715
0.2295565,-0.10880047,0.10912344,-0.9714643,-4.186545,-0.30476436
0.22240338,-0.10541018,0.10572308,-0.94119287,-4.0560894,-0.2952677
0.2154736,-0.10212575,0.102428906,-0.91186666,-3.9297075,-0.28606758
0.20876019,-0.09894386,0.09923757,-0.883456,-3.8072712,-0.27715468
0.2022563,-0.095861286,0.096145846,-0.8559321,-3.6886566,-0.26852
0.19595541,-0.092874914,0.093150616,-0.82926726,-3.5737436,-0.26015478
0.18985112,-0.08998173,0.09024884,-0.8034344,-3.4624164,-0.2520506
0.18393728,-0.087178804,0.08743759,-0.77840745,-3.3545625,-0.24419925
0.1782079,-0.08446332,0.08471405,-0.75416124,-3.250073,-0.2365928
0.17265724,-0.08183253,0.08207545,-0.7306713,-3.1488423,-0.22922361
0.16727968,-0.079283774,0.07951913,-0.7079139,-3.0507689,-0.22208424
0.1620698,-0.0768145,0.07704253,-0.68586606,-2.9557536,-0.21516748
0.15702234,-0.074422225,0.07464314,-0.6645057,-2.8637006,-0.20846638
0.15213227,-0.07210452,0.07231856,-0.6438113,-2.7745175,-0.2019742
0.14739463,-0.06985907,0.070066445,-0.62376195,-2.6881146,-0.1956844
0.14280465,-0.06768361,0.06788453,-0.6043376,-2.6044047,-0.18959065
0.13835773,-0.06557595,0.06577061,-0.5855186,-2.523304,-0.18368682
0.1340494,-0.06353398,0.06372258,-0.5672861,-2.4447308,-0.17796698
0.12987533,-0.06155564,0.061738364,-0.54962176,-2.3686059,-0.1724254
0.12583134,-0.059638947,0.059815984,-0.5325079,-2.2948532,-0.16705649
0.12191333,-0.057781972,0.057953496,-0.5159272,-2.2233987,-0.16185486
0.1181174,-0.055982858,0.05614904,-0.49986315,-2.1541703,-0.1568153
0.11443973,-0.05423979,0.0544008,-0.48429957,-2.0870986,-0.15193275
0.110876635,-0.052551027,0.052707024,-0.46922082,-2.0221164,-0.1472023
0.10742453,-0.05091487,0.051066007,-0.4546118,-1.9591587,-0.14261921
0.10407996,-0.04932968,0.049476113,-0.44045785,-1.8981619,-0.13817888
0.10083956,-0.04779386,0.047935735,-0.42674476,-1.8390651,-0.13387686
0.0977001,-0.046305884,0.04644334,-0.4134588,-1.781809,-0.12970884
0.09465841,-0.04486425,0.044997428,-0.40058663,-1.7263361,-0.12567063
0.09171146,-0.04346751,0.043596543,-0.38811538,-1.672591,-0.121758185
0.08885629,-0.042114276,0.04223929,-0.37603253,-1.6205196,-0.1179676
0.08609003,-0.040803183,0.040924303,-0.36432594,-1.5700699,-0.11429505
0.08340992,-0.03953292,0.03965027,-0.35298392,-1.5211912,-0.11073688
0.08081327,-0.03830221,0.03841591,-0.34199512,-1.4738348,-0.1072895
0.07829747,-0.037109826,0.037219986,-0.33134848,-1.4279529,-0.10394948
0.07586002,-0.035954572,0.0360613,-0.3210334,-1.3834997,-0.10071346
0.073498465,-0.03483529,0.0349387,-0.31103948,-1.3404309,-0.097578205
0.071210444,-0.033750862,0.03385105,-0.30135676,-1.298703,-0.09454058
0.068993665,-0.032700196,0.032797266,-0.29197553,-1.2582743,-0.091597535
0.0668459,-0.031682245,0.031776294,-0.2828864,-1.2191045,-0.088746116
0.06476502,-0.030695992,0.030787112,-0.27408025,-1.1811543,-0.085983485
0.062748924,-0.029740443,0.029828725,-0.2655483,-1.1443856,-0.08330687
0.060795594,-0.028814644,0.02890018,-0.25728196,-1.1087618,-0.08071359
0.05890308,-0.02791767,0.028000543,-0.249273,-1.074247,-0.07820105
0.057069488,-0.027048621,0.027128916,-0.2415134,-1.0408068,-0.07576673
0.055292983,-0.026206631,0.026284425,-0.23399536,-1.0084077,-0.0734082
0.053571783,-0.025390852,0.025466224,-0.22671139,-0.9770173,-0.0711231
0.05190417,-0.02460047,0.024673497,-0.21965419,-0.94660413,-0.06890914
0.050288472,-0.023834696,0.023905449,-0.2128167,-0.9171378,-0.0667641
0.048723076,-0.023092762,0.02316131,-0.20619206,-0.8885888,-0.064685844
0.047206413,-0.022373924,0.02244034,-0.19977365,-0.8609286,-0.06267229
0.04573696,-0.021677464,0.021741813,-0.19355507,-0.83412945,-0.060721416
0.04431326,-0.021002688,0.021065032,-0.18753007,-0.8081646,-0.058831275
0.042933878,-0.020348916,0.020409321,-0.18169264,-0.78300804,-0.056999974
0.041597433,-0.019715495,0.019774022,-0.17603692,-0.7586346,-0.055225685
0.040302597,-0.019101795,0.0191585,-0.17055728,-0.73502,-0.053506628
0.039048065,-0.0185072,0.018562136,-0.16524822,-0.71214044,-0.051841084
0.037832588,-0.017931113,0.01798434,-0.16010441,-0.6899732,-0.050227392
0.03665495,-0.017372958,0.01742453,-0.15512075,-0.6684959,-0.04866393
0.035513967,-0.01683218,0.016882146,-0.1502922,-0.64768726,-0.04714914
0.034408506,-0.016308237,0.016356647,-0.14561398,-0.62752634,-0.045681503
0.033337455,-0.0158006,0.015847506,-0.14108138,-0.607993,-0.044259552
0.032299746,-0.015308769,0.015354213,-0.13668987,-0.58906776,-0.042881865
