ax,ay,az,gx,gy,gz
-0.40454912,0.6481877,-0.09090992,-11.818289,29.796635,18.69926
-0.69064415,0.6723981,-0.16861697,-9.61878,28.104399,11.592631
-0.70400894,0.69779956,-0.11089405,-11.125773,21.467735,6.268269
-0.33483684,1.0085095,0.2793034,-11.405399,19.215569,3.6428862
0.023047408,1.3071331,0.5679049,-12.0331545,19.386326,1.1418344
0.24578896,1.6023451,0.6672146,-13.314351,19.6729,-1.9561092
0.4218018,1.9596848,0.7291276,-14.314962,20.811308,-5.675423
0.53957546,2.3333285,0.72534156,-15.714505,22.261198,-10.400273
0.5090435,2.6734905,0.523275,-17.989487,22.1121,-15.69491
0.42744076,2.9183373,0.26520884,-20.527948,20.705156,-21.613293
0.35007444,3.054954,-0.032731865,-23.116436,18.102108,-27.624577
0.34007424,3.0531487,-0.32300496,-26.00994,15.049175,-32.522247
0.3772655,2.8486323,-0.61857814,-28.313847,12.267226,-35.28268
0.3499941,2.305732,-1.0244545,-28.277672,9.69671,-36.899853
0.2420432,1.586217,-1.4881817,-25.307728,6.3791547,-37.95456
0.13399889,0.819075,-1.9197332,-20.597206,1.8651533,-37.6122
0.08529544,0.10860938,-2.2068846,-15.5698595,-3.4419494,-35.065556
0.1277422,-0.4861152,-2.272166,-10.985622,-8.653765,-29.457878
0.2537376,-0.88089365,-2.0860026,-7.008113,-12.593092,-22.950407
0.38183755,-1.1085634,-1.7814094,-3.120305,-14.89031,-16.933832
0.4767958,-1.1744658,-1.4072315,0.55668163,-15.969451,-11.225693
0.5263137,-1.0584056,-0.9954889,3.017377,-16.37602,-6.0092797
0.5662365,-0.78022206,-0.57166356,4.003363,-15.890628,-2.497034
0.59624875,-0.38722154,-0.17108685,4.233641,-14.571745,-0.39410147
0.61471635,0.04809708,0.16306257,3.7669826,-12.582759,0.46325237
0.6126065,0.5231163,0.4134705,2.6551335,-10.238756,-0.29611415
0.59600925,0.9600093,0.5592472,0.66402775,-7.98588,-2.159827
0.5889245,1.3222321,0.6017861,-2.1931896,-5.867328,-4.755812
0.57962596,1.5707009,0.5113611,-5.003144,-4.195315,-7.852287
0.5682888,1.7156427,0.35286903,-7.5611353,-3.0290728,-11.122046
0.5520836,1.761131,0.13631588,-9.613984,-2.4789555,-14.240753
0.51639587,1.6947212,-0.12935606,-10.730249,-2.5345385,-17.416304
0.46815515,1.5087563,-0.44150302,-10.63547,-3.4028454,-20.212296
0.4238586,1.1383657,-0.79856473,-9.646404,-5.123045,-21.784828
0.39031053,0.6650673,-1.1336515,-7.882767,-7.4437165,-21.896408
0.34712425,0.12705146,-1.42332,-5.2776413,-10.3081,-20.664755
0.33183932,-0.38922563,-1.6411648,-2.2662766,-13.667213,-18.251055
0.3686189,-0.8405155,-1.7599252,0.71982926,-17.155014,-14.263849
0.44165316,-1.0819509,-1.6853558,3.5305958,-20.321526,-9.994945
0.52507234,-1.1540238,-1.4757113,6.1488276,-22.899355,-5.7327704
0.60725653,-1.0601054,-1.1686617,8.20231,-24.649124,-1.7420111
0.6742186,-0.853341,-0.8206888,9.517296,-25.376333,1.7446908
0.72221667,-0.5577193,-0.4780801,9.606434,-24.921047,4.0331955
0.73303705,-0.24117708,-0.18797795,9.099689,-23.693317,5.4667554
0.70738006,0.052171934,0.025456943,8.127478,-22.067198,6.157717
0.6764742,0.2947898,0.16541368,6.820622,-20.155043,6.0222025
0.6495009,0.44597694,0.22083202,5.456012,-18.186941,5.3066454
0.6372394,0.51652837,0.21061704,4.494334,-16.474625,4.561537
0.63249207,0.52813655,0.15447664,3.679365,-15.269912,4.1271563
0.61104774,0.51023036,0.14923918,3.554618,-14.7521925,3.9872267
0.5904388,0.49302167,0.14420575,3.4347303,-14.254642,3.8527484
0.57062256,0.47647497,0.13936596,3.3194547,-13.77623,3.7234435
0.5515597,0.46055728,0.13471013,3.208561,-13.316006,3.5990536
0.5332133,0.44523793,0.13022931,3.1018357,-12.873079,3.4793394
0.51554924,0.43048823,0.12591511,2.999079,-12.446625,3.364077
0.4985354,0.41628152,0.12175974,2.9001052,-12.035869,3.253058
0.4821419,0.4025928,0.11775588,2.8047402,-11.640089,3.1460867
0.46634072,0.3893987,0.11389668,2.7128208,-11.258611,3.0429804
0.4511056,0.37667722,0.110175736,2.6241944,-10.890797,2.9435678
0.43641183,0.36440778,0.106587,2.538717,-10.536053,2.8476875
0.42223617,0.35257098,0.10312481,2.4562535,-10.193818,2.755188
0.40855676,0.34114856,0.09978382,2.376677,-9.863564,2.6659267
0.39535296,0.33012325,0.09655899,2.2998672,-9.544791,2.5797687
0.38260522,0.3194788,0.093445554,2.2257104,-9.23703,2.496587
0.3702952,0.3091998,0.09043901,2.1541,-8.939835,2.4162612
0.35840535,0.29927167,0.08753509,2.0849338,-8.652785,2.3386772
0.34691918,0.2896806,0.08472977,2.0181158,-8.375481,2.2637272
0.33582094,0.2804135,0.082019195,1.9535546,-8.107542,2.1913087
0.3250958,0.2714579,0.079399735,1.8911637,-7.8486104,2.1213245
0.31472948,0.26280195,0.07686793,1.8308604,-7.598343,2.0536823
0.30470857,0.2544344,0.07442047,1.7725662,-7.3564134,1.9882934
0.2950202,0.24634449,0.07205422,1.7162063,-7.1225114,1.9250745
0.28565204,0.23852202,0.0697662,1.6617095,-6.896342,1.8639452
0.2765925,0.2309572,0.067553535,1.6090077,-6.677622,1.8048295
0.2678303,0.22364071,0.065413505,1.558036,-6.466081,1.7476542
0.25935486,0.21656363,0.0633435,1.5087321,-6.2614627,1.6923499
0.25115588,0.20971742,0.061341032,1.4610368,-6.06352,1.6388499
0.24322367,0.20309395,0.059403706,1.414893,-5.8720164,1.5870903
0.23554881,0.19668536,0.05752924,1.3702464,-5.6867266,1.5370101
0.22812234,0.1904842,0.055715438,1.3270448,-5.5074334,1.4885507
0.22093567,0.18448327,0.053960204,1.2852381,-5.3339295,1.441656
0.21398054,0.17867567,0.052261516,1.2447784,-5.1660156,1.3962722
0.20724902,0.17305478,0.050617445,1.2056195,-5.0035,1.3523475
0.2007335,0.16761427,0.049026128,1.1677171,-4.8461995,1.3098322
0.19442666,0.162348,0.047485776,1.1310287,-4.693937,1.2686785
0.18832147,0.15725012,0.045994677,1.0955132,-4.5465426,1.2288408
0.18241118,0.15231496,0.044551175,1.0611315,-4.4038534,1.1902748
0.17668925,0.14753711,0.04315368,1.0278456,-4.2657123,1.1529379
0.17114945,0.14291131,0.041800667,0.9956192,-4.1319675,1.1167895
0.16578571,0.13843255,0.040490657,0.96441704,-4.0024743,1.0817899
0.16059224,0.13409597,0.03922223,0.9342053,-3.877091,1.0479013
0.15556344,0.12989686,0.03799402,0.9049515,-3.7556834,1.0150871
0.1506939,0.12583075,0.03680471,0.87662417,-3.6381207,0.98331225
0.14597842,0.12189329,0.035653025,0.84919304,-3.5242774,0.95254266
0.14141198,0.11808026,0.034537736,0.82262886,-3.4140322,0.9227455
0.13698971,0.11438764,0.03345767,0.7969035,-3.307268,0.8938893
0.13270697,0.11081152,0.032411676,0.7719897,-3.2038722,0.8659435
0.12855925,0.10734812,0.031398654,0.7478613,-3.1037357,0.8388786
0.124542154,0.10399382,0.030417541,0.7244929,-3.0067534,0.8126662
0.12065151,0.1007451,0.029467309,0.7018601,-2.9128237,0.78727883
0.11688325,0.09759856,0.028546968,0.6799391,-2.8218484,0.76269
0.11323343,0.09455093,0.027655555,0.65870726,-2.733733,0.73887414
0.10969828,0.09159905,0.026792148,0.63814235,-2.6483858,0.7158064
0.10627412,0.08873984,0.025955848,0.6182232,-2.5657182,0.693463
0.10295742,0.085970365,0.025145795,0.5989291,-2.4856448,0.67182076
0.099744745,0.08328775,0.024361147,0.5802402,-2.408083,0.6508573
0.09663279,0.080689244,0.0236011,0.5621371,-2.3329527,0.63055116
0.093618356,0.07817217,0.02286487,0.54460144,-2.260177,0.61088127
0.09069835,0.07573394,0.022151703,0.527615,-2.1896808,0.5918276
0.08786977,0.07337205,0.021460865,0.5111605,-2.121392,0.57337046
0.08512973,0.07108409,0.020791652,0.495221,-2.0552409,0.55549103
0.08247543,0.06886772,0.020143379,0.47978023,-1.9911593,0.5381711
0.079904154,0.06672069,0.019515382,0.46482247,-1.9290824,0.52139294
0.07741328,0.06464078,0.018907025,0.45033246,-1.8689467,0.5051394
0.07500028,0.06262591,0.018317686,0.43629542,-1.8106909,0.48939404
0.072662696,0.060674,0.017746765,0.4226971,-1.7542558,0.47414076
0.070398144,0.058783084,0.017193684,0.40952367,-1.6995841,0.45936406
0.06820434,0.056951236,0.01665788,0.39676175,-1.6466203,0.445049
0.06607905,0.0551766,0.01613881,0.3843984,-1.5953106,0.43118098
0.06402012,0.053457376,0.015635949,0.3724211,-1.5456029,0.417746
0.062025473,0.051791828,0.015148786,0.36081773,-1.4974473,0.40473047
0.060093086,0.050178263,0.014676829,0.34957653,-1.4507946,0.39212117
0.058221,0.04861506,0.014219601,0.33868617,-1.4055979,0.3799054
0.056407336,0.04710063,0.0137766395,0.3281356,-1.3618115,0.3680708
0.05465025,0.04563345,0.013347499,0.31791422,-1.3193913,0.35660544
0.05294798,0.044212036,0.012931745,0.30801165,-1.2782942,0.34549773
0.0512988,0.042834956,0.012528957,0.29841796,-1.238479,0.33473644
0.04970105,0.041500825,0.012138732,0.28912348,-1.1999054,0.32431078
0.048153125,0.04020829,0.0117606735,0.2801188,-1.1625347,0.3142102
0.046653464,0.03895606,0.011394404,0.27139488,-1.1263292,0.30442455
0.045200553,0.037742868,0.011039552,0.26294294,-1.0912523,0.294944
0.043792933,0.036567494,0.010695763,0.25475448,-1.057269,0.28575894
0.04242919,0.035428755,0.010362689,0.24682124,-1.0243448,0.2768602
0.041107953,0.03432551,0.010039996,0.23913527,-0.9924469,0.26823884
0.03982789,0.033256646,0.009727361,0.23168881,-0.9615431,0.25988612
0.03858772,0.03222109,0.009424468,0.22447443,-0.93160224,0.2517937
0.03738619,0.031217804,0.0091310125,0.21748483,-0.9025944,0.24395347
0.0362221,0.030245777,0.008846701,0.21071303,-0.8744904,0.23635751
0.035094276,0.029304037,0.008571248,0.2041522,-0.847262,0.22899821
0.034001593,0.028391633,0.008304375,0.19779578,-0.8208819,0.22186819
0.032942947,0.027507655,0.008045818,0.19163738,-0.7953236,0.21496029
0.03191728,0.026651215,0.007795314,0.18567082,-0.7705615,0.20826758
0.030923562,0.025821453,0.0075526135,0.17989011,-0.7465707,0.20178334
0.029960798,0.025017535,0.0073174722,0.17428946,-0.7233272,0.19550109
0.02902802,0.024238657,0.007089656,0.16886327,-0.7008077,0.1894145
0.028124295,0.023484038,0.0068689343,0.16360606,-0.6789895,0.18351749
0.027248716,0.022752922,0.006655087,0.1585126,-0.65785086,0.17780413
0.026400404,0.022044575,0.0064479,0.15357776,-0.6373706,0.1722687
0.025578512,0.021358287,0.006247165,0.14879662,-0.6175281,0.16690566
0.024782214,0.020693371,0.0060526817,0.14416435,-0.5983035,0.16170964
0.024010714,0.020049162,0.005864254,0.13967635,-0.5796776,0.15667543
0.023263238,0.019425012,0.0056816945,0.13532808,-0.5616317,0.15179797
0.022539038,0.018820299,0.0055048196,0.13111523,-0.54414773,0.1470724
0.021837387,0.018234415,0.0053334525,0.12703356,-0.52720815,0.14249396
0.021157585,0.017666774,0.005167421,0.12307898,-0.51079607,0.1380581
0.02049895,0.017116807,0.005006559,0.119247526,-0.49489498,0.13376036
0.019860823,0.016583964,0.004850706,0.11553538,-0.479489,0.12959643
0.019242562,0.016067712,0.004699705,0.111938804,-0.4645627,0.12556213
0.018643552,0.015567534,0.004553406,0.10845422,-0.45010114,0.12165346
0.018063193,0.015082927,0.004411662,0.105078116,-0.4360898,0.11786648
0.017500902,0.0146134095,0.004274331,0.101807125,-0.42251474,0.1141974
0.016956117,0.01415851,0.0041412753,0.098637976,-0.4093623,0.11064255
0.016428292,0.0137177715,0.0040123626,0.095567495,-0.39661932,0.10719838
0.0159169,0.013290755,0.003887463,0.092592604,-0.38427308,0.103861436
0.015421431,0.012877033,0.0037664515,0.089710325,-0.3723112,0.100628376
0.014941385,0.012476191,0.0036492078,0.08691778,-0.36072174,0.09749597
0.014476284,0.012087828,0.0035356139,0.08421218,-0.34949306,0.09446108
0.014025663,0.011711555,0.0034255565,0.081590794,-0.33861393,0.091520675
0.01358907,0.011346995,0.0033189252,0.079051025,-0.3280735,0.0886718
0.013166068,0.010993785,0.0032156133,0.076590315,-0.31786123,0.08591162
0.012756235,0.010651571,0.0031155178,0.07420622,-0.30796683,0.083237365
0.01235916,0.01032001,0.0030185382,0.07189633,-0.29838046,0.08064636
0.0119744465,0.0099987695,0.0029245776,0.069658354,-0.28909254,0.07813601
0.011601708,0.00968753,0.002833542,0.06749004,-0.28009373,0.07570381
0.011240574,0.00938598,0.0027453403,0.06538923,-0.27137503,0.07334732
0.010890681,0.009093816,0.0026598843,0.06335382,-0.26292777,0.0710642
0.01055168,0.008810747,0.0025770885,0.06138177,-0.25474346,0.068852134
0.010223232,0.008536491,0.0024968702,0.059471104,-0.24681392,0.06670894
0.009905009,0.008270771,0.0024191488,0.05761992,-0.23913123,0.06463245
0.0095966915,0.008013323,0.002343847,0.05582636,-0.2316877,0.06262061
