ax,ay,az,gx,gy,gz
-1.0572823,2.035473,0.99637264,-29.130264,-4.5500417,21.251102
-0.84512,2.0438242,1.365457,-42.383545,-0.22989556,23.601465
-0.6214504,1.9230169,1.5504833,-47.977047,4.992432,24.889776
-0.44116172,1.6806532,1.5493858,-45.346333,9.418203,25.027412
-0.27282622,1.5633235,1.5023504,-37.410744,11.919435,23.232422
-0.059869457,1.6815952,1.5062642,-26.694487,14.5124235,18.306877
0.14464007,1.978383,1.4989474,-18.424229,17.650507,11.65195
0.35856828,2.4994705,1.4783448,-14.314178,20.55596,3.9365866
0.53287596,2.990491,1.3987089,-13.295023,23.020775,-4.410829
0.64820606,3.2859676,1.2011098,-15.267133,24.598978,-11.397842
0.7037789,3.405736,0.87612844,-17.703005,25.190905,-17.55925
0.7322285,3.4355676,0.5182371,-19.516872,25.276463,-23.481827
0.6800219,3.3258545,0.058143064,-21.484968,24.546751,-28.469074
0.5776206,3.0689657,-0.44200402,-23.400234,22.59855,-32.513027
0.4704738,2.662896,-0.9388483,-24.21837,19.503695,-35.53474
0.36280206,2.0922568,-1.4218673,-24.215134,15.295786,-37.36725
0.3059727,1.3710979,-1.8589993,-22.396057,9.938032,-37.288773
0.32192895,0.56074435,-2.1711755,-19.226852,4.3588376,-35.348816
0.4210795,-0.19669154,-2.3343763,-15.766843,-0.67305166,-30.980751
0.5088827,-0.84639585,-2.3901975,-11.700254,-5.249198,-25.323143
0.5767024,-1.3213372,-2.3473601,-6.4503965,-9.220947,-19.620039
0.62352663,-1.5899773,-2.2252858,-0.45236456,-12.780857,-14.034482
0.6657496,-1.5937462,-1.9860922,4.654162,-15.873465,-8.352935
0.7126009,-1.3936325,-1.6544127,8.181557,-18.241226,-2.9272625
0.7466408,-1.0255784,-1.2536274,10.309978,-19.673178,1.4482906
0.7755474,-0.54586685,-0.8126336,11.132697,-20.179298,4.4263935
0.80461025,-0.03089755,-0.37548164,10.090018,-19.15528,5.947482
0.7871147,0.47054303,-0.030485911,8.383758,-17.611462,6.319585
0.741462,0.92174315,0.21151106,6.345812,-15.912054,5.626877
0.69662166,1.2994817,0.35810694,4.0069466,-14.197252,4.14007
0.66876507,1.6015836,0.4227512,1.3031347,-12.572907,2.1941042
0.66783875,1.852815,0.425813,-1.1613276,-10.82206,-0.92003983
0.6888161,2.0316348,0.36050674,-3.335237,-9.135866,-4.515455
0.6991866,2.1484435,0.2454263,-5.428501,-7.8330874,-8.236107
0.6991794,2.2084653,0.07682627,-7.6425138,-6.936302,-11.80121
0.67423326,2.1917064,-0.15030186,-9.575686,-6.806193,-15.274959
0.64820266,2.0624785,-0.4358114,-11.191886,-7.799968,-18.346968
0.6425894,1.711617,-0.76932174,-12.053266,-9.127966,-20.533052
0.6282296,1.2706645,-1.1019657,-12.52131,-10.92657,-21.571888
0.6024424,0.78098834,-1.4075834,-12.844576,-13.256518,-21.274101
0.5698775,0.21857013,-1.6762806,-12.90987,-16.195131,-19.513851
0.5496147,-0.3896798,-1.8928599,-11.183509,-19.697432,-17.042664
0.57651174,-0.883085,-1.9567305,-8.203036,-23.055658,-14.023142
0.65271306,-1.1472927,-1.8656013,-5.6942496,-25.856918,-9.918399
0.75597584,-1.2523553,-1.6577797,-3.7859201,-27.972624,-5.3243027
0.8630759,-1.240945,-1.3648804,-1.8515348,-29.110939,-0.740398
0.9521935,-1.0806893,-1.027422,-0.21815208,-29.410194,3.0961683
1.0014385,-0.73000455,-0.66854924,0.63295406,-29.240929,6.0504756
1.0281537,-0.359228,-0.34067893,0.592656,-28.662247,8.399596
1.0476435,-0.03895814,-0.06823306,0.18143973,-27.473173,10.136573
1.0581447,0.22654167,0.13660063,-0.20552827,-25.696379,11.346857
1.0626371,0.46803406,0.27062622,-0.5243474,-23.33449,11.88375
1.050322,0.66436684,0.33190745,-0.86976594,-20.874804,12.006697
1.0260628,0.8090806,0.34331962,-1.6955533,-18.42232,11.930136
0.99207175,0.78227764,0.33194625,-1.6393837,-17.81203,11.534919
0.959332,0.75646144,0.32099158,-1.5852817,-17.224209,11.15425
0.927786,0.73158646,0.3104363,-1.5331523,-16.65782,10.787461
0.89737976,0.70761025,0.30026242,-1.4829066,-16.111897,10.433926
0.8680628,0.684493,0.290453,-1.4344608,-15.585528,10.093054
0.8397876,0.6621971,0.28099212,-1.3877363,-15.077864,9.764295
0.81250936,0.64068747,0.27186486,-1.3426595,-14.5881,9.447128
0.78618604,0.61993074,0.2630571,-1.2991606,-14.115481,9.141065
0.76077795,0.5998957,0.25455558,-1.2571741,-13.659295,8.845642
0.7362475,0.58055276,0.24634771,-1.216638,-13.218866,8.560424
0.7125593,0.56187385,0.23842165,-1.1774935,-12.793558,8.284999
0.6896796,0.5438326,0.23076615,-1.1396853,-12.382769,8.018975
0.6675768,0.52640384,0.22337055,-1.1031606,-11.985926,7.761983
0.6462205,0.5095638,0.21622476,-1.0678697,-11.602487,7.513671
0.62558204,0.4932898,0.20931916,-1.033765,-11.231936,7.2737055
0.60563415,0.4775603,0.20264462,-1.0008013,-10.873785,7.04177
0.5863509,0.4623549,0.19619246,-0.9689361,-10.527566,6.8175616
0.56770754,0.44765404,0.1899544,-0.9381282,-10.192836,6.600793
0.5496804,0.43343914,0.18392254,-0.90833867,-9.86917,6.39119
0.5322471,0.41969246,0.17808938,-0.8795303,-9.556166,6.188491
0.51538604,0.406397,0.17244768,-0.8516677,-9.253436,5.9924455
0.4990767,0.39353663,0.1669906,-0.82471675,-8.960611,5.8028154
0.48329943,0.3810958,0.16171154,-0.7986451,-8.6773405,5.6193714
0.46803546,0.36905968,0.15660422,-0.7734216,-8.403286,5.4418955
0.45326674,0.3574141,0.15166262,-0.74901646,-8.138123,5.270178
0.438976,0.34614542,0.14688095,-0.7254012,-7.881541,5.104018
0.42514667,0.3352406,0.14225367,-0.70254844,-7.633244,4.9432235
0.4117629,0.32468712,0.13777548,-0.680432,-7.3929467,4.7876086
0.39880943,0.31447294,0.13344125,-0.65902656,-7.160375,4.6369977
0.3862716,0.3045865,0.12924612,-0.638308,-6.9352665,4.491219
0.37413535,0.2950167,0.12518534,-0.61825305,-6.7173676,4.3501096
0.36238715,0.2857529,0.12125439,-0.5988393,-6.506436,4.213512
0.35101396,0.27678478,0.11744893,-0.5800453,-6.302237,4.0812745
0.34000325,0.26810253,0.11376476,-0.56185025,-6.104547,3.953252
0.329343,0.2596966,0.11019785,-0.54423434,-5.9131484,3.8293042
0.31902155,0.25155786,0.10674431,-0.52717835,-5.7278337,3.7092957
0.30902776,0.24367745,0.103400394,-0.51066375,-5.5484014,3.593097
0.29935083,0.23604691,0.100162506,-0.49467275,-5.3746576,3.4805822
0.28998035,0.22865802,0.09702715,-0.4791882,-5.206417,3.3716311
0.28090635,0.2215029,0.093991004,-0.46419352,-5.043499,3.2661266
0.27211913,0.21457392,0.09105081,-0.4496728,-4.88573,3.1639569
0.2636094,0.20786373,0.08820345,-0.43561056,-4.7329426,3.0650132
0.2553681,0.20136525,0.08544593,-0.42199197,-4.5849757,2.9691908
0.24738663,0.19507162,0.08277533,-0.4088027,-4.4416733,2.8763895
0.23965655,0.18897621,0.080188856,-0.39602885,-4.302884,2.786511
0.23216978,0.18307269,0.07768379,-0.38365707,-4.168464,2.6994615
0.2249185,0.17735484,0.07525752,-0.37167445,-4.038272,2.6151502
0.21789517,0.17181672,0.072907515,-0.36006847,-3.912172,2.5334892
0.21109247,0.1664526,0.07063134,-0.34882712,-3.790034,2.4543934
0.20450336,0.1612569,0.06842663,-0.33793873,-3.6717305,2.3777812
0.19812103,0.15622424,0.06629111,-0.327392,-3.5571399,2.3035731
0.19193888,0.15134943,0.06422257,-0.3171761,-3.4461432,2.2316928
0.18595055,0.14662746,0.062218875,-0.30728048,-3.3386264,2.1620657
0.18014987,0.14205346,0.060277976,-0.29769495,-3.2344787,2.0946207
0.1745309,0.13762273,0.05839787,-0.28840968,-3.1335936,2.0292883
0.16908786,0.13333073,0.05657664,-0.27941516,-3.0358675,1.9660016
0.1638152,0.12917309,0.054812413,-0.27070215,-2.9412,1.9046959
0.15870753,0.12514554,0.053103387,-0.2622618,-2.849495,1.8453084
0.15375961,0.12124396,0.05144782,-0.25408545,-2.7606583,1.7877786
0.14896643,0.1174644,0.049844027,-0.24616478,-2.6745996,1.7320477
0.14432308,0.113802984,0.04829037,-0.23849173,-2.5912313,1.6780591
0.13982487,0.11025601,0.04678527,-0.2310585,-2.5104685,1.6257579
0.1354672,0.10681986,0.045327198,-0.2238575,-2.4322293,1.5750908
0.13124566,0.10349105,0.043914672,-0.21688147,-2.356434,1.5260065
0.12715596,0.1002662,0.042546265,-0.21012332,-2.2830062,1.4784552
0.123193964,0.097142056,0.041220583,-0.20357618,-2.211871,1.4323887
0.11935566,0.094115436,0.039936293,-0.19723344,-2.1429567,1.3877604
0.11563716,0.0911833,0.038692087,-0.19108868,-2.0761933,1.344525
0.112034716,0.08834266,0.03748671,-0.18513568,-2.0115137,1.302639
0.10854467,0.08559066,0.036318943,-0.17936844,-1.9488521,1.2620599
0.105163515,0.082924515,0.035187613,-0.17378113,-1.8881454,1.2227468
0.10188783,0.08034154,0.034091573,-0.1683681,-1.8293326,1.1846601
0.098714314,0.07783913,0.033029716,-0.16312392,-1.7723541,1.1477613
0.095639765,0.07541476,0.032000974,-0.15804328,-1.7171525,1.1120132
0.09266109,0.07306599,0.031004313,-0.15312105,-1.6636722,1.07738
0.08977529,0.07079045,0.030038727,-0.14835231,-1.6118594,1.0438263
0.086979456,0.06858585,0.029103244,-0.14373223,-1.561662,1.0113189
0.084270775,0.06644998,0.028196922,-0.13925618,-1.5130293,0.9798248
0.081646524,0.064380676,0.027318848,-0.13491964,-1.4659125,0.9493123
0.07910406,0.062375873,0.026468145,-0.13071828,-1.4202642,0.9197509
0.07664084,0.060433548,0.02564395,-0.12664783,-1.3760386,0.8911107
0.07425437,0.05855175,0.024845442,-0.12270423,-1.333191,0.8633631
0.07194227,0.05672859,0.024071814,-0.11888352,-1.2916787,0.83648
0.06970221,0.054962236,0.023322294,-0.115181856,-1.2514598,0.81043464
0.06753194,0.053250916,0.022596123,-0.11159552,-1.212494,0.7852007
0.065429285,0.051592913,0.021892577,-0.10812091,-1.1747421,0.7607529
0.06339213,0.049986556,0.021210948,-0.10475455,-1.1381663,0.73706675
0.061418444,0.048430245,0.020550553,-0.10149305,-1.1027299,0.7141185
0.059506234,0.046922408,0.019910729,-0.09833316,-1.0683974,0.691885
0.057653584,0.045461543,0.019290835,-0.09527168,-1.0351342,0.67034405
0.05585864,0.044046175,0.018690247,-0.09230556,-1.0029072,0.649474
0.054119598,0.04267489,0.018108366,-0.08943182,-0.97168374,0.62925404
0.05243472,0.041346315,0.017544609,-0.086647585,-0.9414328,0.6096638
0.050802317,0.040059116,0.016998406,-0.083950065,-0.912124,0.59068364
0.04922075,0.038812004,0.016469216,-0.08133654,-0.8837279,0.5722946
0.047688432,0.03760373,0.015956504,-0.07880442,-0.85621613,0.5544782
0.046203833,0.03643308,0.015459759,-0.07635114,-0.8295611,0.53721666
0.044765465,0.03529888,0.014978482,-0.07397426,-0.8037361,0.5204926
0.043371886,0.034200005,0.0145121915,-0.07167139,-0.77871525,0.5042893
0.0420217,0.033135343,0.014060421,-0.06944023,-0.7544735,0.48859057
0.040713556,0.032103833,0.013622717,-0.06727854,-0.7309866,0.47338063
0.03944614,0.031104442,0.013198642,-0.06518416,-0.708231,0.4586443
0.038218193,0.030136166,0.012787771,-0.06315499,-0.68618387,0.44436678
0.037028477,0.02919804,0.0123896925,-0.061189,-0.66482323,0.43053383
0.0358758,0.02828912,0.0120040085,-0.05928422,-0.64412767,0.41713157
0.034759015,0.027408501,0.011630333,-0.057438746,-0.6240765,0.40414655
0.033676997,0.0265553,0.011268291,-0.05565073,-0.60464954,0.39156583
0.032628667,0.02572866,0.010917521,-0.05391838,-0.5858274,0.3793768
0.031612974,0.024927758,0.010577671,-0.052239966,-0.5675913,0.36756724
0.030628903,0.024151789,0.010248402,-0.050613802,-0.5499229,0.35612535
0.029675469,0.023399979,0.009929384,-0.04903827,-0.5328046,0.3450397
0.028751718,0.022671573,0.009620298,-0.047511782,-0.5162192,0.33429912
0.027856724,0.021965845,0.009320834,-0.046032816,-0.50015014,0.32389295
0.026989592,0.021282086,0.009030692,-0.044599894,-0.48458135,0.31381074
0.026149455,0.020619614,0.008749584,-0.043211583,-0.46949723,0.30404237
0.025335474,0.019977765,0.008477226,-0.04186649,-0.45488268,0.2945781
0.024546832,0.019355897,0.008213347,-0.04056327,-0.4407231,0.2854085
0.02378274,0.018753387,0.007957682,-0.03930062,-0.4270043,0.27652434
0.023042435,0.018169636,0.0077099768,-0.038077276,-0.4137126,0.2679167
0.022325175,0.017604055,0.0074699824,-0.036892015,-0.40083462,0.25957707
0.021630242,0.017056081,0.007237459,-0.03574365,-0.38835755,0.25149703
0.020956945,0.016525166,0.007012174,-0.034631036,-0.3762689,0.24366851
0.020304605,0.016010776,0.006793902,-0.033553056,-0.36455655,0.2360837
0.019672573,0.0155124,0.006582424,-0.03250863,-0.3532088,0.228735
0.019060215,0.015029538,0.00637753,-0.03149672,-0.34221432,0.22161505
0.01846692,0.014561707,0.0061790138,-0.030516306,-0.33156204,0.21471673
