ax,ay,az,gx,gy,gz
0.060909647,1.0572823,0.13454668,4.660951,-24.636587,42.05947
0.25058654,1.4907328,0.52880085,-0.64257926,-16.38771,36.094833
0.13858159,1.5825982,0.5976996,-9.665831,-12.669781,27.684818
0.044922695,1.6999594,0.63645273,-16.24973,-9.792366,20.683119
0.1795019,1.9706738,0.7525777,-23.038948,-6.294617,15.385775
0.42301998,2.2796974,0.8949689,-28.741077,-2.4045093,11.122461
0.6174117,2.5327961,0.93522245,-29.186232,2.259462,6.224709
0.7082162,2.7948346,0.8886982,-27.15997,6.063681,0.25751132
0.76091933,3.087946,0.75539577,-26.885544,8.689409,-5.686357
0.81155723,3.3500643,0.5614958,-28.39959,10.689188,-12.269807
0.85012126,3.5080667,0.3194002,-30.339195,12.350777,-19.02734
0.83710164,3.5467436,0.007835874,-32.43692,13.127122,-25.559616
0.75845027,3.4419065,-0.35450315,-34.372387,11.996445,-31.182758
0.66915464,3.1504803,-0.7317072,-36.309914,10.069438,-35.43086
0.5816233,2.670639,-1.1008266,-37.15607,7.2519274,-38.276554
0.52511907,2.0607476,-1.4222196,-36.34853,4.320966,-39.42751
0.48200318,1.4295255,-1.6734803,-34.309055,1.5431511,-39.21028
0.41848794,0.7868816,-1.8715185,-31.727865,-1.3126084,-37.383312
0.34190717,0.09443174,-2.0121055,-28.229519,-4.8913116,-34.293842
0.30732486,-0.5186836,-2.048305,-24.002285,-8.683925,-30.075571
0.3173021,-0.9880747,-1.9690834,-19.416428,-12.2415,-25.117422
0.3621751,-1.3140199,-1.8055596,-14.826498,-15.270916,-19.686855
0.44204342,-1.5357658,-1.5859951,-10.365361,-16.9506,-13.298201
0.5056468,-1.5770599,-1.3405412,-6.138621,-18.105658,-6.979991
0.5551315,-1.408942,-1.0609556,-2.273224,-18.841248,-2.0943248
0.5935685,-1.0978925,-0.75848943,0.65409154,-19.042082,1.6247014
0.62479174,-0.6798204,-0.4558851,2.4934459,-18.709599,4.016736
0.64719784,-0.21028455,-0.17661041,2.8751862,-17.67148,4.973348
0.6504622,0.29766637,0.04532415,2.186242,-16.182396,4.8827267
0.6450405,0.78311336,0.2067838,0.4067332,-14.36342,3.8755345
0.6324073,1.1876495,0.29848537,-2.190965,-12.411144,2.3197196
0.62148607,1.5040215,0.32625628,-4.647367,-10.4135895,-0.26805454
0.6059786,1.7314581,0.29078773,-7.0726047,-8.675348,-3.6721704
0.58738065,1.882516,0.1731743,-9.295179,-7.340199,-7.248062
0.5781231,1.954341,0.025399722,-11.600816,-6.6450806,-10.578952
0.587121,1.9709542,-0.14275432,-13.917835,-6.4606576,-13.631885
0.6076161,1.9255313,-0.35090002,-15.95155,-6.8118887,-16.731394
0.61368465,1.7938516,-0.5967335,-17.474455,-8.042238,-19.42037
0.5860551,1.4899142,-0.87511444,-18.96688,-9.937354,-21.010061
0.5369818,1.0352588,-1.1552769,-20.083347,-12.136076,-21.145681
0.46920553,0.50592285,-1.4282575,-20.213638,-14.865545,-20.185627
0.42629638,-0.035224997,-1.6446224,-19.00469,-17.885689,-18.583605
0.42475677,-0.5262283,-1.7763853,-16.460176,-20.819998,-16.004137
0.46444458,-0.92505825,-1.7817328,-13.658005,-23.525732,-12.300984
0.5210605,-1.2139189,-1.6910548,-10.560877,-25.791388,-7.730318
0.5774575,-1.3631378,-1.5326976,-7.2203035,-27.45725,-2.9079933
0.62655795,-1.3810123,-1.3372442,-4.0259447,-28.835325,1.8734332
0.6889266,-1.2809651,-1.1087092,-1.2857893,-29.88109,6.1256986
0.78047246,-1.0540682,-0.8219513,1.1448945,-30.18163,9.689629
0.86416674,-0.7199707,-0.52881444,2.7719083,-29.824661,12.47344
0.9331334,-0.33787525,-0.2589012,3.1045299,-28.901083,14.7103195
0.96414,0.008478151,-0.054613985,2.5332906,-27.660706,16.392056
0.9722199,0.28811356,0.08564982,1.6962644,-26.03726,17.196299
0.96359754,0.49420545,0.16080189,1.3759027,-23.892174,17.091246
0.92945623,0.6427099,0.1819439,1.3565924,-21.657013,16.395657
0.901951,0.75116205,0.18019667,1.0842124,-19.27451,15.528258
0.8779478,0.81537783,0.1632553,0.20559618,-16.79223,14.756709
0.84714305,0.8367989,0.1287371,-1.2793616,-14.663658,13.873031
0.8194673,0.80946106,0.124531336,-1.2375655,-14.184604,13.419806
0.792775,0.78309464,0.120475,-1.1972545,-13.722571,12.982685
0.7670238,0.75765795,0.116561696,-1.1583649,-13.276831,12.560978
0.74217415,0.7331117,0.112785384,-1.1208367,-12.846694,12.154033
0.7181884,0.70941883,0.10914037,-1.0846133,-12.431512,11.761237
0.6950312,0.6865444,0.105621256,-1.0496411,-12.030672,11.382009
0.67266905,0.66445535,0.102222964,-1.0158697,-11.643594,11.0158
0.6510703,0.6431203,0.09894068,-0.9832511,-11.269729,10.662093
0.6302048,0.6225096,0.09576983,-0.95173985,-10.908556,10.3203945
0.61004406,0.60259503,0.09270608,-0.92129296,-10.559583,9.990237
0.590561,0.5833498,0.089745305,-0.8918695,-10.22234,9.671178
0.57172984,0.56474864,0.08688361,-0.86343056,-9.896381,9.362794
0.5535261,0.5467672,0.084117256,-0.8359391,-9.581283,9.064685
0.5359264,0.52938235,0.0814427,-0.8093599,-9.27664,8.776467
0.51890844,0.5125722,0.07885655,-0.78365934,-8.982068,8.497778
0.50245106,0.4963158,0.076355584,-0.7588053,-8.697198,8.228267
0.4865339,0.48059303,0.07393671,-0.7347671,-8.4216795,7.9676037
0.4711376,0.46538472,0.071596995,-0.7115154,-8.155176,7.71547
0.45624357,0.45067257,0.069333605,-0.68902236,-7.8973675,7.4715614
0.4418341,0.436439,0.06714385,-0.66726106,-7.647946,7.235588
0.42789215,0.4226673,0.06502514,-0.64620584,-7.4066167,7.0072713
0.4144014,0.4093413,0.06297501,-0.625832,-7.1730986,6.7863436
0.4013463,0.3964456,0.06099107,-0.60611606,-6.94712,6.5725493
0.38871175,0.38396534,0.05907105,-0.58703536,-6.7284226,6.365643
0.37648344,0.37188634,0.05721276,-0.56856805,-6.516756,6.165389
0.3646475,0.36019492,0.0554141,-0.55069333,-6.3118815,5.971561
0.35319066,0.348878,0.053673044,-0.5333911,-6.113569,5.783941
0.34210014,0.33792287,0.05198766,-0.5166421,-5.9215965,5.6023192
0.33136362,0.32731748,0.05035607,-0.5004278,-5.7357526,5.4264956
0.32096934,0.3170501,0.04877649,-0.4847302,-5.555832,5.2562757
0.31090584,0.30710948,0.047247183,-0.46953228,-5.3816376,5.0914736
0.3011622,0.29748484,0.04576648,-0.45481738,-5.2129803,4.9319096
0.2917279,0.28816572,0.04433278,-0.44056958,-5.0496764,4.7774105
0.28259268,0.27914205,0.04294454,-0.42677355,-4.89155,4.62781
0.27374682,0.2704042,0.041600265,-0.41341442,-4.738432,4.482948
0.26518077,0.26194274,0.040298518,-0.40047795,-4.590158,4.342668
0.2568855,0.25374874,0.039037913,-0.38795033,-4.44657,4.2068224
0.24885213,0.24581349,0.037817113,-0.37581828,-4.307516,4.075266
0.24107221,0.23812856,0.03663483,-0.364069,-4.1728497,3.9478602
0.23353754,0.23068589,0.035489812,-0.3526901,-4.042428,3.8244705
0.2262402,0.22347766,0.034380864,-0.3416696,-3.9161143,3.7049673
0.21917255,0.21649632,0.033306822,-0.33099598,-3.7937765,3.5892258
0.21232721,0.20973456,0.03226656,-0.3206581,-3.6752868,3.4771247
0.20569704,0.20318536,0.031259,-0.3106452,-3.5605216,3.3685474
0.19927518,0.1968419,0.030283092,-0.30094683,-3.449362,3.2633812
0.19305494,0.19069761,0.029337827,-0.29155296,-3.3416924,3.1615171
0.1870299,0.18474615,0.028422223,-0.28245392,-3.2374017,3.0628495
0.18119383,0.17898135,0.02753534,-0.27364025,-3.1363823,2.9672766
0.17554075,0.17339727,0.02667626,-0.2651029,-3.0385299,2.8747
0.17006479,0.1679882,0.0258441,-0.25683308,-2.9437437,2.7850246
0.16476038,0.16274855,0.02503801,-0.24882232,-2.8519266,2.698158
0.15962206,0.15767297,0.024257159,-0.24106239,-2.7629848,2.6140115
0.15464456,0.15275626,0.023500748,-0.23354535,-2.6768267,2.532499
0.14982283,0.14799339,0.022768006,-0.22626352,-2.5933645,2.453537
0.14515191,0.14337951,0.022058185,-0.21920946,-2.512513,2.3770447
0.14062706,0.1389099,0.02137056,-0.212376,-2.4341898,2.3029447
0.13624366,0.13458003,0.020704431,-0.20575616,-2.3583152,2.2311609
0.13199726,0.13038547,0.020059122,-0.1993432,-2.284812,2.1616206
0.12788354,0.12632199,0.019433975,-0.19313064,-2.2136054,2.0942533
0.12389832,0.12238544,0.018828357,-0.18711214,-2.144623,2.0289905
0.12003757,0.11857183,0.018241653,-0.18128161,-2.0777953,1.965766
0.11629737,0.114877306,0.01767327,-0.17563313,-2.0130541,1.9045155
0.112673946,0.11129812,0.017122632,-0.17016101,-1.9503343,1.8451773
0.10916361,0.10783066,0.01658918,-0.16485968,-1.8895721,1.7876912
0.10576283,0.1044714,0.016072376,-0.1597238,-1.8307062,1.7319992
0.10246817,0.10121697,0.015571699,-0.15474817,-1.7736771,1.6780449
0.0992763,0.09806407,0.015086642,-0.14992778,-1.7184272,1.625774
0.09618399,0.09500952,0.014616716,-0.14525776,-1.6649008,1.5751336
0.09318813,0.09205025,0.014161446,-0.14073339,-1.6130439,1.5260726
0.0902857,0.089183256,0.0137203755,-0.13635013,-1.5628041,1.4785417
0.08747378,0.086405665,0.013293058,-0.13210353,-1.5141311,1.432493
0.08474953,0.08371468,0.012879064,-0.12798935,-1.4669755,1.38788
0.082110204,0.08110759,0.012477976,-0.12400343,-1.42129,1.3446578
0.079553165,0.078581765,0.012089392,-0.12014177,-1.3770288,1.3027829
0.077075824,0.076134674,0.01171292,-0.116400465,-1.3341471,1.2622133
0.074675694,0.073763855,0.011348181,-0.11277577,-1.292602,1.2229083
0.07235036,0.071466915,0.01099481,-0.10926404,-1.2523516,1.184828
0.07009749,0.06924156,0.01065245,-0.105861746,-1.2133555,1.1479344
0.06791483,0.06708554,0.010320758,-0.10256547,-1.1755745,1.1121906
0.06580017,0.064996704,0.009999402,-0.099371895,-1.1389707,1.0775604
0.0637514,0.06297295,0.009688058,-0.096277826,-1.1035075,1.0440092
0.061766453,0.061012242,0.009386413,-0.093280144,-1.069149,1.0115032
0.059843343,0.05911262,0.009094166,-0.090375856,-1.0358609,0.9800099
0.057980143,0.057272166,0.008811022,-0.08756203,-1.0036097,0.94949764
0.05617498,0.05548905,0.008536698,-0.084835865,-0.9723632,0.9199358
0.054426044,0.053761467,0.008270919,-0.08219461,-0.9420899,0.89129484
0.052731585,0.052087698,0.008013419,-0.07963562,-0.91275954,0.8635459
0.051089898,0.050466057,0.007763938,-0.077156335,-0.88434273,0.8366612
0.049499344,0.048894923,0.0075222272,-0.07475427,-0.8568109,0.8106139
0.047958322,0.04737272,0.007288044,-0.072427005,-0.8301366,0.78537774
0.046465293,0.04589792,0.007061154,-0.07017222,-0.8042929,0.7609275
0.04501876,0.04446905,0.00684133,-0.06798766,-0.7792541,0.7372387
0.04361727,0.043084674,0.006628351,-0.06587112,-0.7549949,0.7142876
0.042259425,0.04174341,0.006422004,-0.06382049,-0.73149127,0.6920511
0.04094386,0.04044391,0.006222083,-0.061833713,-0.70871943,0.67050713
0.03966926,0.039184872,0.0060283868,-0.059908804,-0.6866567,0.64963394
0.03843435,0.03796504,0.005840722,-0.05804383,-0.66528094,0.6294107
0.037237886,0.03678319,0.0056589004,-0.056236926,-0.64457077,0.60981715
0.03607868,0.035638135,0.00548274,-0.054486282,-0.6245054,0.59083366
0.034955565,0.034528732,0.005312064,-0.052790146,-0.6050648,0.5724412
0.033867415,0.033453874,0.0051467028,-0.05114682,-0.58622944,0.55462146
0.03281315,0.03241248,0.0049864897,-0.049554657,-0.5679806,0.5373565
0.031791706,0.031403508,0.0048312647,-0.048012063,-0.5502998,0.5206291
0.030802062,0.030425949,0.0046808724,-0.0465175,-0.53316957,0.5044224
0.02984323,0.029478826,0.0045351624,-0.045069464,-0.51657265,0.48872036
0.028914249,0.028561188,0.0043939888,-0.043666508,-0.5004924,0.47350714
0.02801419,0.02767212,0.00425721,-0.04230723,-0.48491278,0.45876753
0.027142152,0.026810728,0.00412469,-0.040990274,-0.4698182,0.4444868
0.02629726,0.025976155,0.003996295,-0.039714314,-0.45519352,0.43065065
0.025478672,0.025167562,0.0038718972,-0.038478076,-0.44102415,0.41724527
0.02468557,0.024384141,0.0037513722,-0.037280325,-0.4272959,0.40425718
0.023917153,0.023625111,0.003634599,-0.03611986,-0.41399497,0.39167345
0.023172662,0.02288971,0.0035214613,-0.034995522,-0.40110815,0.37948143
0.022451345,0.022177199,0.0034118455,-0.033906184,-0.3886225,0.36766896
0.021752482,0.021486871,0.0033056422,-0.032850757,-0.37652552,0.3562242
0.021075377,0.020818032,0.003202745,-0.031828187,-0.3648051,0.34513575
0.020419348,0.020170014,0.0031030509,-0.030837448,-0.35344955,0.33439246
0.019783743,0.019542169,0.0030064601,-0.02987755,-0.34244752,0.3239836
0.019167922,0.018933868,0.0029128762,-0.028947534,-0.33178794,0.31389877
0.01857127,0.018344505,0.0028222057,-0.028046468,-0.3214602,0.30412787
0.017993195,0.017773485,0.0027343575,-0.027173452,-0.31145394,0.29466113
0.017433112,0.017220242,0.002649244,-0.026327612,-0.30175918,0.2854891
