ax,ay,az,gx,gy,gz
0.50000453,0.17000155,1.5227411,6.8246074,31.572105,23.249302
0.21173987,0.39918143,1.3832597,18.78221,33.395973,21.099815
-0.03604433,0.64763737,1.1744106,25.119102,30.000153,16.332531
0.2070605,1.2259618,1.3121368,22.466097,31.50152,11.138807
0.6071889,1.8867533,1.5593365,16.263113,33.595448,5.858098
0.87492025,2.3370922,1.6512932,8.723374,35.50016,-0.5556446
0.9515762,2.6263871,1.4941087,3.3751879,36.827503,-6.9488773
0.93843454,2.9066985,1.1476347,-0.35471866,36.73256,-13.768643
0.9168,3.2523277,0.6915665,-3.882992,35.01138,-22.33515
0.95604056,3.5001454,0.25214112,-7.9268465,32.924522,-30.126297
0.9940931,3.581188,-0.13421828,-12.817937,30.644825,-36.305664
0.95006084,3.520003,-0.5118088,-17.092949,28.372723,-41.123207
0.8294055,3.2919295,-0.9000701,-20.067608,25.579508,-45.48889
0.6877123,2.8432984,-1.3045582,-20.710037,21.189425,-49.020332
0.51559025,2.1264298,-1.687615,-20.678503,15.984969,-50.74131
0.3831582,1.3339858,-1.9716927,-20.356754,10.334304,-50.188637
0.32439876,0.45630616,-2.1411572,-19.632893,5.0902014,-46.962658
0.30211094,-0.4335296,-2.2487047,-17.61249,0.2123916,-41.78478
0.29902613,-1.2048893,-2.2709672,-13.5266075,-4.277332,-34.720882
0.30075404,-1.6510184,-2.125869,-9.033379,-8.478745,-26.866182
0.33676964,-1.7855158,-1.8496251,-4.7533216,-12.034235,-19.302557
0.41810018,-1.6643155,-1.4559214,-1.1111974,-14.561275,-12.922626
0.5295715,-1.3706131,-0.99841535,1.9249967,-15.730832,-7.8734064
0.63716125,-0.96750444,-0.5525714,3.937369,-15.496597,-4.443415
0.7545688,-0.3920133,-0.15410025,4.7572207,-14.143403,-2.8909845
0.8599957,0.2033245,0.17389363,4.056005,-11.803432,-2.518138
0.90205127,0.7548022,0.37377384,2.2134492,-9.287747,-3.1165423
0.9141495,1.255992,0.45122707,-0.2822236,-6.9400396,-5.127931
0.92546886,1.6696641,0.41573262,-2.8643253,-4.866985,-9.07052
0.94152886,1.938477,0.24996576,-5.4120955,-3.2448242,-13.821553
0.9528547,2.0414975,0.010920287,-7.781439,-2.1625354,-18.549871
0.9265347,1.9958241,-0.2944481,-10.129588,-1.990114,-22.605562
0.8528753,1.8240224,-0.65513647,-12.735991,-3.0316472,-25.70442
0.7481831,1.5106,-1.0382982,-14.280836,-5.557751,-28.371284
0.6464666,0.96766096,-1.3930459,-14.491834,-8.819178,-30.315323
0.582281,0.31335422,-1.6769913,-13.469025,-12.456277,-30.596653
0.5338199,-0.3757447,-1.9091076,-11.775339,-16.417477,-29.194704
0.50064075,-0.9931315,-2.0521617,-9.645076,-20.580309,-25.36877
0.5040538,-1.362773,-2.027064,-7.2271657,-24.328459,-20.382748
0.57904816,-1.4644706,-1.7777932,-4.7935996,-27.197206,-15.457278
0.7072506,-1.427379,-1.4412692,-2.708567,-29.069792,-10.493474
0.8495779,-1.2579105,-1.0685952,-0.9190118,-29.750093,-5.8718314
0.9500497,-0.98157763,-0.7244963,0.7588476,-29.471373,-1.9776711
1.0112069,-0.60620934,-0.4297591,1.5479584,-28.509394,0.58711237
1.0432955,-0.22675692,-0.20184144,1.854813,-27.118477,2.1025438
1.0652472,0.10287221,-0.036020417,1.4509908,-25.414673,2.8248363
1.0752137,0.369685,0.05738048,0.45078763,-23.536774,2.887454
1.0698559,0.55445826,0.09560952,-0.9211872,-21.789581,2.4032557
1.0333799,0.53555435,0.092349775,-0.8897799,-21.046679,2.3213181
0.9983436,0.5173966,0.0892187,-0.85961235,-20.333101,2.242615
0.9646722,0.49994627,0.086209595,-0.83062,-19.647322,2.1669776
0.9322961,0.48316717,0.083316244,-0.8027429,-18.987923,2.0942502
0.9011507,0.46702594,0.080532886,-0.7759255,-18.35359,2.0242872
0.871176,0.4514914,0.07785415,-0.75011617,-17.7431,1.9569539
0.842316,0.43653452,0.07527502,-0.7252666,-17.155312,1.8921247
0.8145184,0.4221283,0.07279084,-0.70133173,-16.589163,1.8296819
0.7877343,0.40824732,0.070397235,-0.6782696,-16.043657,1.7695159
0.761918,0.39486787,0.06809012,-0.6560408,-15.51786,1.7115238
0.7370265,0.38196772,0.06586565,-0.63460827,-15.0109,1.6556091
0.7130195,0.36952597,0.06372022,-0.6139373,-14.521952,1.6016814
0.689859,0.35752293,0.06165044,-0.5939952,-14.050246,1.5496551
0.66750926,0.34594005,0.05965312,-0.57475126,-13.595053,1.49945
0.64593655,0.33475992,0.057725236,-0.5561763,-13.155685,1.4509906
0.6251091,0.32396594,0.05586395,-0.53824306,-12.731495,1.404205
0.6049966,0.31354257,0.05406657,-0.52092546,-12.321868,1.3590256
0.58557075,0.303475,0.05233054,-0.504199,-11.926224,1.3153886
0.56680435,0.29374924,0.05065345,-0.48804042,-11.544012,1.2732329
0.54867184,0.28435197,0.04903301,-0.47242764,-11.17471,1.2325013
0.53114885,0.27527058,0.047467034,-0.45733964,-10.8178215,1.1931387
0.51421213,0.26649305,0.045953456,-0.4427565,-10.472876,1.1550932
0.49783975,0.25800797,0.044490308,-0.42865923,-10.139421,1.1183153
0.48201063,0.24980445,0.043075714,-0.41502976,-9.817032,1.0827578
0.46670476,0.24187212,0.041707877,-0.40185082,-9.5053,1.0483757
0.45190305,0.23420104,0.040385094,-0.38910595,-9.2038355,1.015126
0.4375872,0.22678179,0.039105736,-0.37677947,-8.912268,0.98296785
0.4237398,0.2196053,0.03786824,-0.36485633,-8.6302395,0.9518619
0.41034415,0.21266295,0.036671113,-0.35332215,-8.357412,0.9217708
0.39738432,0.20594645,0.035512935,-0.34216323,-8.093462,0.89265865
0.38484496,0.19944786,0.034392335,-0.33136636,-7.8380747,0.86449105
0.37271145,0.1931596,0.033308,-0.32091892,-7.5909534,0.8372351
0.3609697,0.18707438,0.03225868,-0.31080884,-7.351811,0.8108592
0.34960625,0.1811852,0.031243166,-0.30102447,-7.1203732,0.78533304
0.33860812,0.17548539,0.0302603,-0.29155466,-6.8963766,0.76062757
0.32796293,0.16996844,0.029308973,-0.28238872,-6.6795673,0.7367149
0.31765866,0.16462822,0.028388115,-0.27351636,-6.4697022,0.7135681
0.30768389,0.15945873,0.027496701,-0.2649277,-6.266547,0.69116133
0.2980275,0.15445426,0.026633741,-0.25661317,-6.0698776,0.66946983
0.28867888,0.1496093,0.025798287,-0.24856366,-5.879476,0.64846975
0.27962783,0.14491853,0.024989422,-0.24077034,-5.695134,0.628138
0.27086443,0.14037687,0.024206268,-0.23322473,-5.5166516,0.6084525
0.26237923,0.13597937,0.023447974,-0.22591864,-5.343835,0.5893919
0.25416306,0.13172129,0.02271372,-0.2188442,-5.1764975,0.5709356
0.24620709,0.12759808,0.022002721,-0.2119938,-5.0144596,0.5530638
0.23850283,0.1236053,0.021314217,-0.20536014,-4.857548,0.5357575
0.23104207,0.11973872,0.020647474,-0.19893613,-4.705596,0.5189981
0.22381689,0.11599424,0.020001782,-0.19271497,-4.558442,0.5027679
0.21681966,0.11236788,0.019376462,-0.18669009,-4.4159307,0.48704976
0.210043,0.10885584,0.018770855,-0.18085513,-4.277911,0.47182712
0.20347978,0.10545443,0.018184323,-0.17520395,-4.1442394,0.45708394
0.19712317,0.10216008,0.017616251,-0.16973065,-4.0147753,0.44280484
0.19096649,0.09896935,0.01706605,-0.16442952,-3.8893833,0.42897487
0.18500334,0.095878914,0.016533142,-0.15929501,-3.767933,0.41557962
0.17922752,0.092885576,0.016016977,-0.1543218,-3.6502976,0.4026052
0.17363305,0.08998621,0.015517018,-0.14950477,-3.5363562,0.39003816
0.16821416,0.087177835,0.015032748,-0.14483887,-3.42599,0.3778655
0.16296521,0.08445755,0.014563668,-0.14031933,-3.319086,0.36607462
0.15788083,0.081822544,0.014109293,-0.13594149,-3.2155333,0.3546534
0.15295579,0.07927011,0.013669157,-0.13170083,-3.1152256,0.34359008
0.14818501,0.076797634,0.013242809,-0.12759301,-3.01806,0.3328733
0.14356361,0.07440257,0.01282981,-0.12361381,-2.9239368,0.3224921
0.13908687,0.07208248,0.012429739,-0.11975917,-2.8327599,0.31243584
0.13475022,0.069834985,0.012042186,-0.116025135,-2.7444358,0.30269426
0.1305492,0.06765779,0.011666755,-0.11240791,-2.6588745,0.2932574
0.12647957,0.06554868,0.011303064,-0.10890379,-2.5759888,0.28411558
0.12253715,0.0635055,0.010950744,-0.105509214,-2.4956942,0.27525958
0.118717946,0.06152618,0.010609434,-0.10222074,-2.4179091,0.2666804
0.11501808,0.059608705,0.010278789,-0.099035,-2.3425546,0.25836924
0.11143379,0.057751127,0.009958473,-0.09594879,-2.269554,0.25031772
0.107961446,0.055951566,0.009648161,-0.09295897,-2.1988332,0.24251767
0.104597524,0.054208197,0.009347538,-0.0900625,-2.1303208,0.23496117
0.10133862,0.052519254,0.009056301,-0.08725646,-2.0639472,0.22764058
0.09818144,0.05088303,0.008774154,-0.084538005,-1.9996454,0.2205485
0.09512279,0.04929787,0.008500813,-0.08190439,-1.9373504,0.21367773
0.09215958,0.04776217,0.008235999,-0.07935295,-1.8769991,0.20702137
0.089288816,0.046274383,0.007979449,-0.07688112,-1.8185308,0.20057267
0.0865076,0.044833004,0.0077309012,-0.07448638,-1.7618862,0.19432513
0.08381314,0.043436583,0.0074901055,-0.072166346,-1.7070085,0.18827246
0.0812027,0.04208371,0.0072568194,-0.069918655,-1.6538422,0.18240854
0.07867366,0.040773027,0.007030808,-0.06774106,-1.6023337,0.17672747
0.07622348,0.039503206,0.006811843,-0.06563136,-1.5524312,0.17122354
0.073849685,0.038272973,0.0065997043,-0.06358743,-1.5040845,0.1658912
0.071549885,0.037081093,0.006394179,-0.06160721,-1.4572449,0.16072507
0.069321774,0.03592636,0.0061950595,-0.05968872,-1.4118652,0.15571998
0.0671631,0.03480762,0.0060021463,-0.05783002,-1.3678999,0.15087089
0.06507171,0.03372374,0.005815245,-0.05602925,-1.3253049,0.14617291
0.06304549,0.032673642,0.0056341686,-0.054284595,-1.2840371,0.14162134
0.0610824,0.031656265,0.005458734,-0.052594304,-1.2440553,0.13721159
0.059180483,0.030670585,0.005288766,-0.050956678,-1.2053193,0.13293925
0.05733782,0.029715618,0.0051240935,-0.049370077,-1.16779,0.1288
0.05555257,0.028790401,0.004964551,-0.047832906,-1.1314301,0.12478973
0.05382293,0.027894007,0.004809979,-0.04634362,-1.0962029,0.12090438
0.052147172,0.027025538,0.004660222,-0.044900727,-1.062073,0.11714007
0.050523616,0.02618412,0.00451513,-0.04350278,-1.0290062,0.11349301
0.048950627,0.025368912,0.004374557,-0.042148378,-0.99696946,0.10995955
0.047426634,0.024579095,0.004238363,-0.040836163,-0.9659305,0.10653615
0.045950107,0.023813875,0.004106411,-0.039564814,-0.93585837,0.103219375
0.044519566,0.02307249,0.0039785677,-0.038333062,-0.9067227,0.100005895
0.043133575,0.022354195,0.0038547064,-0.037139673,-0.8784945,0.0968925
0.04179075,0.021658268,0.0037347025,-0.035983447,-0.8511454,0.093876064
0.04048974,0.020984014,0.0036184357,-0.03486323,-0.82464796,0.09095356
0.039229248,0.020330757,0.0035057894,-0.033777896,-0.7989757,0.08812206
0.038008004,0.019697841,0.0033966508,-0.03272636,-0.7741028,0.08537874
0.03682479,0.019084634,0.0032909107,-0.031707563,-0.7500045,0.082720846
0.035678416,0.018490521,0.0031884634,-0.030720495,-0.7266565,0.08014571
0.03456774,0.017914908,0.0030892058,-0.029764159,-0.7040356,0.077650756
0.03349165,0.017357217,0.0029930389,-0.0288376,-0.68211895,0.07523349
0.03244906,0.01681689,0.0028998663,-0.027939891,-0.66088474,0.07289149
0.03143893,0.016293386,0.0028095946,-0.027070135,-0.64031166,0.07062241
0.030460257,0.015786182,0.0027221334,-0.026227457,-0.6203791,0.06842397
0.029512051,0.015294771,0.0026373954,-0.025411015,-0.6010671,0.06629398
0.028593369,0.014818658,0.0025552956,-0.024619993,-0.58235645,0.06423031
0.027703285,0.014357368,0.002475752,-0.023853598,-0.5642283,0.062230885
0.026840916,0.013910441,0.0023986846,-0.023111064,-0.54666454,0.06029371
0.026005393,0.013477427,0.0023240168,-0.022391647,-0.5296476,0.058416847
0.025195882,0.013057893,0.0022516735,-0.021694627,-0.5131604,0.056598414
0.024411572,0.012651421,0.0021815824,-0.021019306,-0.4971865,0.05483659
0.02365168,0.012257603,0.0021136734,-0.02036501,-0.48170993,0.053129617
0.022915445,0.011876046,0.0020478782,-0.019731082,-0.46671513,0.051475786
0.022202129,0.011506367,0.0019841315,-0.01911689,-0.45218715,0.04987344
0.02151102,0.011148195,0.0019223694,-0.018521817,-0.43811142,0.048320975
0.020841425,0.010801174,0.0018625299,-0.017945271,-0.4244739,0.04681684
0.020192675,0.010464956,0.0018045532,-0.017386671,-0.4112609,0.04535953
0.01956412,0.010139205,0.0017483814,-0.016845463,-0.39845926,0.043947585
0.018955132,0.009823593,0.0016939582,-0.0163211,-0.3860561,0.042579595
0.018365104,0.0095178075,0.0016412291,-0.015813062,-0.37403905,0.04125419
0.017793441,0.009221541,0.0015901416,-0.015320838,-0.3623961,0.039970044
0.017239574,0.008934496,0.0015406442,-0.014843938,-0.35111558,0.03872587
0.016702948,0.008656387,0.0014926877,-0.014381883,-0.3401862,0.03752043
0.016183026,0.008386936,0.0014462242,-0.013934211,-0.3295971,0.036352515
0.01567929,0.008125872,0.0014012068,-0.013500474,-0.31933755,0.035220955
