ax,ay,az,gx,gy,gz
1.1618288,2.4882045,1.7709252,7.1018825,23.748398,-14.981046
1.5111606,2.4447486,1.7571433,6.044658,31.015759,-20.842522
1.8190858,2.8145316,1.718317,3.4995139,36.338055,-24.245289
2.0038946,3.1681485,1.4638844,-1.690289,40.501488,-27.693335
1.9814223,3.4021263,1.000431,-7.4504375,45.155094,-30.815666
1.7556242,3.5707395,0.31308007,-13.318306,46.237713,-34.483475
1.3922942,3.5801969,-0.49933493,-19.501635,42.57409,-38.856853
1.0555989,3.432138,-1.242354,-24.276096,36.48771,-44.08293
0.7636756,3.0764089,-1.886511,-27.63333,29.263409,-48.74038
0.6254703,2.5275905,-2.3329575,-29.481533,22.725824,-50.788754
0.53858715,1.8963417,-2.680412,-29.287844,17.497667,-49.934097
0.36269793,1.1022384,-3.0212846,-26.017914,12.288273,-48.62413
0.19012389,0.28692698,-3.276271,-21.06484,6.7575703,-45.96404
0.08463701,-0.47393242,-3.415436,-16.23473,0.81129533,-41.381577
0.06953394,-1.1230589,-3.4148397,-11.721437,-4.6224155,-35.224285
0.11164441,-1.5700722,-3.276972,-7.781007,-9.041516,-28.882668
0.14377573,-1.820134,-3.0290692,-3.774221,-12.882894,-23.033627
0.19134977,-1.8763613,-2.6801267,0.22032441,-16.155714,-17.5005
0.28112465,-1.7543094,-2.225974,3.8766422,-18.34764,-12.417866
0.39280182,-1.4765322,-1.7264651,6.462635,-19.479395,-7.7890067
0.49152344,-1.0536638,-1.2312733,7.4797487,-19.488724,-4.6188097
0.57551336,-0.47028401,-0.74028575,7.208769,-18.477367,-3.0234807
0.62547356,0.12569384,-0.33144128,5.617066,-16.62616,-2.7520251
0.63159174,0.6629685,-0.056624312,3.2043898,-14.572302,-3.68588
0.6091515,1.1285559,0.084606774,0.6608489,-12.667157,-5.8740354
0.58676165,1.5236679,0.13059048,-1.8089626,-11.045987,-9.521097
0.5762811,1.7849303,0.074730255,-4.4867277,-9.809362,-13.209265
0.5622761,1.9697852,-0.0517192,-7.3536363,-9.068883,-17.086212
0.5390959,2.0102315,-0.24009278,-10.393447,-8.935906,-20.816097
0.5070588,1.8726782,-0.48542196,-12.741965,-9.200193,-23.6366
0.44998664,1.5711908,-0.78872734,-13.038291,-10.06029,-25.91597
0.3677952,1.0574833,-1.1616132,-11.457264,-11.394352,-27.702547
0.2821992,0.42913952,-1.5446665,-8.174998,-13.525118,-28.303757
0.25279576,-0.2181206,-1.8726021,-4.2765756,-16.383303,-27.048975
0.2851534,-0.8136144,-2.126949,-0.12600547,-19.572746,-24.12834
0.3543338,-1.2957112,-2.2584662,4.223191,-22.788538,-19.420786
0.45061687,-1.5076785,-2.1846194,7.9463406,-25.71487,-14.136217
0.5364362,-1.5434177,-2.0022979,10.895202,-28.29168,-8.797353
0.6174222,-1.4391563,-1.7467163,13.0841,-30.24598,-3.8305247
0.68479747,-1.2461932,-1.4473263,14.728092,-31.54589,0.6392177
0.7547541,-0.9753317,-1.1127019,15.5781975,-31.74289,4.6600285
0.8059509,-0.6207345,-0.802428,15.816339,-31.36614,7.739736
0.84126365,-0.27826643,-0.5506486,15.809534,-30.60238,9.819396
0.8689769,0.030606123,-0.34792656,15.667411,-29.370193,11.408385
0.8841331,0.2899768,-0.19809015,15.373249,-27.59452,12.472435
0.8925032,0.49840754,-0.10308078,15.010833,-25.437263,13.15463
0.87740237,0.6442234,-0.06335012,14.471665,-23.36267,13.614879
0.8643897,0.7385005,-0.03572835,13.52732,-21.40167,13.8031435
0.83491886,0.7133218,-0.034510214,13.066114,-20.671993,13.332534
0.80661136,0.6891369,-0.033340164,12.623114,-19.971119,12.880501
0.77940655,0.6658942,-0.03221569,12.197371,-19.297546,12.446076
0.7532483,0.6435456,-0.031134473,11.788005,-18.649887,12.028364
0.7280844,0.6220466,-0.03009436,11.394201,-18.026848,11.626531
0.7038663,0.6013557,-0.02909334,11.0152,-17.427225,11.2398
0.68054885,0.58143413,-0.028129546,10.650291,-16.849903,10.867453
0.6580898,0.562246,-0.027201232,10.298818,-16.293833,10.508811
0.63644964,0.5437575,-0.026306765,9.960158,-15.758038,10.163247
0.61559135,0.525937,-0.025444617,9.633736,-15.241602,9.830168
0.5954803,0.5087549,-0.024613354,9.319006,-14.743666,9.509022
0.57608384,0.49218333,-0.023811627,9.01546,-14.263423,9.1992855
0.5573713,0.4761961,-0.023038171,8.722617,-13.800115,8.900472
0.53931385,0.46076852,-0.022291793,8.440025,-13.3530245,8.612119
0.5218842,0.4458773,-0.02157136,8.167259,-12.921479,8.333791
0.5050566,0.4315005,-0.020875817,7.903915,-12.504841,8.065077
0.48880678,0.41761726,-0.020204153,7.649612,-12.102507,7.8055887
0.47311166,0.40420797,-0.019555416,7.4039903,-11.713905,7.5549583
0.45794937,0.3912539,-0.018928703,7.166707,-11.338498,7.312837
0.4432992,0.3787374,-0.018323159,6.9374385,-10.975771,7.0788937
0.4291415,0.36664158,-0.01773797,6.7158766,-10.6252365,6.852814
0.41545752,0.35495055,-0.01717236,6.501728,-10.28643,6.6342993
0.40222943,0.343649,-0.016625598,6.2947145,-9.958913,6.4230647
0.3894403,0.33272246,-0.016096976,6.09457,-9.642263,6.218839
0.37707394,0.3221571,-0.0155858295,5.901042,-9.336081,6.0213647
0.3651149,0.31193978,-0.015091519,5.713888,-9.039983,5.8303947
0.3535484,0.30205783,-0.014613434,5.532878,-8.753606,5.645694
0.3423604,0.29249924,-0.014150994,5.3577905,-8.476599,5.4670362
0.33153743,0.2832525,-0.01370364,5.188415,-8.208629,5.2942076
0.3210665,0.27430657,-0.01327084,5.02455,-7.9493766,5.1270013
0.31093535,0.2656509,-0.012852082,4.8660016,-7.6985364,4.96522
0.30113205,0.25727537,-0.012446877,4.712585,-7.4558144,4.808675
0.29164532,0.24917027,-0.012054756,4.5641217,-7.2209296,4.6571846
0.28246424,0.2413263,-0.0116752675,4.4204416,-6.993612,4.510575
0.27357832,0.23373453,-0.011307981,4.2813807,-6.773603,4.3686786
0.2649775,0.22638635,-0.010952479,4.146782,-6.5606537,4.2313356
0.2566522,0.21927352,-0.010608363,4.0164943,-6.3545246,4.098391
0.24859308,0.21238813,-0.01027525,3.8903725,-6.1549864,3.9696977
0.2407912,0.20572251,-0.0099527715,3.7682767,-5.9618177,3.8451123
0.233238,0.19926935,-0.00964057,3.6500726,-5.774806,3.7244978
0.22592519,0.19302158,-0.009338305,3.5356302,-5.593746,3.6077223
0.21884482,0.1869724,-0.009045647,3.4248254,-5.418441,3.494658
0.2119892,0.18111522,-0.00876228,3.317538,-5.2487006,3.385183
0.20535095,0.17544375,-0.008487897,3.2136524,-5.0843425,3.279179
0.19892293,0.16995192,-0.008222204,3.1130567,-4.925189,3.1765323
0.19269827,0.16463381,-0.0079649165,3.0156436,-4.771071,3.0771327
0.18667035,0.15948379,-0.0077157603,2.9213092,-4.6218243,2.980875
0.18083277,0.15449639,-0.0074744723,2.8299537,-4.4772897,2.8876567
0.17517935,0.14966634,-0.007240796,2.74148,-4.3373156,2.7973793
0.16970415,0.14498855,-0.0070144865,2.6557956,-4.201753,2.7099476
0.16440141,0.14045809,-0.006795305,2.5728102,-4.0704613,2.6252701
0.15926558,0.13607024,-0.0065830224,2.4924366,-3.943302,2.5432577
0.1542913,0.13182041,-0.006377417,2.4145913,-3.820142,2.463825
0.14947337,0.12770416,-0.006178275,2.3391929,-3.7008536,2.3868892
0.1448068,0.12371723,-0.005985389,2.266163,-3.5853128,2.3123705
0.14028676,0.119855486,-0.005798559,2.1954265,-3.4733996,2.2401915
0.13590856,0.11611492,-0.005617592,2.1269095,-3.3649986,2.1702774
0.13166769,0.11249168,-0.0054423013,2.0605416,-3.2599976,2.1025562
0.12755977,0.108982034,-0.0052725063,1.9962543,-3.1582882,2.0369582
0.12358057,0.10558237,-0.005108032,1.9339818,-3.0597663,1.9734159
0.119726025,0.1022892,-0.0049487096,1.8736597,-2.9643307,1.9118639
0.11599217,0.099099144,-0.004794376,1.8152267,-2.8718832,1.8522394
0.11237519,0.096008934,-0.004644873,1.7586225,-2.7823293,1.794481
0.108871385,0.093015425,-0.0045000482,1.7037895,-2.6955776,1.7385299
0.105477184,0.09011555,-0.0043597533,1.6506717,-2.6115396,1.684329
0.102189116,0.08730636,-0.004223846,1.5992149,-2.5301294,1.6318231
0.099003844,0.08458498,-0.0040921867,1.5493667,-2.4512641,1.5809585
0.09591812,0.08194866,-0.0039646425,1.5010766,-2.3748639,1.5316837
0.09292881,0.07939472,-0.003841084,1.4542952,-2.3008509,1.4839485
0.09003289,0.076920554,-0.0037213848,1.4089752,-2.2291498,1.4377044
0.087227404,0.07452366,-0.0036054242,1.3650707,-2.1596882,1.3929046
0.08450953,0.07220161,-0.0034930843,1.3225371,-2.0923953,1.3495038
0.0818765,0.069952056,-0.0033842518,1.2813313,-2.0272036,1.3074578
0.07932565,0.06777272,-0.0032788161,1.2414118,-1.9640465,1.2667243
0.07685442,0.06566139,-0.0031766712,1.202738,-1.9028604,1.227262
0.0744603,0.06361594,-0.0030777133,1.165271,-1.8435836,1.189031
0.072140865,0.061634313,-0.0029818427,1.1289729,-1.7861562,1.1519928
0.069893785,0.059714496,-0.0028889629,1.0938071,-1.73052,1.11611
0.06771679,0.05785456,-0.0027989799,1.0597382,-1.6766193,1.0813463
0.06560769,0.056052625,-0.0027118032,1.0267316,-1.6243994,1.0476668
0.06356436,0.054306883,-0.0026273448,0.9947543,-1.573808,1.0150375
0.061584733,0.052615568,-0.0025455197,0.9637741,-1.5247939,0.98342556
0.059666824,0.050976984,-0.0024662456,0.9337596,-1.4773078,0.95279914
0.0578087,0.049389478,-0.0023894426,0.90468085,-1.4313021,0.9231274
0.0560085,0.047851454,-0.0023150337,0.8765085,-1.3867303,0.89438057
0.054264404,0.04636137,-0.002242944,0.84921414,-1.3435477,0.8665297
0.05257466,0.044917718,-0.0021731008,0.8227704,-1.301711,0.8395468
0.050937574,0.043519057,-0.0021054342,0.79715073,-1.2611779,0.81340474
0.049351502,0.04216398,-0.002039876,0.7723294,-1.2219079,0.7880773
0.04781485,0.040851124,-0.0019763606,0.7482814,-1.1838614,0.76353896
0.04632607,0.03957917,-0.001914824,0.72498274,-1.1470003,0.7397652
0.044883676,0.038346846,-0.0018552047,0.70240986,-1.1112877,0.7167321
0.043486215,0.03715291,-0.0017974426,0.6805402,-1.0766876,0.6944165
0.04213229,0.03599617,-0.0017414798,0.6593518,-1.0431653,0.67279613
0.040820535,0.034875456,-0.0016872603,0.6388235,-1.0106872,0.6518492
0.03954964,0.033789657,-0.0016347297,0.6189346,-0.9792208,0.6315547
0.038318332,0.032737672,-0.0015838352,0.5996651,-0.94873446,0.61189234
0.03712537,0.031718455,-0.0015345259,0.5809958,-0.9191976,0.5928424
0.035969567,0.03073098,-0.0014867522,0.56290793,-0.8905807,0.5743857
0.034849755,0.02977426,-0.0014404665,0.5453834,-0.862855,0.55650383
0.03376482,0.028847333,-0.0013956222,0.52840465,-0.83599275,0.5391789
0.03271367,0.027949272,-0.0013521743,0.5119546,-0.80996704,0.5223934
0.031695254,0.027079178,-0.0013100795,0.49601686,-0.78475183,0.5061307
0.030708551,0.026236176,-0.0012692955,0.48057538,-0.76032174,0.4903744
0.029752575,0.025419427,-0.0012297814,0.46561474,-0.73665243,0.47510868
0.028826363,0.02462811,-0.0011914979,0.45111996,-0.71372014,0.46031836
0.027928993,0.023861432,-0.0011544062,0.4370765,-0.69150186,0.44598854
0.027059564,0.023118624,-0.0011184696,0.42347032,-0.6699754,0.43210492
0.026217205,0.022398947,-0.0010836519,0.41028777,-0.6491192,0.41865358
0.025401074,0.021701677,-0.0010499182,0.39751568,-0.6289124,0.40562108
0.024610354,0.021026116,-0.0010172349,0.38514125,-0.6093347,0.3929943
0.023844251,0.020371588,-0.0009855691,0.37315208,-0.5903666,0.3807607
0.023102,0.01973744,-0.0009548892,0.36153618,-0.571989,0.36890796
0.02238286,0.019123033,-0.0009251645,0.35028195,-0.55418354,0.35742423
0.021686107,0.018527756,-0.0008963652,0.3393781,-0.53693247,0.34629804
0.021011047,0.017951012,-0.00086846255,0.32881367,-0.5202185,0.33551824
0.020357003,0.017392222,-0.0008414285,0.31857818,-0.5040248,0.32507402
0.01972332,0.01685083,-0.0008152362,0.30866134,-0.4883353,0.31495497
0.019109366,0.01632629,-0.0007898592,0.29905322,-0.47313422,0.30515093
0.018514525,0.01581808,-0.00076527224,0.2897442,-0.4584064,0.29565212
0.017938202,0.015325693,-0.00074145076,0.280725,-0.44413704,0.28644902
0.01737982,0.014848634,-0.0007183708,0.27198657,-0.4303119,0.2775324
0.01683882,0.014386426,-0.0006960094,0.26352018,-0.41691715,0.2688934
0.016314663,0.013938606,-0.000674344,0.25531733,-0.4039394,0.2605233
0.015806824,0.013504728,-0.00065335317,0.24736986,-0.39136562,0.25241375
0.015314792,0.013084355,-0.00063301576,0.23966978,-0.3791833,0.24455668
0.014838078,0.012677069,-0.0006133114,0.23220941,-0.36738017,0.2369442
0.0143762035,0.012282462,-0.0005942205,0.22498128,-0.35594448,0.22956868
0.013928707,0.011900138,-0.0005757238,0.21797815,-0.34486482,0.22242276
0.013495141,0.011529717,-0.00055780297,0.21119304,-0.33413002,0.21549928
0.01307507,0.011170825,-0.0005404399,0.20461912,-0.3237294,0.20879133
0.012668077,0.010823105,-0.00052361743,0.19824985,-0.31365252,0.20229219
