ax,ay,az,gx,gy,gz
1.5791053,0.6609151,2.2318385,16.25742,-0.16636515,18.976536
1.0454121,0.85916585,1.6882665,8.976805,-2.1225646,17.728415
0.6241937,0.78704625,1.227669,5.0895047,-6.7821116,14.090078
0.5722471,0.6962113,1.0957987,2.6630929,-9.275695,11.9257145
0.71149766,0.6758469,1.1487169,-0.66827124,-9.938314,11.463479
0.85820484,0.62109506,1.2255511,-2.517245,-8.041086,11.808777
0.88044107,0.5351597,1.1673825,-3.5605462,-5.6128554,12.118241
0.7866391,0.42945477,0.9941671,-4.6854367,-4.132783,12.236839
0.6346807,0.35216752,0.7742445,-5.407495,-4.54642,11.890363
0.5252024,0.3129303,0.6368981,-6.025595,-5.7807426,11.226232
0.4726695,0.27525356,0.5654587,-6.391552,-6.807168,10.5890465
0.45176277,0.23008746,0.52871794,-6.303628,-7.214572,9.965983
0.43166003,0.1970519,0.502446,-5.891282,-7.0814495,9.245369
0.39782763,0.16431616,0.46690297,-5.041209,-6.870536,8.42757
0.35987657,0.16521285,0.4305019,-4.4345603,-7.459246,7.5728984
0.3351323,0.15222026,0.42571852,-4.031726,-8.172905,6.825379
0.31535003,0.09174015,0.44792637,-3.1855354,-8.840773,6.154696
0.2913059,0.012468273,0.49506664,-1.4927393,-9.61886,5.277758
0.29552814,-0.037742,0.5860777,1.405202,-10.417907,3.6737142
0.3868766,-0.009193816,0.760796,4.02352,-11.08294,1.337289
0.5988136,0.039876543,1.0359296,5.4471974,-10.661232,-0.6892838
0.9476577,0.10412827,1.4147626,5.725134,-8.5433035,-1.7842938
1.3613781,0.18399894,1.8254132,3.9289474,-4.465286,-1.7559955
1.7964605,0.2624702,2.2269123,0.24202143,1.6395935,-0.19787915
2.1745555,0.3357495,2.5283673,-4.4400887,9.269185,2.1858618
2.5225022,0.4132472,2.7566092,-9.950415,19.466333,5.1468167
2.8392003,0.49743682,2.8501031,-15.768352,30.962376,8.402602
3.0829618,0.5662805,2.811421,-21.40999,43.159893,12.222508
3.2460895,0.6552384,2.6699378,-27.235115,55.07675,16.256454
3.338091,0.7786335,2.4173062,-33.063892,65.94882,20.552233
3.2934005,0.87994957,2.036566,-37.796585,74.03385,24.35722
3.2002876,0.9432638,1.6357555,-41.12379,80.90319,27.270142
3.0990236,1.0120088,1.2204309,-43.672035,86.71303,29.361576
2.939002,1.0633916,0.74054855,-45.34951,91.29535,30.847765
2.6682043,1.0769298,0.16747548,-45.48223,93.76335,31.659817
2.299816,1.0820659,-0.4502773,-44.06486,91.759,31.19751
1.908059,1.1267316,-1.0460824,-42.190468,87.0188,29.74515
1.550262,1.1953185,-1.5788848,-39.41397,80.48216,27.237555
1.210058,1.289612,-2.0779097,-35.663666,72.32725,23.795126
0.87624717,1.4130722,-2.536996,-30.953865,62.752827,19.21804
0.551727,1.5774432,-2.970595,-25.079828,50.91894,12.871732
0.2655217,1.7625579,-3.414693,-18.91909,37.0442,5.798043
0.0044222455,1.9726615,-3.8743515,-12.592409,20.731583,-2.280211
-0.18273756,2.2111015,-4.2897544,-6.432767,2.9743824,-11.70411
-0.2379782,2.439374,-4.6313367,-0.5293777,-15.031825,-21.503773
-0.18098913,2.6171763,-4.887779,5.3789525,-32.272545,-31.183193
0.0003228376,2.749815,-5.0178432,11.513338,-48.25859,-40.244247
0.23991647,2.849834,-5.070736,17.972158,-62.714046,-48.20878
0.54121137,2.9176192,-5.0153074,24.264032,-75.17585,-55.24065
0.98589593,2.9987996,-4.8051906,30.121275,-84.55076,-60.519497
1.5273573,3.1097355,-4.4570513,34.383484,-88.96989,-63.894367
2.0911832,3.2685921,-4.0378294,36.523434,-90.724,-66.20327
2.6273623,3.422045,-3.6465368,36.63273,-90.757805,-67.11334
3.1008778,3.5229292,-3.31785,35.72686,-89.795555,-66.85837
3.5523455,3.569807,-2.9961526,34.05806,-87.862144,-65.11057
3.9906585,3.6076992,-2.631977,30.70231,-83.96956,-61.038216
4.383099,3.6449986,-2.2563848,26.808588,-78.135574,-55.934227
4.720263,3.7003849,-1.9159932,22.255436,-70.24605,-50.220535
4.987034,3.7702196,-1.6673784,16.61516,-61.119755,-44.26088
5.205368,3.8145115,-1.4917986,9.600764,-51.26206,-38.123318
5.407461,3.8119938,-1.3592451,1.2754,-39.89033,-31.290205
5.6435595,3.8137434,-1.293956,-7.2073903,-26.840431,-23.132174
5.78377,3.8557978,-1.412339,-13.016378,-13.615005,-14.165001
5.775652,3.893336,-1.5949897,-16.607496,-1.0176406,-6.3321557
5.747639,3.9100237,-1.7372004,-20.60356,10.77609,0.73296875
5.768201,3.9381185,-1.8381449,-27.430319,23.24119,7.6255074
5.780084,4.015414,-2.031518,-34.78818,36.026382,14.497257
5.5294976,4.026406,-2.4564028,-39.20885,47.157433,19.666607
5.0211062,3.9965317,-2.984375,-40.89421,54.44267,22.935131
4.4743385,4.003211,-3.4615502,-42.879322,57.373688,24.784502
4.025928,3.9374552,-3.839025,-44.889645,57.010246,25.86293
3.7463834,3.7780175,-4.0849953,-45.257465,56.82576,26.45341
3.4656005,3.6132126,-4.3234377,-43.746716,56.77144,26.198729
3.1494424,3.487391,-4.5681396,-40.688725,55.9388,25.416222
2.7933245,3.3854039,-4.821346,-36.93062,53.33916,24.174082
2.4555368,3.2846336,-5.0555067,-32.762398,48.29632,22.738888
2.18112,3.2730749,-5.2086554,-28.869102,42.0442,20.451351
1.9928507,3.201727,-5.2960877,-24.439348,35.42875,17.887411
1.9299668,3.1006973,-5.128971,-23.66817,34.310806,17.322979
1.8691181,3.0029373,-4.967263,-22.921953,33.229042,16.776814
1.8102342,2.9083343,-4.810776,-22.19983,32.18221,16.248283
1.7532474,2.8167787,-4.6593313,-21.50097,31.169102,15.736782
1.6980927,2.7281668,-4.5127554,-20.824581,30.188566,15.241726
1.6447079,2.6423984,-4.370883,-20.169895,29.239494,14.762554
1.5930328,2.559377,-4.2335544,-19.536177,28.32082,14.29873
1.5430101,2.47901,-4.1006165,-18.922722,27.431519,13.849736
1.4945841,2.4012086,-3.9719226,-18.32885,26.570604,13.415075
1.4477016,2.325887,-3.84733,-17.753906,25.737131,12.994267
1.4023112,2.2529624,-3.7267034,-17.19726,24.930185,12.586853
1.3583635,2.1823556,-3.6099105,-16.658308,24.148886,12.192388
1.3158109,2.1139903,-3.496825,-16.136463,23.392387,11.810444
1.2746074,2.0477927,-3.3873248,-15.631164,22.659876,11.44061
1.2347089,1.9836915,-3.281293,-15.141868,21.950563,11.082489
1.1960727,1.9216182,-3.1786153,-14.668051,21.26369,10.735699
1.1586576,1.8615068,-3.0791829,-14.20921,20.598528,10.399868
1.1224239,1.8032935,-2.9828904,-13.764858,19.954367,10.074642
1.0873333,1.7469168,-2.8896356,-13.334524,19.33053,9.759676
1.0533489,1.6923171,-2.7993205,-12.917756,18.726357,9.454639
1.0204349,1.6394374,-2.7118502,-12.514115,18.141216,9.15921
0.9885569,1.588222,-2.6271331,-12.123179,17.574492,8.87308
0.95768166,1.5386176,-2.545081,-11.74454,17.025593,8.595951
0.927777,1.4905726,-2.465608,-11.377804,16.49395,8.327532
0.89881176,1.4440368,-2.3886313,-11.022588,15.979008,8.067546
0.8707559,1.3989621,-2.314072,-10.678526,15.480234,7.8157234
0.84358054,1.355302,-2.241852,-10.34526,14.997112,7.5718026
0.8172575,1.3130113,-2.1718976,-10.022448,14.529143,7.335533
0.7917598,1.2720464,-2.1041362,-9.709756,14.075847,7.1066704
0.76706105,1.2323654,-2.0384982,-9.406862,13.636754,6.8849797
0.743136,1.1939272,-1.9749163,-9.113457,13.211416,6.6702337
0.7199601,1.1566926,-1.9133253,-8.829239,12.7993965,6.4622116
0.6975096,1.1206235,-1.8536623,-8.553917,12.400273,6.2607007
0.6757616,1.085683,-1.7958659,-8.28721,12.013639,6.065495
0.65469384,1.0518354,-1.7398775,-8.028846,11.639099,5.876395
0.6342849,1.0190463,-1.6856399,-7.7785606,11.27627,5.693209
0.61451405,0.9872823,-1.6330979,-7.5361,10.924785,5.5157495
0.59536105,0.95651096,-1.5821979,-7.301217,10.584284,5.3438363
0.5768065,0.92670107,-1.5328884,-7.0736732,10.254423,5.1772947
0.5588316,0.89782244,-1.4851192,-6.8532376,9.934866,5.0159554
0.541418,0.86984575,-1.438842,-6.6396866,9.625289,4.859655
0.52454823,0.8427426,-1.3940098,-6.4328036,9.325379,4.7082353
0.5082051,0.81648564,-1.3505772,-6.2323794,9.034832,4.561543
0.4923721,0.7910482,-1.3085003,-6.038211,8.753354,4.419429
0.4770332,0.7664046,-1.2677366,-5.8501024,8.48066,4.28175
0.46217293,0.74253005,-1.2282448,-5.6678634,8.2164755,4.148368
0.4477763,0.7194003,-1.189985,-5.4913096,7.960533,4.0191464
0.43382874,0.6969921,-1.1529188,-5.320264,7.712575,3.893956
0.4203162,0.6752828,-1.1170087,-5.1545525,7.47235,3.7726703
0.40722507,0.65425044,-1.0822184,-4.9940095,7.239617,3.655167
0.39454216,0.633874,-1.0485129,-4.8384724,7.014141,3.541328
0.3822547,0.6141329,-1.0158585,-4.6877847,6.7956953,3.4310381
0.37035027,0.5950072,-0.984222,-4.541795,6.5840597,3.3241868
0.35881698,0.5764777,-0.95357174,-4.4003563,6.379021,3.2206662
0.34764317,0.55852574,-0.9238768,-4.2633257,6.180374,3.1203723
0.3368176,0.54113334,-0.89510745,-4.1305666,5.987918,3.0232043
0.3263294,0.524283,-0.86723465,-4.0019445,5.8014603,2.9290648
0.31616807,0.5079577,-0.84023046,-3.877331,5.6208124,2.8378587
0.30632338,0.49214113,-0.8140677,-3.7566001,5.445794,2.7494946
0.2967854,0.47681737,-0.78872013,-3.6396313,5.276229,2.6638837
0.2875446,0.46197104,-0.76416236,-3.5263066,5.1119466,2.5809402
0.2785917,0.44758725,-0.7403696,-3.4165125,4.9527826,2.5005808
0.2699177,0.43365154,-0.71731806,-3.310139,4.798577,2.422725
0.26151392,0.42014995,-0.6949846,-3.207079,4.6491747,2.3472943
0.2533719,0.40706894,-0.6733469,-3.1072292,4.5044265,2.2742133
0.24548349,0.39439538,-0.6523831,-3.0104897,4.3641872,2.2034085
0.23784079,0.38211656,-0.63207227,-2.9167633,4.228316,2.1348093
0.23043612,0.37022018,-0.61239403,-2.825956,4.0966763,2.0683465
0.22326207,0.35869431,-0.5933287,-2.737977,3.9691365,2.0039537
0.21631144,0.34752738,-0.5748571,-2.6527379,3.8455687,1.9415663
0.20957728,0.33670822,-0.55696076,-2.5701535,3.7258492,1.8811219
0.20305282,0.326226,-0.5396217,-2.4901407,3.609858,1.8225597
0.19673154,0.3160702,-0.5228227,-2.4126196,3.4974787,1.7658212
0.19060712,0.30623063,-0.50654674,-2.3375125,3.388599,1.7108495
0.18467338,0.29669747,-0.49077755,-2.2647443,3.2831097,1.6575897
0.17892441,0.28746113,-0.47549945,-2.1942418,3.1809049,1.6059881
0.17335446,0.27851242,-0.46069705,-2.1259346,3.0818827,1.5559934
0.16795795,0.26984233,-0.44635555,-2.0597541,2.9859438,1.5075554
0.16272944,0.26144218,-0.4324606,-1.9956344,2.892992,1.4606255
0.15766375,0.2533036,-0.41899827,-1.9335111,2.8029342,1.4151568
0.15275577,0.2454184,-0.4059551,-1.873322,2.7156806,1.3711038
0.14800058,0.23777871,-0.39331803,-1.815007,2.6311433,1.3284223
0.14339346,0.23037687,-0.38107437,-1.7585074,2.5492382,1.2870697
0.13892977,0.22320548,-0.3692119,-1.7037668,2.469883,1.2470046
0.13460505,0.21625735,-0.3577188,-1.6507306,2.3929985,1.2081867
0.13041496,0.20952554,-0.3465835,-1.5993456,2.3185077,1.1705775
0.12635534,0.20300332,-0.33579484,-1.5495602,2.2463357,1.1341391
0.12242209,0.19668414,-0.32534206,-1.5013248,2.1764107,1.0988351
0.11861129,0.19056168,-0.3152147,-1.4545909,2.1086626,1.0646302
0.114919126,0.18462983,-0.3054026,-1.4093121,2.0430236,1.0314901
0.11134191,0.17888264,-0.29589596,-1.3654428,1.9794282,0.9993817
0.10787605,0.17331436,-0.28668532,-1.3229392,1.9178123,0.96827286
0.104518086,0.16791944,-0.27776137,-1.2817588,1.8581147,0.93813246
0.101264656,0.16269246,-0.26911524,-1.2418603,1.8002754,0.90893036
0.0981125,0.1576282,-0.26073825,-1.2032038,1.7442367,0.88063735
0.09505848,0.15272157,-0.25262207,-1.1657507,1.6899426,0.85322505
0.092099525,0.1479677,-0.2447585,-1.1294637,1.6373385,0.8266661
0.08923268,0.1433618,-0.23713975,-1.0943061,1.586372,0.80093396
0.086455084,0.13889931,-0.22975816,-1.060243,1.5369921,0.77600276
0.08376395,0.13457571,-0.22260636,-1.0272402,1.4891493,0.75184774
0.08115659,0.13038671,-0.21567717,-0.99526477,1.4427958,0.7284446
0.078630395,0.1263281,-0.20896369,-0.9642847,1.3978852,0.70576996
