ax,ay,az,gx,gy,gz
0.05636415,0.15181956,0.48273167,-25.468412,-3.939127,-9.488268
-0.013850001,0.0018184347,0.3418253,-24.559116,0.38058308,-14.535355
-0.1825911,-0.05596959,0.059757903,-17.884733,0.6916035,-17.570091
-0.21745388,-0.10077683,-0.1318672,-11.205467,-3.1833594,-15.793989
-0.09720384,-0.091350086,-0.063427575,-9.933923,-7.6613874,-11.690186
-0.064568594,-0.093609005,-0.033899613,-11.81506,-11.130653,-8.907111
-0.051927444,-0.17930117,-0.027633943,-11.827469,-12.416819,-8.175903
-0.03220705,-0.24096517,-0.027805608,-11.7217245,-12.935086,-7.8847485
0.04134234,-0.2886374,0.018379316,-11.81743,-12.661097,-7.066883
0.07125741,-0.34847236,0.016507003,-10.6508665,-12.167116,-6.1604505
0.061066397,-0.37799656,0.007412011,-8.848987,-11.721064,-5.85344
0.035990104,-0.37713534,0.0022073248,-6.898222,-11.426414,-6.0064096
-0.014113107,-0.35307455,-0.012159083,-5.22473,-12.105471,-6.317583
-0.0400048,-0.345937,0.01713133,-3.7006934,-12.8645735,-6.5856247
-0.058173083,-0.33229733,0.06392215,-2.6364722,-13.845002,-6.7543297
-0.081174664,-0.30525035,0.13872012,-1.7129039,-14.903206,-7.1191063
-0.07537763,-0.2770042,0.2597973,-0.4397519,-15.791237,-7.7298007
-0.07080493,-0.24600473,0.4097706,1.619649,-16.780832,-8.934476
-0.03887102,-0.16863889,0.6758588,4.258811,-17.500713,-10.570915
0.122957796,0.009745507,1.0972762,6.8984056,-17.17477,-12.790266
0.4719681,0.26919118,1.6719022,8.646433,-15.143335,-15.189192
0.9411474,0.51272184,2.2876348,8.565144,-11.136236,-17.169266
1.446526,0.7064504,2.8306668,5.491777,-4.662009,-17.95637
1.9180588,0.80751497,3.1731296,0.6904223,2.6364474,-17.673172
2.3668208,0.8018994,3.349957,-4.999118,10.768259,-16.219784
2.7944565,0.7105728,3.3841562,-10.939978,20.051168,-13.736084
3.187658,0.5964933,3.2860801,-16.215942,30.641453,-10.605704
3.4821775,0.5018236,3.033902,-20.551449,41.582756,-6.964564
3.612481,0.42190462,2.6232057,-24.213583,51.659332,-3.0427103
3.6254175,0.34594104,2.1346412,-26.877827,60.44231,1.0732436
3.5636506,0.29119298,1.6328315,-28.790415,67.77717,5.1591463
3.4492064,0.2781646,1.1370823,-29.650444,73.97476,8.935169
3.263102,0.3141366,0.6258151,-28.920609,78.83812,11.6357975
2.9395494,0.42903408,0.06604522,-27.403402,82.01115,13.168671
2.5468268,0.56771314,-0.5114744,-25.57359,82.87472,13.697813
2.1308348,0.72452337,-1.0654826,-23.777866,81.378685,13.31335
1.7394931,0.8846056,-1.5670645,-22.211382,78.10914,12.126509
1.4101944,1.0173266,-2.0031502,-20.722113,73.50444,10.222636
1.113709,1.09961,-2.4253018,-18.912088,67.94406,7.8758407
0.8173542,1.1535221,-2.843347,-16.560102,61.1255,5.0391493
0.5384492,1.1905779,-3.2476792,-13.971684,52.906113,1.7629669
0.27829632,1.2031479,-3.6435635,-11.535083,43.095844,-1.8032954
0.055005074,1.1838336,-4.0267015,-8.121044,31.54695,-5.951918
-0.11013126,1.1478283,-4.3715863,-3.4645696,19.367048,-10.523215
-0.22384469,1.1157035,-4.6999445,2.6425877,6.555061,-15.267025
-0.3241383,1.1008756,-5.0617623,10.311384,-8.057102,-20.115261
-0.36265334,1.159488,-5.388809,18.272684,-24.032085,-25.102705
-0.27832684,1.2931986,-5.66337,25.07327,-41.62324,-29.761972
0.07916389,1.3365598,-5.7962575,31.428932,-58.489483,-33.751972
0.63051367,1.2840905,-5.726948,38.599434,-72.18808,-35.432316
1.2908092,1.3096865,-5.4718027,45.655304,-81.86177,-34.18581
1.9186223,1.5175451,-5.1500525,50.889053,-89.577835,-31.87086
2.4435952,1.7828801,-4.7756233,51.929417,-94.93504,-30.916254
2.8598578,1.8898901,-4.422752,53.160088,-97.95919,-31.213615
3.216581,1.9988174,-4.040997,53.754593,-98.579994,-32.13683
3.5897086,2.133403,-3.5998676,52.822582,-97.20199,-32.770264
3.9758341,2.274558,-3.1655161,51.057518,-93.73671,-32.557697
4.3131704,2.4449584,-2.793298,48.6661,-88.78242,-31.67071
4.606243,2.6360111,-2.4411435,44.82697,-83.13822,-30.596153
4.865971,2.7892334,-2.124238,40.006977,-76.686615,-29.249653
5.107055,2.9229228,-1.8300058,34.2467,-69.041016,-27.706757
5.3336744,3.0322347,-1.579119,28.247107,-60.07914,-25.945019
5.555485,3.1499622,-1.3615168,21.282436,-49.2709,-23.35688
5.705919,3.3058949,-1.2870812,13.906956,-38.46011,-20.409437
5.786679,3.4643245,-1.3038735,6.105208,-28.46037,-17.296112
5.888186,3.5815763,-1.3286979,-2.9039671,-18.707895,-13.569816
6.0561757,3.6362638,-1.3525193,-12.986304,-7.872307,-7.857488
6.1799107,3.7091305,-1.4983166,-24.00702,3.784439,0.53997904
6.080972,3.7646012,-1.8832769,-34.12902,14.489917,8.813074
5.845871,3.732153,-2.344161,-42.462402,23.877705,15.879046
5.5346413,3.6710794,-2.8010886,-48.584507,31.77506,21.84674
5.164838,3.5885992,-3.2107723,-52.85585,38.4633,26.593708
4.796018,3.519324,-3.5418806,-55.189377,44.581593,29.987925
4.3808947,3.472819,-3.8678553,-55.800648,50.024128,31.952093
3.9002638,3.3970487,-4.229951,-54.452526,53.82817,32.556305
3.398874,3.321036,-4.575515,-52.09199,55.282692,32.29864
2.9546852,3.2529724,-4.869245,-49.414856,54.739056,31.769611
2.5468655,3.1985877,-5.1337757,-46.105797,52.0811,30.17829
2.19109,3.1586523,-5.346083,-42.060547,48.328796,27.41563
1.9014364,3.10929,-5.5150094,-37.617023,43.308548,24.136223
1.8415344,3.011336,-5.3412666,-36.43195,41.94417,23.375845
1.7835623,2.9165382,-5.173122,-35.28506,40.623756,22.639965
1.727454,2.824788,-5.0103827,-34.17504,39.34579,21.927744
1.673146,2.735982,-4.8528657,-33.100643,38.108833,21.238377
1.6205776,2.6500204,-4.7003937,-32.060654,36.91149,20.571089
1.5696899,2.566807,-4.552797,-31.053919,35.752434,19.925137
1.5204265,2.4862502,-4.409911,-30.07932,34.63038,19.299805
1.4727334,2.4082608,-4.27158,-29.135784,33.544083,18.694403
1.4265581,2.3327537,-4.1376514,-28.222279,32.492363,18.10827
1.3818506,2.2596464,-4.00798,-27.337807,31.474068,17.540768
1.3385623,2.1888597,-3.882424,-26.481413,30.488098,16.991278
1.2966464,2.1203175,-3.7608495,-25.65217,29.533392,16.459211
1.2560579,2.053946,-3.643125,-24.84919,28.60892,15.9439945
1.2167536,1.9896744,-3.5291252,-24.071615,27.713694,15.445079
1.1786915,1.9274341,-3.4187284,-23.318615,26.846764,14.961931
1.1418313,1.8671591,-3.3118174,-22.589392,26.007208,14.49404
1.106134,1.8087858,-3.2082794,-21.883175,25.19414,14.040909
1.0715619,1.7522525,-3.108005,-21.19922,24.406702,13.602063
1.0380789,1.6974999,-3.0108893,-20.536808,23.644066,13.17704
1.0056498,1.6444707,-2.9168305,-19.895247,22.905436,12.765394
0.97424066,1.5931095,-2.82573,-19.273867,22.190039,12.366697
0.94381887,1.5433629,-2.7374935,-18.672018,21.497128,11.980534
0.9143528,1.495179,-2.6520288,-18.089077,20.825987,11.606501
0.8858119,1.448508,-2.5692475,-17.524437,20.175919,11.244211
0.85816664,1.4033016,-2.489064,-16.977518,19.54625,10.893291
0.8313885,1.3595132,-2.4113955,-16.447754,18.936329,10.553378
0.80544984,1.3170974,-2.3361619,-15.934598,18.345531,10.224121
0.7803241,1.276011,-2.2632859,-15.437522,17.773249,9.905183
0.7559853,1.2362114,-2.1926928,-14.9560175,17.218891,9.596234
0.7324087,1.1976582,-2.12431,-14.48959,16.68189,9.296961
0.70957005,1.1603117,-2.0580678,-14.037761,16.161701,9.007053
0.687446,1.1241337,-1.9938983,-13.600071,15.657786,8.726218
0.66601396,1.0890874,-1.931736,-13.176071,15.169635,8.454167
0.64525217,1.055137,-1.8715175,-12.76533,14.696749,8.190623
0.6251394,1.022248,-1.8131816,-12.36743,14.238646,7.9353185
0.60565525,0.99038684,-1.7566689,-11.981966,13.794859,7.6879926
0.5867799,0.95952123,-1.7019219,-11.608545,13.36494,7.448395
0.56849414,0.92961985,-1.6488853,-11.24679,12.94845,7.216282
0.5507795,0.90065235,-1.597505,-10.896333,12.544969,6.991418
0.53361803,0.8725893,-1.547729,-10.556819,12.154085,6.773576
0.51699233,0.8454024,-1.4995071,-10.227904,11.775406,6.5625343
0.50088555,0.8190641,-1.4527903,-9.909257,11.4085455,6.35808
0.48528144,0.79354775,-1.4075314,-9.6005535,11.053135,6.1600065
0.4701642,0.7688276,-1.3636848,-9.301482,10.708814,5.9681134
0.45551863,0.7448787,-1.3212061,-9.011742,10.375236,5.782207
0.44132993,0.7216768,-1.2800525,-8.73104,10.052062,5.6021
0.42758375,0.69919866,-1.2401825,-8.459092,9.738969,5.4276104
0.41426626,0.67742145,-1.201556,-8.195626,9.43564,5.2585626
0.40136406,0.6563234,-1.1641338,-7.940376,9.141769,5.094786
0.38886413,0.6358831,-1.1278784,-7.693084,8.857061,4.936116
0.3767539,0.61608005,-1.0927534,-7.453501,8.58123,4.7823925
0.36502117,0.5968943,-1.0587233,-7.221387,8.313996,4.633461
0.35365415,0.57830656,-1.0257539,-6.996508,8.055093,4.489172
0.3426414,0.5602982,-0.9938121,-6.778638,7.8042583,4.3493795
0.33197188,0.54285103,-0.9628657,-6.5675573,7.561241,4.2139444
0.32163483,0.5259476,-0.93288374,-6.3630548,7.325797,4.0827293
0.3116199,0.50957084,-0.90383595,-6.1649246,7.097689,3.955603
0.30191702,0.4937044,-0.8756933,-5.972968,6.8766894,3.8324375
0.29251644,0.47833228,-0.8484275,-5.786992,6.662575,3.7131097
0.28340873,0.46343905,-0.82201105,-5.60681,6.4551306,3.5974994
0.27458477,0.4490098,-0.79641765,-5.432241,6.254149,3.4854908
0.26603568,0.43503004,-0.77162147,-5.26311,6.0594287,3.3769712
0.25775287,0.42148575,-0.7475977,-5.0992475,5.8707733,3.271832
0.24972807,0.40836334,-0.7243222,-4.9404893,5.6879945,3.169968
0.24195322,0.39564967,-0.7017717,-4.7866755,5.5109086,3.0712764
0.23442052,0.38333195,-0.67992353,-4.637653,5.3393383,2.9756587
0.22712243,0.37139788,-0.6587558,-4.493271,5.173111,2.883019
0.22005162,0.35983545,-0.6382473,-4.353386,5.012061,2.7932644
0.21320102,0.34863314,-0.6183775,-4.217857,4.8560266,2.706305
0.20656374,0.33777967,-0.5991265,-4.086549,4.704851,2.6220539
0.20013317,0.32726416,-0.580475,-3.9593296,4.5583835,2.540426
0.19390284,0.31707612,-0.5624042,-3.836072,4.4164767,2.4613402
0.18786651,0.30720535,-0.54489625,-3.7166524,4.278989,2.384717
0.18201815,0.2976419,-0.52793336,-3.6009514,4.145782,2.3104799
0.17635189,0.28837624,-0.5114987,-3.4888532,4.016723,2.238554
0.17086205,0.2793991,-0.49557573,-3.3802452,3.8916826,2.1688678
0.16554315,0.27070147,-0.48014858,-3.275019,3.7705352,2.1013515
0.16038986,0.26227462,-0.46520174,-3.1730688,3.65316,2.0359373
0.15539701,0.2541102,-0.45072028,-3.074293,3.5394392,1.9725597
0.15055962,0.2461999,-0.43668967,-2.9785924,3.429259,1.9111553
0.14587283,0.23853593,-0.4230959,-2.8858716,3.3225093,1.8516628
0.14133196,0.23111056,-0.40992537,-2.7960374,3.219083,1.7940224
0.13693246,0.22391635,-0.39716488,-2.709,3.1188767,1.7381766
0.13266994,0.21694613,-0.38480166,-2.6246724,3.0217903,1.6840695
0.12854011,0.2101929,-0.37282333,-2.5429702,2.9277263,1.6316468
0.124538854,0.20364992,-0.36121792,-2.4638114,2.8365905,1.5808561
0.12066216,0.19731064,-0.3499738,-2.387117,2.7482922,1.5316467
0.11690616,0.1911687,-0.33907974,-2.3128102,2.6627426,1.4839692
0.11326709,0.18521796,-0.3285248,-2.2408166,2.5798564,1.437776
0.1097413,0.1794525,-0.31829846,-2.1710644,2.4995503,1.3930207
0.106325276,0.1738665,-0.30839047,-2.1034834,2.4217443,1.3496588
0.10301559,0.1684544,-0.2987909,-2.0380063,2.3463604,1.3076468
0.09980894,0.16321076,-0.2894902,-1.9745677,2.2733233,1.2669425
0.09670211,0.15813038,-0.280479,-1.9131037,2.20256,1.2275054
0.09369199,0.15320815,-0.27174833,-1.8535532,2.133999,1.189296
0.09077558,0.14843914,-0.26328945,-1.7958565,2.0675728,1.152276
0.087949954,0.14381859,-0.25509387,-1.7399558,2.0032144,1.1164085
0.08521229,0.13934186,-0.24715343,-1.6857952,1.9408592,1.0816574
0.08255985,0.1350045,-0.23946017,-1.6333206,1.8804451,1.047988
0.07998997,0.13080215,-0.23200639,-1.5824795,1.8219116,1.0153669
