ax,ay,az,gx,gy,gz
1.0400095,0.50909555,0.687279,-26.966608,30.462095,4.716407
0.4830151,0.5581261,-0.00039579096,-31.59567,20.426226,8.314491
0.0005234948,0.54935986,-0.38386583,-31.306543,9.544833,11.821006
-0.2586111,0.45575526,-0.48549387,-32.54783,-0.50178623,12.69252
-0.2095582,0.36484462,-0.36227632,-32.3399,-4.4250975,13.487963
0.011959664,0.25928777,-0.18995559,-30.705042,-2.9654605,13.932475
0.043079965,0.19088036,-0.21408284,-26.810438,-0.8695878,13.66879
-0.057336956,0.20723192,-0.31284565,-23.48728,-0.05469772,12.8101425
-0.18107928,0.23340094,-0.41910487,-21.368258,-1.0572277,11.870926
-0.27428275,0.23692556,-0.492441,-20.428782,-3.5609791,11.0781765
-0.29822814,0.23665269,-0.49118727,-20.174253,-5.756588,10.380741
-0.27253485,0.21169819,-0.4546422,-19.919046,-6.9275312,9.733581
-0.23954357,0.17668965,-0.41971833,-18.880005,-7.1158795,8.933714
-0.22403772,0.14368084,-0.39901933,-17.38928,-7.1040273,8.03849
-0.21526887,0.121010296,-0.37689042,-15.806116,-7.3741508,7.176824
-0.17624894,0.118668154,-0.30431265,-14.952882,-8.19559,6.38228
-0.1261308,0.1102329,-0.2021807,-14.114693,-9.226783,5.805704
-0.076075196,0.11458657,-0.07319842,-13.624972,-10.788647,5.2646613
0.00088816526,0.1295958,0.10227962,-13.170364,-12.757017,4.3774743
0.14978799,0.16214176,0.35151714,-12.65354,-14.864622,3.098157
0.42304125,0.2856169,0.7353176,-13.505209,-16.338697,1.8821819
0.875403,0.3976769,1.239767,-15.800696,-15.405288,1.5501
1.4508998,0.45270282,1.782089,-18.913307,-10.587027,3.0053654
1.9648668,0.50131094,2.1630843,-22.703646,-2.3661668,5.8515615
2.3361194,0.55147487,2.3485377,-26.842194,7.8420467,8.97531
2.6337824,0.5801122,2.3885713,-31.40316,18.364191,12.628544
2.9398866,0.59257966,2.3738666,-36.59316,29.799948,17.006733
3.2623813,0.5995505,2.3031175,-42.10267,42.942905,22.091642
3.5194132,0.6462511,2.0959752,-47.712185,57.69729,27.795427
3.602538,0.7330968,1.7193457,-51.942604,71.336075,33.214176
3.4656396,0.8305421,1.2575136,-53.727146,81.58676,37.15956
3.279461,0.9423743,0.8180913,-54.675156,89.01798,40.15755
3.0806198,1.067624,0.41363877,-55.943405,93.90707,42.678513
2.856464,1.1882948,0.030604014,-57.002655,96.80376,44.457672
2.6180367,1.3032743,-0.34130502,-56.81319,97.583496,44.634502
2.3580697,1.4234778,-0.7318931,-55.81052,97.062515,43.820107
2.027613,1.5435835,-1.1831179,-54.655365,94.58948,42.20199
1.6202781,1.6505936,-1.6870308,-53.05305,89.73614,39.38171
1.1947109,1.7538569,-2.206818,-50.172333,82.421135,35.04393
0.8007255,1.8660824,-2.7133336,-47.04778,71.63625,29.23645
0.5018216,1.9606848,-3.163068,-43.172115,59.776863,22.719671
0.24075852,2.0401864,-3.6136417,-38.065727,46.834522,15.853211
-0.018109068,2.106819,-4.1002564,-32.05444,31.786367,8.754378
-0.24648125,2.2016323,-4.5895543,-25.339674,14.4895935,1.365245
-0.4066637,2.3694396,-5.042587,-18.424168,-4.620342,-6.7983108
-0.42696932,2.6281374,-5.4849324,-11.3976965,-26.165754,-16.481812
-0.22543167,2.8502429,-5.8241577,-4.7516584,-47.8821,-26.791874
0.29189745,2.937111,-5.89388,1.0487802,-67.251045,-36.609875
0.9877332,2.968133,-5.717889,8.142363,-81.79724,-43.42954
1.6981099,3.0451596,-5.3585386,14.268931,-90.90212,-47.151188
2.3428707,3.2652247,-4.9190874,16.970186,-97.412636,-49.459816
2.9915907,3.4182253,-4.4673095,16.222424,-100.409515,-51.558773
3.6584783,3.4600437,-3.968764,14.514168,-99.80165,-53.068184
4.307484,3.4627364,-3.495976,11.968701,-95.684105,-52.56172
4.8354897,3.4199774,-3.1124249,9.861627,-87.6414,-49.196854
5.179513,3.4159188,-2.8642733,6.9922013,-79.06291,-45.115906
5.401952,3.4017818,-2.687648,2.675931,-70.61858,-41.12756
5.57542,3.3442397,-2.5268104,-2.484514,-61.739246,-37.30331
5.7861247,3.2676547,-2.3259318,-8.349427,-51.37941,-33.472504
6.037192,3.2217057,-2.1508877,-14.16102,-38.85486,-28.851383
6.2164555,3.203168,-2.113959,-18.929062,-24.499935,-24.242525
6.3275967,3.196294,-2.1739929,-22.847996,-10.182848,-19.795006
6.3937325,3.2074344,-2.2574387,-28.283657,3.0151215,-15.289074
6.442913,3.2201889,-2.3532858,-35.155163,15.735556,-10.187025
6.4660816,3.231444,-2.5086782,-41.749504,28.412014,-4.3999968
6.346055,3.2550619,-2.795808,-46.435295,40.46371,0.62899315
6.076433,3.2433624,-3.1917353,-49.29544,50.369247,4.450526
5.647679,3.1619663,-3.6509714,-50.752735,57.025047,7.3404922
5.1668434,3.0613015,-4.0678797,-51.652252,60.675495,9.566049
4.7230153,2.9560652,-4.4140797,-51.56414,62.016228,11.501102
4.2903123,2.8303914,-4.732602,-50.429558,62.095757,13.241493
3.8461175,2.7603333,-5.0341644,-48.278854,60.870487,14.008165
3.3982205,2.7444139,-5.3126755,-45.48795,58.129383,13.390858
2.9796338,2.7130659,-5.5698657,-42.022408,53.722836,11.802777
2.885242,2.6271186,-5.393418,-40.69118,52.02095,11.428877
2.7939386,2.5439837,-5.222744,-39.40351,50.374752,11.067211
2.7056143,2.463561,-5.057638,-38.157856,48.78226,10.717345
2.6201632,2.3857548,-4.897903,-36.95272,47.241577,10.37886
2.5374846,2.310473,-4.743351,-35.786686,45.75088,10.051358
2.4574819,2.2376275,-4.593801,-34.65839,44.30843,9.734456
2.3800626,2.1671343,-4.44908,-33.56653,42.912556,9.427786
2.3051374,2.098912,-4.3090215,-32.509842,41.561653,9.130996
2.232621,2.0328834,-4.1734657,-31.48713,40.254185,8.843747
2.1624315,1.9689733,-4.0422597,-30.497232,38.988667,8.565717
2.0944903,1.9071102,-3.9152563,-29.539042,37.763683,8.296591
2.028721,1.8472251,-3.7923133,-28.611486,36.57787,8.03607
1.9650515,1.7892516,-3.673295,-27.713541,35.429905,7.783865
1.9034113,1.7331259,-3.5580702,-26.844215,34.31853,7.5396986
1.8437328,1.6787865,-3.4465125,-26.002558,33.242527,7.3033032
1.7859513,1.6261742,-3.3385005,-25.18765,32.200726,7.0744214
1.7300038,1.575232,-3.2339175,-24.398613,31.191992,6.8528056
1.6758304,1.525905,-3.1326501,-23.634592,30.215242,6.638216
1.6233724,1.4781402,-3.03459,-22.894768,29.269426,6.4304223
1.5725743,1.4318866,-2.9396322,-22.178349,28.353533,6.229203
1.5233815,1.3870947,-2.8476758,-21.484573,27.466589,6.0343432
1.4757421,1.3437173,-2.758623,-20.812706,26.607649,5.8456364
1.4296057,1.3017085,-2.6723795,-20.162033,25.775808,5.6628833
1.3849236,1.2610238,-2.5888546,-19.531872,24.97019,5.485891
1.3416489,1.2216206,-2.5079608,-18.92156,24.189947,5.314473
1.2997364,1.1834577,-2.429613,-18.33046,23.434263,5.1484513
1.2591422,1.1464952,-2.35373,-17.75795,22.702349,4.9876513
1.219824,1.1106945,-2.280232,-17.203438,21.993443,4.8319063
1.181741,1.0760186,-2.209043,-16.666346,21.306807,4.681054
1.1448538,1.0424314,-2.1400893,-16.146116,20.64173,4.534938
1.1091241,1.0098982,-2.0732994,-15.642214,19.997522,4.3934073
1.0745151,0.97838545,-2.0086043,-15.154116,19.373522,4.256316
1.0409912,0.94786066,-1.9459375,-14.681319,18.769083,4.1235223
1.0085177,0.9182924,-1.8852345,-14.22334,18.183588,3.9948902
0.9770615,0.88965034,-1.8264331,-13.779706,17.61643,3.8702874
0.94659024,0.86190516,-1.7694727,-13.349963,17.067034,3.7495863
0.9170727,0.8350284,-1.7142953,-12.933672,16.534834,3.632663
0.8884789,0.8089926,-1.6608444,-12.530406,16.019285,3.5193985
0.8607794,0.7837712,-1.6090655,-12.139755,15.519863,3.4096766
0.8339461,0.75933856,-1.5589057,-11.761319,15.036059,3.303386
0.8079517,0.7356697,-1.510314,-11.394714,14.567379,3.2004182
0.7827697,0.71274054,-1.463241,-11.039568,14.113348,3.1006684
0.7583745,0.69052786,-1.4176388,-10.695518,13.673502,3.0040355
0.7347414,0.66900903,-1.3734611,-10.362215,13.247397,2.9104211
0.7118464,0.6481623,-1.3306632,-10.039322,12.8346,2.8197308
0.68966633,0.6279665,-1.2892017,-9.726511,12.434692,2.731872
0.6681787,0.6084012,-1.2490345,-9.423466,12.04727,2.6467562
0.6473617,0.5894466,-1.2101212,-9.12988,11.67194,2.5642972
0.6271944,0.57108355,-1.1724223,-8.845456,11.308324,2.4844115
0.6076564,0.55329347,-1.1358997,-8.569908,10.956053,2.4070184
0.58872795,0.5360584,-1.1005164,-8.302956,10.614773,2.33204
0.57039,0.519361,-1.066237,-8.044332,10.284139,2.2594006
0.552624,0.5031844,-1.0330267,-7.793773,9.963818,2.1890266
0.535412,0.48751226,-1.0008522,-7.551029,9.653485,2.1208475
0.5187367,0.47232884,-0.9696809,-7.3158545,9.35283,2.054794
0.50258136,0.4576188,-0.93948156,-7.088012,9.061549,1.9908004
0.48692968,0.44336736,-0.91022366,-6.8672733,8.779348,1.9288018
0.4717659,0.42956018,-0.8818778,-6.653415,8.505945,1.8687358
0.4570748,0.41618338,-0.85441554,-6.4462233,8.241064,1.810542
0.44284156,0.40322348,-0.82780915,-6.2454886,7.984439,1.754162
0.42905188,0.3906675,-0.80203193,-6.05101,7.735811,1.6995391
0.41569194,0.3785028,-0.77705806,-5.8625917,7.494931,1.6466182
0.4027483,0.3667171,-0.75286233,-5.680045,7.261557,1.5953466
0.39020795,0.35529867,-0.72942054,-5.5031857,7.0354548,1.5456724
0.37805834,0.344236,-0.7067091,-5.331837,6.8163967,1.497546
0.36628723,0.33351797,-0.6847052,-5.165827,6.604163,1.4509188
0.3548828,0.32313383,-0.66338676,-5.0049877,6.3985415,1.4057442
0.34383366,0.31307316,-0.6427325,-4.8491592,6.199325,1.3619769
0.3331287,0.3033259,-0.62272155,-4.698185,6.0063148,1.3195728
0.32275715,0.29388225,-0.6033339,-4.551913,5.819316,1.2784897
0.31270868,0.28473273,-0.58455014,-4.410197,5.6381416,1.2386861
0.30297315,0.27586818,-0.5663514,-4.272895,5.46261,1.2001222
0.29354084,0.2672797,-0.5487195,-4.139869,5.2925453,1.1627594
0.28440228,0.25895873,-0.5316367,-4.010986,5.127777,1.1265602
0.27554834,0.25089687,-0.5150859,-3.8861167,4.96814,1.0914884
0.2669701,0.24308607,-0.49905047,-3.7651362,4.813474,1.0575087
0.258659,0.23551852,-0.48351443,-3.647923,4.6636252,1.0245872
0.25060672,0.2281866,-0.46846217,-3.5343597,4.518442,0.99269086
0.24280515,0.221083,-0.45387864,-3.4243326,4.37778,0.9617877
0.23524651,0.21420059,-0.4397492,-3.3177316,4.2414975,0.93184686
0.22792324,0.20753248,-0.42605972,-3.2144501,4.109459,0.90283823
0.220828,0.20107199,-0.41279647,-3.1143842,3.9815316,0.8747329
0.21395366,0.19481267,-0.3999462,-3.0174341,3.8575873,0.84750265
0.20729338,0.18874823,-0.38749605,-2.9235027,3.737502,0.8211202
0.20084044,0.18287261,-0.3754335,-2.8324957,3.621156,0.7955592
0.19458844,0.17717992,-0.36374655,-2.744322,3.508432,0.77079403
0.18853107,0.17166446,-0.35242343,-2.6588938,3.3992176,0.74679995
0.1826623,0.16632073,-0.34145287,-2.5761251,3.2934034,0.7235528
0.17697623,0.16114335,-0.33082384,-2.4959335,3.1908836,0.7010295
0.17146719,0.15612717,-0.32052574,-2.4182384,3.0915556,0.6792073
0.16612966,0.15126716,-0.31054822,-2.342962,2.9953198,0.65806454
0.1609583,0.14655843,-0.30088133,-2.270029,2.9020803,0.63758004
0.15594794,0.14199632,-0.29151538,-2.1993668,2.8117433,0.61773324
0.15109354,0.13757622,-0.28244102,-2.1309044,2.7242186,0.59850425
0.14639027,0.13329372,-0.27364916,-2.0645733,2.6394186,0.5798739
0.14183344,0.12914455,-0.26513097,-2.000307,2.5572586,0.56182355
0.13741845,0.12512454,-0.256878,-1.9380416,2.4776564,0.5443351
0.13314089,0.12122967,-0.2488819,-1.8777144,2.400532,0.5273911
0.1289965,0.117456056,-0.24113475,-1.8192651,2.3258085,0.5109745
0.12498113,0.11379991,-0.23362876,-1.7626355,2.2534113,0.49506906
0.121090755,0.11025757,-0.22635643,-1.7077687,2.1832678,0.4796587
0.117321484,0.106825516,-0.21931049,-1.6546099,2.1153078,0.46472803
0.113669544,0.1035003,-0.21248388,-1.6031058,2.0494635,0.4502622
0.11013129,0.100278586,-0.20586978,-1.5532051,1.9856687,0.43624663
0.106703185,0.097157165,-0.19946156,-1.5048577,1.9238598,0.42266735
0.10338178,0.094132915,-0.19325285,-1.4580153,1.8639749,0.4095108
