ax,ay,az,gx,gy,gz
0.69182444,0.2218202,0.48727718,29.907543,-14.204675,-16.201965
0.46463335,0.57449144,0.29846418,27.057535,-11.449898,-22.295996
0.30833954,0.20010649,0.2592111,31.52901,-12.38485,-23.059315
0.40275216,0.023329306,0.4160811,18.954464,-11.160849,-18.998123
0.46199343,-0.012448391,0.43500665,9.229463,-10.1388235,-14.575247
0.40936872,-0.031736504,0.3851931,4.075865,-9.61243,-11.284439
0.29285064,-0.054467745,0.32607645,0.15773545,-8.797967,-9.186
0.21219206,-0.0042683627,0.2892468,-3.0144098,-7.76902,-8.507154
0.14100528,0.036572173,0.25402996,-5.50953,-6.298608,-8.525125
0.04860814,0.048942097,0.15602742,-7.255028,-5.5699677,-8.3716955
-0.037634943,0.008652578,0.05528756,-8.297656,-5.7962565,-7.66479
-0.07936452,-0.02508953,-0.012970522,-9.212891,-6.427479,-6.5995245
-0.0810188,-0.027647678,-0.015377877,-9.795389,-6.602123,-5.825796
-0.05083804,-0.024521062,0.0058961515,-9.747313,-6.106482,-5.406754
-0.040810794,-0.037350718,0.0054793227,-9.088413,-5.450398,-5.1065297
-0.036475036,-0.05278086,-0.0038516652,-8.464087,-5.1061773,-4.8261886
-0.05850765,-0.07409463,-0.031900585,-7.4136496,-5.3403373,-4.596965
-0.086321555,-0.08409843,-0.043311417,-6.7565603,-6.0901217,-4.392166
-0.09687385,-0.0883908,-0.018027546,-6.3286934,-6.9877763,-4.2115207
-0.097048245,-0.09093516,0.04278104,-6.2956853,-7.738616,-4.16385
-0.09081241,-0.11485067,0.123771265,-5.940998,-8.24439,-4.3107157
-0.07966484,-0.14189543,0.251184,-4.9516826,-8.86181,-4.669788
-0.050192453,-0.17033492,0.4880933,-3.0686083,-9.609398,-5.370406
0.053730357,-0.15550166,0.8603152,-0.0037173426,-9.575358,-6.590151
0.30899563,-0.029770661,1.3351258,3.0533292,-8.29164,-8.39487
0.7432689,0.14272808,1.8936294,3.5941017,-4.2781606,-9.751044
1.3283844,0.29209533,2.4687777,2.3522038,2.4470534,-10.032011
1.8329806,0.41124815,2.864408,-0.8800934,10.570937,-9.63089
2.2399354,0.44710967,3.0526228,-5.3210106,19.420269,-8.761435
2.6001933,0.38198394,3.0746694,-10.194246,29.128536,-7.103677
2.9516737,0.30097705,3.00581,-15.699645,40.839077,-4.016291
3.2241004,0.28307477,2.7557833,-20.636223,53.030136,-0.41077822
3.320266,0.30124116,2.3379362,-24.24868,63.76848,3.0571635
3.2656019,0.3881575,1.846055,-27.343267,72.36462,6.080096
3.1465876,0.51879287,1.3346714,-30.178186,78.81749,8.456066
3.023861,0.63951284,0.83130217,-32.251163,83.80639,10.014364
2.912555,0.7224757,0.32711875,-33.300613,88.250046,11.216912
2.7488096,0.7841583,-0.22034086,-33.068886,91.1266,12.3761425
2.4813838,0.84006315,-0.80474854,-31.56721,91.875374,13.184126
2.1168094,0.920798,-1.4209636,-29.48003,89.5425,13.224271
1.7508496,1.016533,-2.016765,-26.980717,84.00454,12.047179
1.4159987,1.1225487,-2.562193,-23.628649,77.01745,9.990506
1.1071609,1.2247285,-3.0863748,-19.252836,68.61395,7.158817
0.78778154,1.3136901,-3.612279,-14.126214,58.149143,3.7913082
0.4790109,1.3959881,-4.1221275,-8.083856,45.7593,-0.27217075
0.23138274,1.4805002,-4.6019497,-1.486696,30.879206,-4.8651986
0.12264426,1.5522761,-5.0325727,5.240696,14.600989,-9.213995
0.13188258,1.6390402,-5.36315,12.111421,-1.6963843,-13.457358
0.2471256,1.7028977,-5.583906,19.816294,-16.785828,-17.478848
0.43149415,1.7923074,-5.720375,27.297758,-30.983727,-21.573366
0.6662868,1.8956711,-5.8117967,34.55571,-44.877625,-26.48
1.0147492,2.0236533,-5.8089848,41.933907,-58.667233,-31.257282
1.6042938,2.1513803,-5.5487432,47.608387,-70.59094,-33.834335
2.3687272,2.278132,-5.0305524,51.06779,-79.32979,-32.832752
3.0847573,2.4956105,-4.3979945,51.525356,-84.82597,-30.206367
3.5590284,2.6422155,-3.9229727,52.783886,-88.18617,-29.366634
3.842942,2.7340844,-3.5422177,53.189705,-90.34608,-29.635303
4.134622,2.8574388,-3.1171794,51.422535,-91.237755,-29.450191
4.475247,2.9654298,-2.625138,47.5452,-89.69671,-28.312601
4.829338,3.050268,-2.1590166,43.590923,-85.75713,-26.841658
5.1711054,3.1437757,-1.7363566,40.222153,-79.4644,-25.305614
5.4264917,3.2775524,-1.4365706,36.212013,-71.93264,-24.019121
5.6816607,3.4034462,-1.1529278,31.1558,-63.453556,-22.390732
5.9864726,3.4878142,-0.86086494,24.900558,-53.315094,-20.007757
6.384003,3.5432565,-0.56528413,16.377893,-39.848576,-16.102224
6.777018,3.6214018,-0.46095255,8.5694475,-24.08627,-10.489773
6.882648,3.6603913,-0.69983995,2.3914423,-10.249853,-5.0600142
6.9265184,3.691026,-0.95423573,-4.4643555,1.449777,0.6529951
7.0272956,3.7493424,-1.1404537,-13.64522,12.565093,7.2811666
7.1706495,3.8758905,-1.3050393,-25.5336,24.954992,14.791064
7.1579247,3.9737058,-1.7167583,-34.314926,37.641422,21.067413
6.6185784,3.9529526,-2.4719117,-38.5102,46.790184,24.853304
5.934923,3.938347,-3.1917508,-41.36515,50.8765,26.667
5.288661,3.8878136,-3.769962,-43.96153,51.200615,27.24016
4.745345,3.7795088,-4.1726036,-44.958702,50.63627,26.727177
4.3097425,3.6779127,-4.438971,-44.086452,50.619614,25.699852
3.9063385,3.6267025,-4.654129,-41.971127,50.022713,24.293116
3.5281544,3.5633883,-4.836011,-38.85667,48.622112,22.617924
3.1891255,3.493987,-4.977691,-34.955414,46.092148,20.900812
2.9519024,3.439349,-5.0143056,-30.937963,43.147583,19.375887
2.8589067,3.3309972,-4.856337,-29.963308,41.78828,18.765478
2.7689073,3.2261362,-4.703458,-29.020052,40.47277,18.174734
2.6818016,3.1246467,-4.555494,-28.107122,39.199554,17.602983
2.5974908,3.0264134,-4.4122777,-27.223488,37.967194,17.049578
2.5158803,2.9313269,-4.2736483,-26.368155,36.774307,16.513897
2.4368792,2.8392804,-4.1394515,-25.540169,35.619556,15.995345
2.3604,2.750172,-4.0095387,-24.738613,34.501667,15.493346
2.2863584,2.663904,-3.8837664,-23.962605,33.41941,15.007346
2.214673,2.5803814,-3.761997,-23.211296,32.371597,14.536815
2.1452665,2.4995136,-3.644098,-22.483866,31.35709,14.081239
2.078063,2.421213,-3.5299416,-21.779528,30.374786,13.640124
2.0129902,2.3453948,-3.4194047,-21.09752,29.423626,13.2129965
1.9499785,2.2719777,-3.3123684,-20.437115,28.50259,12.799395
1.8889601,2.2008836,-3.2087183,-19.7976,27.610693,12.398879
1.8298703,2.1320362,-3.1083443,-19.178299,26.746984,12.011022
1.7726464,2.065363,-3.0111399,-18.578552,25.91055,11.635411
1.7172278,2.000793,-2.917002,-17.997726,25.100502,11.27165
1.6635561,1.9382585,-2.8258314,-17.435211,24.31599,10.919357
1.611575,1.8776939,-2.7375329,-16.890413,23.55619,10.57816
1.5612301,1.8190355,-2.6520135,-16.362764,22.820305,10.247704
1.5124687,1.7622222,-2.569184,-15.851711,22.107565,9.92764
1.4652401,1.7071948,-2.4889584,-15.356724,21.41723,9.617639
1.4194953,1.6538961,-2.411253,-14.877286,20.748585,9.317375
1.3751867,1.6022708,-2.3359873,-14.412902,20.100931,9.02654
1.3322686,1.5522656,-2.2630837,-13.96309,19.473602,8.744831
1.2906966,1.5038289,-2.1924665,-13.527387,18.86595,8.471958
1.250428,1.4569107,-2.1240635,-13.105344,18.277348,8.20764
1.2114213,1.4114628,-2.0578039,-12.696527,17.707191,7.951605
1.1736363,1.3674384,-1.9936198,-12.300514,17.154894,7.70359
1.1370345,1.3247926,-1.9314455,-11.916903,16.61989,7.4633408
1.1015785,1.2834817,-1.8712174,-11.545299,16.101633,7.230612
1.0672318,1.2434634,-1.8128737,-11.185322,15.599592,7.0051646
1.0339594,1.2046968,-1.756355,-10.836605,15.113255,6.78677
1.0017276,1.1671425,-1.7016038,-10.498793,14.642126,6.5752044
0.97050333,1.1307622,-1.6485641,-10.171542,14.185725,6.3702526
0.940255,1.095519,-1.5971822,-9.854518,13.743588,6.1717067
0.91095173,1.0613769,-1.5474057,-9.5474,13.315267,5.979364
0.8825639,1.0283014,-1.4991841,-9.249876,12.900326,5.7930303
0.85506266,0.99625885,-1.4524686,-8.961644,12.498343,5.6125154
0.82842016,0.96521693,-1.4072118,-8.682412,12.108913,5.437638
0.8026094,0.935144,-1.3633679,-8.411898,11.731641,5.2682195
0.7776043,0.90600985,-1.3208925,-8.149827,11.366144,5.1040893
0.7533796,0.8777849,-1.2797426,-7.8959355,11.012054,4.9450817
0.72991073,0.8504406,-1.2398769,-7.649966,10.669013,4.791035
0.70717406,0.82394946,-1.2012547,-7.4116697,10.336674,4.6417947
0.68514663,0.7982847,-1.1638376,-7.1808076,10.014703,4.49721
0.66380626,0.7734204,-1.1275873,-6.9571457,9.702773,4.357135
0.64313143,0.74933153,-1.0924675,-6.740459,9.400571,4.221428
0.6231013,0.72599375,-1.058443,-6.5305295,9.107793,4.0899525
0.60369563,0.7033837,-1.0254792,-6.327145,8.824143,3.9625764
0.584895,0.6814785,-0.9935431,-6.130101,8.549336,3.8391716
0.56668043,0.66025615,-0.96260256,-5.9392,8.283096,3.7196136
0.5490336,0.63969535,-0.9326264,-5.754249,8.025155,3.6037822
0.53193676,0.6197753,-0.9035846,-5.5750628,7.775253,3.491561
0.51537275,0.6004761,-0.8754478,-5.4014606,7.5331388,3.382837
0.49932492,0.5817783,-0.84818786,-5.2332683,7.2985697,3.2775013
0.48377717,0.5636631,-0.82177734,-5.070317,7.07131,3.1754477
0.46871382,0.54611236,-0.7961897,-4.9124427,6.851131,3.076574
0.4541198,0.52910846,-0.7713993,-4.7594876,6.637812,2.980781
0.43998048,0.5126343,-0.74738127,-4.6112976,6.4311395,2.8879724
0.4262816,0.49667335,-0.72411144,-4.4677243,6.2309046,2.798055
0.4130095,0.4812096,-0.7015665,-4.3286233,6.0369077,2.7109385
0.40015078,0.46622756,-0.6797238,-4.1938553,5.8489537,2.6265357
0.3876926,0.45171216,-0.6585615,-4.063285,5.6668544,2.544762
0.37562248,0.4376489,-0.6380583,-3.9367816,5.4904265,2.4655352
0.36392826,0.42402363,-0.61819375,-3.8142183,5.319494,2.3887758
0.35259828,0.41082272,-0.5989478,-3.695472,5.1538844,2.3144073
0.34162113,0.39803293,-0.5803013,-3.580424,4.993433,2.2423549
0.33098584,0.38564143,-0.5622355,-3.468959,4.8379784,2.1725464
0.32068175,0.37363583,-0.5447322,-3.3609653,4.687365,2.1049118
0.31069854,0.3620041,-0.52777404,-3.2563343,4.5414414,2.0393832
0.30102623,0.3507346,-0.51134396,-3.1549616,4.4000626,1.9758954
0.29165506,0.33981597,-0.4954255,-3.0567455,4.2630854,1.9143844
0.28257573,0.32923734,-0.48000267,-2.9615877,4.130374,1.8547888
0.2737791,0.31898814,-0.46506009,-2.8693929,4.0017943,1.7970488
0.26525635,0.30905804,-0.45058277,-2.7800686,3.8772185,1.7411067
0.25699896,0.2994371,-0.43655622,-2.6935258,3.7565215,1.6869065
0.24899869,0.29011577,-0.4229664,-2.6096773,3.6395824,1.6343937
0.2412475,0.28108463,-0.4097997,-2.5284395,3.5262845,1.583516
0.23373765,0.27233467,-0.39704293,-2.449731,3.4165137,1.5342222
0.2264616,0.26385713,-0.38468334,-2.3734732,3.3101606,1.4864633
0.21941209,0.25564352,-0.37270856,-2.2995894,3.2071187,1.4401913
0.21258205,0.24768566,-0.36110657,-2.228006,3.107285,1.3953598
0.20596464,0.23997551,-0.3498658,-2.1586509,3.0105593,1.3519241
0.19955325,0.23250543,-0.33897498,-2.0914552,2.9168448,1.3098406
0.19334146,0.22526789,-0.3284232,-2.0263515,2.826048,1.2690673
0.18732306,0.21825567,-0.31819993,-1.9632745,2.7380776,1.2295632
0.18149203,0.21146175,-0.30829492,-1.9021611,2.652846,1.1912891
0.17584251,0.20487933,-0.29869828,-1.8429503,2.570268,1.1542065
0.17036888,0.19850183,-0.28940037,-1.7855829,2.4902604,1.1182783
0.16506563,0.19232287,-0.2803919,-1.7300012,2.4127436,1.0834684
0.15992749,0.18633626,-0.2716639,-1.67615,2.33764,1.0497423
0.15494929,0.18053602,-0.26320758,-1.6239749,2.2648742,1.0170661
0.15012605,0.17491633,-0.2550145,-1.5734242,2.1943738,0.9854072
0.14545298,0.16947158,-0.2470765,-1.5244472,2.1260679,0.95473367
0.14092538,0.16419633,-0.23938559,-1.4769948,2.0598884,0.9250151
0.1365387,0.15908529,-0.23193409,-1.4310194,1.995769,0.8962216
0.13228859,0.15413336,-0.22471455,-1.3864753,1.9336456,0.8683244
0.12817077,0.14933558,-0.21771975,-1.3433177,1.8734561,0.84129566
0.12418115,0.14468715,-0.21094269,-1.3015038,1.8151402,0.81510824
