ax,ay,az,gx,gy,gz
-0.40000364,1.6963791,-0.64364225,3.6063964,-6.935518,-15.425595
-0.008822515,1.4536768,-0.3302974,11.688517,3.8719528,-20.8132
0.29715827,1.313204,-0.26686078,15.584115,8.498411,-27.61804
0.6332404,1.1826717,-0.14057413,17.850271,16.952007,-30.300142
0.67640334,1.2070053,-0.18465781,14.135503,20.820818,-28.27179
0.48370636,1.1101928,-0.3924043,10.806424,20.859903,-24.926447
0.29520556,0.9934144,-0.63212836,7.016527,17.316427,-21.44712
0.19502419,0.8685763,-0.79321563,4.401358,12.478874,-18.598516
0.18973748,0.76496786,-0.8616584,2.829163,8.084185,-16.809547
0.23815274,0.66554546,-0.8591464,2.4601712,5.6067758,-15.495055
0.24317537,0.6284643,-0.8589462,2.037152,4.05908,-14.727208
0.17854539,0.59491074,-0.90779966,1.6302375,1.889995,-14.163059
0.13625397,0.5441725,-0.9048496,1.5337782,-0.12081876,-13.267435
0.10733179,0.5244905,-0.89510137,0.9512284,-2.3203213,-11.918566
0.082847856,0.50261104,-0.8808845,0.42658448,-4.529447,-10.899104
0.120522015,0.49654928,-0.80757123,-0.2675288,-5.9903517,-10.149564
0.16181687,0.47864792,-0.7333988,-0.56874484,-6.8008676,-9.907854
0.22139987,0.43917713,-0.6534803,-0.41206563,-6.9992466,-9.680799
0.27940083,0.4281312,-0.5596496,-0.3775029,-7.0251946,-9.487222
0.33215228,0.42829123,-0.4632704,-0.77182806,-7.365369,-9.243981
0.40457872,0.42069897,-0.33912832,-1.4355168,-7.825588,-8.881701
0.5355821,0.41848314,-0.1593593,-2.1528788,-7.6538906,-8.382804
0.75604385,0.42247784,0.09551194,-2.9032776,-6.0275683,-7.7041097
1.0263531,0.4457522,0.39406753,-3.359713,-2.6607845,-7.2185574
1.3361741,0.508736,0.7497215,-3.4810271,3.0324686,-7.368167
1.7667472,0.6034022,1.2131282,-4.540034,10.971061,-7.002788
2.2398586,0.68609893,1.6372781,-7.867087,21.019312,-5.343593
2.7607589,0.7403489,1.9832084,-13.319264,33.391125,-1.7890091
3.2250412,0.8170737,2.157436,-20.478455,47.78673,3.0822504
3.4916434,0.8940511,2.0595038,-27.050898,62.776287,8.052546
3.4919066,0.9077573,1.697765,-31.499235,74.986595,12.382784
3.4419036,0.8988563,1.3345023,-34.5835,84.89168,16.016409
3.3905208,0.9050252,0.9986288,-37.149246,92.78673,18.997892
3.3374228,0.921574,0.69002914,-39.37475,99.61652,21.56343
3.221561,0.9731248,0.34804547,-40.633095,104.62236,23.575115
2.9183228,1.0568255,-0.14062738,-40.85119,106.588486,24.33911
2.5467815,1.1303209,-0.6737476,-40.859726,104.703964,24.164177
2.1352549,1.1946627,-1.2419161,-40.993305,99.486305,23.060402
1.7325627,1.2368021,-1.8356148,-40.65805,90.69904,20.99705
1.3785857,1.2610525,-2.408029,-38.63351,79.34362,17.350273
1.0492378,1.3294069,-2.9532127,-34.587402,66.98197,12.273725
0.75361603,1.4379022,-3.4580183,-29.605045,53.472473,6.3380804
0.5156627,1.5753092,-3.926875,-24.346052,38.92404,0.30252868
0.28514707,1.7106309,-4.4065924,-18.755651,22.587517,-5.5765066
0.10551715,1.8517326,-4.8491235,-12.709322,4.407561,-12.01449
0.041663606,2.0246575,-5.1904325,-6.6577196,-13.992255,-19.313065
0.10183653,2.1959028,-5.4200525,-1.1886061,-31.732138,-26.700308
0.28132275,2.3053849,-5.5495934,3.8804297,-47.792713,-33.339535
0.527064,2.3653097,-5.614898,9.680926,-62.58406,-39.24896
0.8331858,2.4668093,-5.551568,15.738752,-74.90428,-44.72234
1.1678891,2.6360257,-5.350433,20.286379,-85.35508,-50.08746
1.5692246,2.757787,-5.0913553,24.185877,-93.09932,-54.764816
2.0574296,2.8277485,-4.7626834,27.53545,-97.80468,-58.53442
2.639845,2.8677056,-4.3295474,29.352177,-99.326454,-60.15244
3.2140517,2.8971326,-3.8819084,28.406078,-97.95483,-58.23251
3.6485462,2.9616458,-3.5267174,26.239964,-94.85511,-54.522114
3.952962,3.0588934,-3.2568533,23.434296,-91.11979,-50.547604
4.1972847,3.134766,-3.0081778,20.215925,-86.40129,-46.742687
4.416586,3.1739774,-2.760439,16.869589,-80.38026,-42.86071
4.674381,3.1650531,-2.471797,13.294216,-70.94687,-38.422836
4.985419,3.2154963,-2.1704981,8.237074,-58.80688,-33.35437
5.19505,3.333472,-2.055989,2.498787,-46.160507,-28.651209
5.2977877,3.4377477,-2.0555692,-3.5863986,-34.673794,-25.362146
5.4181285,3.489991,-2.0132146,-10.592981,-23.932203,-21.96628
5.5946646,3.5096498,-1.9070326,-19.153885,-11.684025,-16.499378
5.7212496,3.5698013,-1.9402965,-26.838556,1.864792,-10.695807
5.7366567,3.6050603,-2.0782537,-32.472546,15.898397,-6.3959327
5.6984067,3.624285,-2.2703183,-37.189888,28.774609,-3.1765747
5.6145267,3.6581612,-2.488343,-42.25353,39.94122,0.26594856
5.4420657,3.6788507,-2.7587328,-47.716022,48.246918,4.1012406
5.158021,3.6257148,-3.0909576,-52.394077,54.641525,7.204369
4.8268056,3.5092247,-3.4629676,-54.93744,59.733322,9.391418
4.4436336,3.351145,-3.8723757,-54.877186,63.065598,10.438247
4.039242,3.1723292,-4.2650957,-53.473553,64.091034,10.746005
3.6664674,3.006796,-4.609158,-51.570736,62.350716,10.685942
3.3552568,2.8644004,-4.8754764,-49.121777,59.48917,10.065799
3.0782566,2.7246902,-5.092579,-45.598877,55.94533,8.806
2.8362606,2.605538,-5.253191,-40.983864,52.011703,6.939483
2.6271706,2.5125923,-5.3433685,-35.842594,47.63949,4.9447985
2.4655826,2.443022,-5.361076,-31.065905,42.548595,3.6304517
2.3879077,2.366058,-5.1921825,-30.087217,41.20816,3.5160794
2.3127356,2.2915738,-5.028731,-29.140062,39.91091,3.405392
2.2399802,2.219484,-4.8705344,-28.223356,38.655373,3.2982633
2.1695595,2.1497078,-4.717414,-27.336067,37.44012,3.194572
2.1013942,2.0821662,-4.5691977,-26.477196,36.26379,3.0942018
2.0354083,2.0167842,-4.42572,-25.645786,35.125072,2.997041
1.9715289,1.9534892,-4.2868233,-24.840918,34.022705,2.9029815
1.9096855,1.8922116,-4.152353,-24.0617,32.95547,2.81192
1.8498104,1.8328843,-4.0221624,-23.307283,31.922205,2.7237568
1.7918383,1.7754427,-3.89611,-22.576847,30.92178,2.6383955
1.7357064,1.7198244,-3.774059,-21.869595,29.953112,2.5557442
1.6813543,1.6659696,-3.6558776,-21.184769,29.015156,2.4757133
1.6287235,1.6138204,-3.541439,-20.52163,28.106907,2.398217
1.5777578,1.5633211,-3.4306211,-19.87947,27.22739,2.3231726
1.528403,1.5144179,-3.3233056,-19.257608,26.375673,2.2505
1.4806066,1.4670588,-3.2193787,-18.655382,25.55085,2.180122
1.4343181,1.4211938,-3.1187305,-18.072155,24.752048,2.1119642
1.3894887,1.3767747,-3.0212553,-17.507313,23.978426,2.0459552
1.3460714,1.3337547,-2.9268503,-16.960262,23.229174,1.9820254
1.3040206,1.2920886,-2.8354166,-16.430431,22.503504,1.9201077
1.2632927,1.2517333,-2.746859,-15.917265,21.80066,1.8601377
1.2238449,1.2126465,-2.6610851,-15.42023,21.11991,1.8020527
1.1856364,1.1747876,-2.578006,-14.938809,20.460545,1.7457925
1.1486275,1.1381174,-2.4975352,-14.472505,19.821882,1.6912988
1.1127801,1.102598,-2.4195898,-14.020833,19.203262,1.6385151
1.078057,1.0681926,-2.3440893,-13.583328,18.604046,1.5873871
1.0444225,1.0348659,-2.2709556,-13.15954,18.023615,1.537862
1.011842,1.0025835,-2.2001138,-12.749032,17.461374,1.4898888
0.9802821,0.9713124,-2.131491,-12.351382,16.916744,1.4434183
0.9497104,0.9410204,-2.065017,-11.966185,16.389168,1.3984029
0.9200957,0.91167665,-2.0006237,-11.593043,15.878104,1.3547966
0.89140755,0.883251,-1.9382452,-11.231578,15.383033,1.3125547
0.86361676,0.85571456,-1.8778179,-10.881419,14.903447,1.2716341
0.836695,0.82903916,-1.8192801,-10.54221,14.438858,1.2319932
0.81061494,0.8031977,-1.7625725,-10.213605,13.988793,1.1935915
0.7853499,0.77816385,-1.7076372,-9.89527,13.552795,1.15639
0.76087433,0.7539122,-1.6544183,-9.586883,13.13042,1.1203508
0.7371633,0.73041815,-1.602862,-9.288128,12.721238,1.0854375
0.71419287,0.7076579,-1.5529158,-8.998704,12.324837,1.0516146
0.69193965,0.68560827,-1.5045292,-8.718318,11.940813,1.0188478
0.6703812,0.6642471,-1.4576532,-8.446685,11.568778,0.987104
0.6494956,0.6435526,-1.4122404,-8.18353,11.208355,0.95635104
0.62926185,0.623504,-1.3682448,-7.9285884,10.85918,0.9265578
0.60965943,0.604081,-1.325622,-7.6816015,10.520902,0.8976942
0.5906686,0.5852639,-1.2843289,-7.44232,10.193176,0.86973107
0.57227015,0.56703377,-1.2443241,-7.210503,9.875674,0.8426403
0.55444556,0.5493723,-1.2055669,-6.985916,9.568075,0.8163944
0.53717685,0.5322616,-1.1680185,-6.7683334,9.270069,0.79096705
0.5204466,0.5156845,-1.1316408,-6.5575356,8.981355,0.7663326
0.504238,0.49962416,-1.0963974,-6.35331,8.701643,0.7424662
0.48853475,0.48406458,-1.0622528,-6.155452,8.430652,0.7193439
0.473321,0.46899003,-1.0291725,-5.963761,8.168107,0.6969424
0.45858145,0.45438534,-0.9971233,-5.778045,7.9137464,0.6752391
0.44430128,0.44023585,-0.96607304,-5.598118,7.6673136,0.65421224
0.43046615,0.42652732,-0.93599045,-5.4237976,7.4285607,0.6338407
0.41706216,0.413246,-0.90684533,-5.25491,7.197248,0.614104
0.40407586,0.40037853,-0.87860835,-5.0912848,6.973143,0.59498227
0.39149418,0.38791198,-0.8512512,-4.932758,6.756021,0.57645637
0.37930453,0.3758338,-0.8247464,-4.77917,6.545664,0.5585076
0.3674946,0.36413196,-0.7990673,-4.6303673,6.34186,0.54111814
0.3560526,0.35279468,-0.7741882,-4.4862,6.144405,0.5242703
0.34496704,0.34181052,-0.75008416,-4.346524,5.953101,0.5079473
0.3342268,0.33116853,-0.72673094,-4.2111983,5.7677565,0.49213284
0.32382107,0.32085803,-0.7041051,-4.080088,5.588185,0.47681093
0.31373945,0.31086868,-0.682184,-3.9530618,5.4142065,0.46196625
0.30397183,0.30119044,-0.66094565,-3.8299916,5.2456465,0.4475839
0.29450843,0.29181364,-0.64036876,-3.7107544,5.0823364,0.4336495
0.28533974,0.28272885,-0.62043273,-3.5952306,4.9241123,0.42014906
0.27645662,0.273927,-0.60111755,-3.4833045,4.770816,0.40706906
0.2678501,0.26539925,-0.58240384,-3.374864,4.6222935,0.3943964
0.25951162,0.25713703,-0.5642729,-3.2698004,4.4783955,0.38211834
0.25143278,0.24913213,-0.54670656,-3.1680086,4.3389792,0.37022266
0.2436055,0.24137647,-0.5296872,-3.0693862,4.2039037,0.35869738
0.23602195,0.23386231,-0.51319784,-2.973835,4.0730343,0.34753096
0.22867455,0.22658214,-0.4972219,-2.881259,3.94624,0.33671227
0.2215559,0.21952863,-0.48174337,-2.7915654,3.8233936,0.3262304
0.21465892,0.21269475,-0.46674678,-2.7046645,3.7043722,0.31607494
0.20797667,0.20607366,-0.45221713,-2.6204693,3.5890565,0.30623564
0.20150247,0.19965869,-0.4381399,-2.5388956,3.4773312,0.2967027
0.19522984,0.19344346,-0.4245009,-2.4598618,3.3690844,0.28746656
0.18915252,0.18742174,-0.4112866,-2.3832884,3.2642078,0.278518
0.1832644,0.1815875,-0.39848366,-2.3090992,3.1625965,0.26984802
0.1775596,0.1759349,-0.3860793,-2.2372196,3.0641484,0.26144797
0.1720324,0.17045827,-0.37406117,-2.1675777,2.9687655,0.25330943
0.16667727,0.16515215,-0.3624172,-2.1001043,2.876352,0.24542426
0.16148886,0.16001122,-0.3511357,-2.0347311,2.7868156,0.23778458
0.15646198,0.15503033,-0.34020543,-1.9713933,2.7000668,0.23038274
0.15159158,0.15020451,-0.3296154,-1.9100274,2.6160183,0.22321132
0.14687282,0.14552891,-0.3193551,-1.8505716,2.5345864,0.21626316
0.14230095,0.14099889,-0.30941418,-1.792967,2.4556897,0.2095313
0.13787141,0.13660987,-0.29978275,-1.7371554,2.379249,0.20300902
0.13357976,0.1323575,-0.29045114,-1.6830815,2.305188,0.19668977
0.12942171,0.12823749,-0.28141,-1.6306908,2.2334323,0.19056724
0.12539311,0.12424573,-0.27265036,-1.579931,2.1639106,0.18463531
0.121489905,0.12037825,-0.26416337,-1.5307513,2.096553,0.17888804
0.117708206,0.11663116,-0.2559406,-1.4831027,2.0312922,0.17331967
0.114044234,0.11300071,-0.24797377,-1.4369372,1.968063,0.16792464
0.110494316,0.10948328,-0.24025495,-1.3922089,1.906802,0.16269757
0.107054904,0.10607534,-0.23277642,-1.3488729,1.8474481,0.1576332
0.10372256,0.10277348,-0.22553068,-1.306886,1.7899418,0.15272649
