ax,ay,az,gx,gy,gz
0.19545633,-0.33909398,0.81818926,-17.201065,26.245693,10.764643
0.0842221,-0.15227415,0.44883716,-22.84812,31.0148,13.312959
-0.32659358,0.10731669,-0.1741741,-25.642174,23.398167,8.912099
-0.48557323,0.069293976,-0.29212877,-21.546255,15.593168,2.5017865
-0.48427626,-0.018960636,-0.2930899,-18.836378,8.373838,-1.3517909
-0.3210575,-0.10138113,-0.13139138,-17.506935,5.250739,-2.1584232
-0.19259477,-0.17368944,-0.057973705,-17.403896,3.3513622,-1.7022065
-0.13647313,-0.21620348,-0.041012146,-16.99625,2.3242512,-1.6953946
-0.14530154,-0.21022207,-0.06709344,-16.066689,0.8552745,-3.2408602
-0.121738724,-0.22150707,-0.03978261,-15.30045,-0.065052085,-4.4340844
-0.10637267,-0.23386538,-0.029356055,-15.552718,-1.385452,-5.1363463
-0.0501687,-0.26773518,0.01642195,-15.932247,-2.1915483,-5.198605
0.01870777,-0.3007048,0.05959782,-16.113083,-2.798765,-4.762291
0.0715811,-0.3258764,0.10399616,-15.471578,-3.0056086,-4.216939
0.061784107,-0.3309045,0.11523694,-14.429563,-3.4792223,-3.9360719
0.055443175,-0.3250907,0.14532551,-13.594897,-3.8017929,-3.713562
0.0595478,-0.30562896,0.2130828,-12.974982,-3.920958,-3.380422
0.09833942,-0.2534199,0.35315058,-12.824719,-3.931152,-2.8013601
0.18631434,-0.17562337,0.57193774,-12.951936,-3.4369214,-2.174225
0.33340523,-0.08069613,0.863815,-12.930797,-2.0057845,-1.7771258
0.47261053,-0.009997352,1.1305649,-12.780403,-0.16956772,-1.484855
0.64076877,0.044387884,1.3872575,-12.858328,1.9582378,-1.0245588
0.8588097,0.08229747,1.6560636,-12.865445,4.496811,-0.5315534
1.139512,0.13423969,1.9809119,-12.354385,8.915431,-0.45802665
1.486379,0.24510467,2.3493667,-12.327169,14.433215,-0.5375342
1.9012054,0.37510487,2.725012,-13.310299,21.71044,-0.18316852
2.2947783,0.4898743,2.9800003,-15.536157,29.961462,0.5615878
2.697669,0.55231845,3.1266143,-18.709124,39.227306,1.7400635
3.1143696,0.57263094,3.1607375,-23.475689,50.40935,3.599646
3.4468389,0.5571575,2.9627264,-28.551266,61.862213,6.126723
3.6457613,0.518221,2.5921156,-33.22563,72.11343,9.017537
3.7470462,0.45506254,2.137329,-37.04924,81.1669,12.221863
3.766174,0.41175768,1.6239707,-39.843636,89.21834,15.743607
3.657372,0.4068417,1.0448472,-41.299164,95.40952,18.879927
3.3631425,0.45609084,0.3938204,-41.574966,99.661415,21.538624
2.9395146,0.57044005,-0.278651,-40.821693,101.45281,23.339281
2.4406562,0.75374836,-0.9475147,-39.467022,100.277336,23.587688
1.9274088,0.93998,-1.5841564,-37.485695,96.7351,22.069782
1.4620377,1.0834713,-2.1904845,-34.53519,90.74929,18.768692
1.0378006,1.181889,-2.7989206,-31.100855,82.73304,14.473582
0.62270993,1.270959,-3.4134421,-27.285473,72.005486,8.9531765
0.30016792,1.3530693,-3.9710774,-22.319826,59.684162,2.2455363
0.114219144,1.4252535,-4.4497466,-16.36056,47.297962,-4.6992984
0.01905179,1.4534608,-4.880302,-8.399616,35.135166,-11.282372
0.013344826,1.4076285,-5.2620115,0.9671802,22.93128,-17.020761
0.06344221,1.3799804,-5.5495663,10.891502,10.664243,-21.144194
0.16925287,1.4396938,-5.725164,19.964075,-1.9457917,-24.040007
0.34594667,1.5739803,-5.792554,28.89842,-14.610962,-26.282297
0.61556685,1.7273375,-5.7570767,37.27744,-26.96063,-27.958265
1.074581,1.7993731,-5.5443573,45.518158,-37.583267,-27.631178
1.5883629,1.8855338,-5.2311535,52.725605,-46.604332,-25.11623
2.1180227,2.1437738,-4.768902,56.99488,-54.194717,-22.03025
2.6174927,2.4406374,-4.217921,58.673393,-59.777668,-19.832317
3.0787632,2.6972046,-3.6410153,58.546917,-62.050686,-19.41017
3.4846842,2.842297,-3.1236272,56.98551,-62.61148,-18.649885
3.9133828,2.981421,-2.5502732,53.302177,-60.847343,-16.741253
4.296724,3.1258636,-2.0242627,48.366257,-56.859505,-13.892694
4.5172286,3.2668242,-1.6615242,43.22461,-52.15763,-11.4371
4.643554,3.3770895,-1.3904154,38.327007,-46.966198,-9.875036
4.7678666,3.475326,-1.1403079,32.92549,-41.26735,-9.121952
4.9540267,3.5017238,-0.8855068,27.133526,-34.25279,-8.49654
5.2063704,3.4608145,-0.6366773,21.069757,-25.12278,-6.8193016
5.4919868,3.4261432,-0.42248273,14.421882,-13.74394,-3.715065
5.7765393,3.4796956,-0.30671164,6.080876,-0.49492982,-0.041065842
5.8816676,3.502903,-0.50652325,-2.0738857,10.924559,2.882324
5.9518685,3.4296012,-0.7215089,-9.260449,21.323198,5.4962506
6.045902,3.3494298,-0.9078838,-16.809408,31.687647,8.238526
6.0652595,3.2791643,-1.1540886,-24.513414,41.66491,11.48567
5.9487443,3.2314448,-1.4953022,-30.590082,49.977386,14.611976
5.659124,3.2059212,-1.9107149,-35.0816,56.374935,17.125715
5.3085957,3.206242,-2.3192918,-38.317715,60.923058,18.838608
4.931513,3.210654,-2.6948524,-40.22772,64.113174,19.250692
4.530123,3.1734173,-3.0576808,-40.841915,66.04465,18.982443
4.104467,3.121042,-3.4058309,-40.2183,66.10257,18.190716
3.656416,3.040069,-3.7681806,-38.7934,64.412605,17.088518
3.223912,2.941145,-4.120161,-36.578815,60.74412,15.684386
2.8465202,2.854521,-4.419214,-33.691677,55.34881,13.961409
2.5634897,2.8140786,-4.604567,-30.37994,49.244225,11.924363
2.3908067,2.7652924,-4.6886425,-26.52468,43.412807,10.219197
2.2843416,2.6758373,-4.7111335,-22.205338,37.91446,9.186921
2.2123766,2.591539,-4.562716,-21.50579,36.72002,8.897501
2.1427302,2.5099564,-4.41908,-20.828781,35.56406,8.617404
2.075323,2.4309967,-4.280062,-20.173536,34.445267,8.3463125
2.0100787,2.3545706,-4.145505,-19.539318,33.36237,8.0839205
1.9469242,2.2805924,-4.0152574,-18.925413,32.31416,7.829932
1.8857889,2.2089798,-3.8891745,-18.331137,31.299463,7.5840645
1.8266051,2.139653,-3.7671163,-17.75583,30.317158,7.3460455
1.7693076,2.0725358,-3.6489484,-17.198862,29.366161,7.115613
1.7138338,2.0075545,-3.5345414,-16.659618,28.445433,6.892514
1.6601232,1.944639,-3.4237707,-16.137514,27.553968,6.6765065
1.6081176,1.8837204,-3.3165164,-15.631985,26.690802,6.4673557
1.5577607,1.8247334,-3.2126625,-15.142483,25.855003,6.264836
1.5089988,1.7676145,-3.1120977,-14.668484,25.045673,6.0687304
1.4617795,1.7123027,-3.0147147,-14.20948,24.26195,5.878829
1.4160526,1.658739,-2.9204094,-13.764984,23.502996,5.6949296
1.3717697,1.6068667,-2.829082,-13.334524,22.768007,5.5168366
1.3288836,1.5566308,-2.7406359,-12.9176445,22.056206,5.3443627
1.2873497,1.5079787,-2.6549778,-12.513906,21.366842,5.1773257
1.247124,1.4608588,-2.5720177,-12.122884,20.699194,5.01555
1.2081643,1.4152223,-2.491669,-11.74417,20.052559,4.858866
1.1704301,1.3710212,-2.4138474,-11.377368,19.426266,4.707111
1.133882,1.3282094,-2.3384724,-11.022097,18.819658,4.560126
1.0984823,1.2867427,-2.2654653,-10.677986,18.232107,4.4177585
1.0641938,1.2465779,-2.19475,-10.344681,17.663004,4.2798615
1.0309814,1.2076734,-2.1262543,-10.021833,17.111761,4.1462913
0.9988108,1.1699893,-2.059907,-9.709113,16.577806,4.016911
0.96764874,1.1334866,-1.9956396,-9.406198,16.060593,3.8915865
0.9374632,1.0981278,-1.9333861,-9.112774,15.5595875,3.7701895
0.9082232,1.0638766,-1.8730828,-8.828541,15.074275,3.6525953
0.8798988,1.030698,-1.8146676,-8.553208,14.604159,3.5386832
0.852461,0.9985577,-1.7580808,-8.286494,14.148758,3.4283366
0.82588166,0.96742314,-1.7032647,-8.028126,13.707607,3.3214426
0.8001337,0.9372625,-1.6501633,-7.777838,13.280254,3.2178924
0.77519095,0.908045,-1.5987223,-7.535378,12.866266,3.1175804
0.75102794,0.8797409,-1.5488896,-7.3004975,12.4652195,3.020404
0.7276201,0.8523214,-1.5006143,-7.0729575,12.076707,2.926265
0.7049437,0.8257586,-1.4538473,-6.8525276,11.700335,2.8350675
0.68297565,0.80002564,-1.4085413,-6.6389832,11.335719,2.7467186
0.66169375,0.7750963,-1.3646502,-6.4321084,10.982491,2.6611292
0.6410763,0.75094545,-1.3221297,-6.2316933,10.640292,2.5782123
0.6211026,0.72754854,-1.2809367,-6.0375347,10.308777,2.497884
0.6017523,0.70488197,-1.2410294,-5.8494368,9.98761,2.420063
0.58300585,0.6829227,-1.2023675,-5.667209,9.676465,2.3446708
0.56484437,0.6616487,-1.1649121,-5.4906673,9.37503,2.2716308
0.5472495,0.6410384,-1.1286252,-5.3196335,9.082998,2.2008698
0.5302035,0.62107104,-1.0934702,-5.153935,8.8000765,2.1323159
0.51368916,0.6017264,-1.0594118,-4.993405,8.525979,2.0659003
0.49768987,0.5829851,-1.0264153,-4.8378806,8.260429,2.0015562
0.48218945,0.5648282,-0.99444795,-4.6872063,8.00316,1.9392182
0.46717232,0.5472374,-0.96347725,-4.5412292,7.7539134,1.8788239
0.45262337,0.530195,-0.93347204,-4.3998036,7.5124364,1.8203124
0.43852794,0.51368386,-0.90440226,-4.262787,7.2784867,1.7636249
0.42487186,0.4976874,-0.8762385,-4.1300406,7.05183,1.7087044
0.41164142,0.48218948,-0.8489526,-4.001432,6.832237,1.6554956
0.3988233,0.46717456,-0.822517,-3.876831,6.6194873,1.603945
0.38640463,0.45262754,-0.7969052,-3.756113,6.4133677,1.554001
0.37437293,0.4385338,-0.7720915,-3.6391568,6.213671,1.5056131
0.3627161,0.42487922,-0.748051,-3.5258446,6.0201964,1.458733
0.35142246,0.41165006,-0.72475946,-3.4160628,5.83275,1.4133134
0.3404807,0.39883304,-0.70219356,-3.3097014,5.651143,1.369309
0.32987976,0.3864153,-0.68033063,-3.2066534,5.475194,1.3266753
0.31960908,0.3743844,-0.6591488,-3.1068153,5.3047256,1.2853696
0.30965832,0.36272827,-0.63862675,-3.0100873,5.1395674,1.2453508
0.3000175,0.3514352,-0.61874396,-2.916372,4.9795537,1.2065784
0.29067698,0.34049386,-0.5994804,-2.8255758,4.824524,1.1690137
0.28162736,0.32989332,-0.58081686,-2.7376077,4.6743226,1.1326189
0.2728596,0.3196229,-0.5627346,-2.652379,4.5287995,1.0973576
0.2643649,0.3096724,-0.5452154,-2.569805,4.3878083,1.0631946
0.25613475,0.30003172,-0.52824193,-2.4898021,4.251208,1.0300955
0.24816088,0.2906913,-0.51179695,-2.4122908,4.118861,0.99802697
0.24043535,0.2816417,-0.4958641,-2.3371933,3.990636,0.9669572
0.23295036,0.27287394,-0.48042738,-2.2644343,3.8664038,0.93685496
0.22569846,0.26437917,-0.46547136,-2.1939409,3.74604,0.90769
0.21867236,0.25614893,-0.45098102,-2.1256425,3.6294243,0.8794332
0.21186505,0.24817498,-0.4369419,-2.059471,3.5164397,0.85205626
0.2052697,0.2404493,-0.4233399,-1.9953597,3.406973,0.8255318
0.19887969,0.23296416,-0.4101614,-1.9332445,3.3009145,0.7998331
0.19268864,0.22571208,-0.39739326,-1.8730633,3.1981583,0.77493465
0.18669036,0.21868579,-0.3850226,-1.814756,3.0986016,0.7508114
0.18087883,0.21187826,-0.37303716,-1.758264,3.0021443,0.72743917
0.17524824,0.20528267,-0.36142483,-1.7035308,2.9086902,0.70479465
0.16979294,0.19889244,-0.35017407,-1.6505016,2.8181458,0.6828551
0.16450748,0.19270115,-0.33927354,-1.5991235,2.73042,0.6615986
0.15938658,0.18670262,-0.3287124,-1.5493448,2.6454258,0.64100397
0.1544251,0.18089083,-0.31848004,-1.5011159,2.5630774,0.6210504
0.14961809,0.17525998,-0.30856627,-1.4543885,2.4832928,0.60171807
0.14496072,0.16980442,-0.2989611,-1.4091158,2.405992,0.58298755
0.14044835,0.1645187,-0.28965497,-1.3652525,2.3310976,0.5648402
0.13607645,0.15939754,-0.28063855,-1.3227546,2.258535,0.5472577
0.13184065,0.1544358,-0.2719028,-1.2815799,2.188231,0.53022265
0.12773672,0.14962852,-0.263439,-1.2416868,2.1201158,0.5137179
0.12376054,0.14497091,-0.2552387,-1.2030357,2.054121,0.49772692
0.11990814,0.14045827,-0.24729368,-1.1655878,1.9901806,0.48223376
0.11617567,0.13608612,-0.23959598,-1.1293056,1.9282306,0.4672229
0.11255938,0.13185006,-0.2321379,-1.0941529,1.8682092,0.4526793
0.109055676,0.12774588,-0.22491199,-1.0600946,1.8100563,0.43858847
0.105661035,0.12376946,-0.21791102,-1.0270964,1.7537136,0.42493626
0.102372065,0.11991683,-0.21112798,-0.99512535,1.6991248,0.41170904
0.09918548,0.116184115,-0.20455611,-0.9641496,1.6462353,0.39889356
0.09609809,0.112567596,-0.1981888,-0.9341381,1.5949923,0.38647705
