ax,ay,az,gx,gy,gz
0.051818654,0.760916,-7.434613,-11.985563,-32.903934,-34.62395
-0.054823548,-0.2948948,-7.7888126,0.035966683,-36.56514,-34.092236
-0.43912482,-1.1878363,-8.0444975,13.476448,-45.222385,-36.270622
-0.8165876,-1.5448059,-8.416973,18.156324,-53.2772,-35.355377
-0.94255143,-1.6874977,-8.6304655,20.73981,-57.228447,-32.77511
-1.0376168,-1.7210099,-8.8723345,21.620579,-61.646126,-29.78535
-1.1313006,-1.7792411,-9.100365,19.77175,-67.151665,-24.776287
-1.1707219,-1.8972108,-9.335063,17.885414,-74.988846,-19.660904
-1.1203866,-2.1465464,-9.594983,18.502695,-85.366615,-16.496706
-0.91752297,-2.4699297,-9.622693,21.343285,-95.44766,-13.373691
-0.52972883,-2.6868014,-9.353622,25.187878,-103.60686,-8.693352
-0.044623733,-2.6144497,-8.835099,27.760939,-109.47261,-3.353807
0.41317645,-2.370307,-8.118805,27.301832,-113.37915,2.3658102
0.7608263,-2.1176634,-7.1863375,26.76432,-115.95609,6.9627695
1.0460223,-1.8424714,-6.1789804,27.297197,-117.14772,9.922433
1.291673,-1.5011895,-5.175969,27.81478,-117.256516,11.798378
1.512894,-1.1142833,-4.2329288,26.655575,-116.23924,13.562934
1.680636,-0.75932205,-3.3871577,23.21317,-113.89378,15.3246155
1.7784096,-0.56710917,-2.6837723,19.510996,-110.88746,16.831001
1.8155962,-0.47248954,-2.1165502,16.92441,-107.387955,17.550255
1.8121252,-0.40029728,-1.6641804,15.906756,-103.64764,17.33858
1.7918279,-0.28761902,-1.2840443,15.3505125,-99.82407,16.87591
1.7585293,-0.12245832,-0.95534015,14.576282,-96.051,16.301
1.7208763,0.053758696,-0.6788223,13.217302,-92.30359,15.860489
1.6801327,0.17364927,-0.44689062,11.5325365,-88.4997,15.513859
1.6321766,0.22392298,-0.26681772,10.293287,-84.691444,15.040133
1.5770104,0.25368938,-0.12553078,9.967233,-80.96048,14.159533
1.5284759,0.28925654,0.0082142055,9.920756,-77.148315,13.136333
1.4813865,0.34729564,0.13274577,9.88778,-73.423874,12.19477
1.434819,0.4105895,0.25156137,9.552899,-69.8537,11.450847
1.3894771,0.45463052,0.36402103,8.907038,-66.43495,10.807265
1.360772,0.4587145,0.47636276,8.102572,-63.125793,10.206114
1.3593403,0.4242681,0.59861135,7.753889,-59.52714,9.470329
1.36839,0.3926553,0.7213316,7.9461865,-55.73128,8.442967
1.3750932,0.37259093,0.84236795,8.25387,-51.687286,7.4039726
1.3537515,0.35555902,0.9431835,8.519894,-47.677616,6.407171
1.3168463,0.34010637,1.0300545,8.680113,-43.886734,5.4769235
1.2933828,0.32328522,1.1084952,8.608916,-40.28727,4.5696955
1.2947359,0.30442837,1.1860055,8.735116,-36.500187,3.3700838
1.3135403,0.28280234,1.2605628,9.174522,-32.288757,1.9323157
1.3235135,0.26510495,1.316625,9.730695,-27.736483,0.52542514
1.307102,0.2719167,1.3485278,10.136981,-22.984556,-0.84210193
1.2645332,0.29610038,1.3546965,10.197576,-18.503597,-1.9993602
1.2202853,0.3458987,1.3511448,9.665677,-14.608944,-2.8911252
1.209915,0.39826363,1.3603101,8.983416,-10.809875,-3.7234778
1.2377179,0.4384601,1.3813925,8.777299,-6.6992087,-4.889981
1.288328,0.47900048,1.4016052,8.864097,-2.2946198,-6.3286066
1.3265245,0.53593487,1.3970228,8.959921,2.1529396,-7.8951054
1.3405194,0.62192315,1.3425393,8.60033,6.1394954,-9.398903
1.3510462,0.7070939,1.2566069,7.5078816,9.703794,-10.683989
1.3606906,0.7837866,1.146939,5.8589587,12.923408,-11.871662
1.3736558,0.8511187,1.0229975,4.0235667,16.01299,-13.259486
1.4059386,0.9299556,0.8959501,1.1935933,19.358284,-14.515012
1.4476854,1.0430835,0.71333957,-2.3969014,22.311869,-15.475672
1.4613775,1.1377264,0.48935226,-6.056085,24.504559,-16.414751
1.4581639,1.2132427,0.24057616,-9.532218,25.905516,-17.565023
1.4541138,1.2784423,-0.019253824,-13.148553,26.689404,-18.6091
1.4495875,1.3260795,-0.28349307,-16.546196,27.134905,-19.605457
1.4378726,1.3535846,-0.55280447,-19.495136,27.462748,-20.769524
1.4154992,1.3696566,-0.8281487,-21.70308,27.649723,-22.246096
1.3654928,1.3859414,-1.1063547,-23.393032,27.457405,-23.908504
1.2702605,1.4214834,-1.3782557,-24.881472,26.72605,-25.807373
1.1299264,1.4650973,-1.6363728,-26.915854,24.954947,-27.967638
0.9651303,1.4433296,-1.8653569,-29.698635,22.304308,-29.960806
0.84186643,1.3322212,-2.0469048,-32.96128,18.898294,-31.769682
0.79023933,1.1528527,-2.1590972,-36.265392,15.367506,-33.29144
0.7961926,0.9213105,-2.2027755,-39.60209,11.964408,-34.43291
0.82382643,0.5853654,-2.2108443,-42.01381,9.201479,-35.045727
0.83740526,0.077936344,-2.235441,-42.80844,6.8862123,-35.300724
0.8215446,-0.5090992,-2.2938435,-41.285767,4.938395,-34.78426
0.7804539,-1.1183182,-2.3987606,-37.965714,2.765923,-33.346367
0.76644945,-1.7369871,-2.5304656,-33.01311,0.12409167,-30.636543
0.83572286,-2.3166606,-2.648259,-26.241522,-2.6552305,-25.454111
1.028371,-2.6471777,-2.6726398,-18.68252,-4.936512,-18.773735
1.2739666,-2.6513853,-2.5585752,-11.245982,-6.2786083,-11.314952
1.5048487,-2.3062856,-2.283183,-4.968271,-6.6613026,-4.4343743
1.6687663,-1.736897,-1.8977215,-0.37528893,-6.068678,1.0061519
1.7176324,-1.0962731,-1.5139036,1.1902518,-4.6394362,4.7526026
1.6410922,-0.5415007,-1.241747,0.7655803,-3.1987913,7.4665117
1.5893513,-0.52442807,-1.2025968,0.74144286,-3.0979388,7.231105
1.539281,-0.50790673,-1.1647108,0.71808475,-3.0003426,7.003299
1.490824,-0.49191764,-1.1280452,0.69547915,-2.9058907,6.782833
1.4439248,-0.4764426,-1.0925585,0.6736004,-2.8144755,6.5694547
1.3985305,-0.46146414,-1.0582105,0.6524237,-2.7259936,6.3629236
1.35459,-0.44696543,-1.0249627,0.63192517,-2.6403458,6.163007
1.3120546,-0.43293026,-0.9927778,0.6120821,-2.5574365,5.9694824
1.270877,-0.41934314,-0.9616204,0.5928725,-2.4771736,5.782136
1.2310117,-0.40618908,-0.931456,0.5742751,-2.399469,5.60076
1.1924154,-0.39345366,-0.9022517,0.55626965,-2.3242373,5.425157
1.1550457,-0.38112304,-0.87397563,0.5388364,-2.2513971,5.2551355
1.1188623,-0.36918384,-0.84659714,0.5219566,-2.1808689,5.0905113
1.0838261,-0.35762316,-0.82008666,0.505612,-2.112577,4.9311066
1.0498996,-0.34642863,-0.79441583,0.48978505,-2.0464478,4.77675
1.0170463,-0.33558825,-0.7695571,0.47445878,-1.9824107,4.627277
0.9852314,-0.3250905,-0.7454841,0.45961693,-1.9203976,4.482528
0.9544211,-0.3149242,-0.72217125,0.44524372,-1.8603427,4.3423495
0.92458284,-0.3050787,-0.69959384,0.43132398,-1.8021824,4.206594
0.89568514,-0.2955435,-0.6777282,0.417843,-1.7458555,4.0751176
0.8676977,-0.28630868,-0.6565512,0.4047867,-1.6913028,3.9477825
0.8405912,-0.2773645,-0.6360408,0.39214134,-1.6384672,3.8244555
0.8143373,-0.26870167,-0.6161756,0.37989372,-1.5872935,3.7050076
0.7889087,-0.26031116,-0.5969348,0.36803108,-1.5377284,3.5893145
0.76427895,-0.2521842,-0.57829845,0.35654116,-1.4897206,3.4772558
0.7404225,-0.24431247,-0.56024724,0.34541196,-1.4432199,3.3687158
0.71731466,-0.23668773,-0.5427625,0.334632,-1.3981786,3.2635818
0.6949316,-0.22930215,-0.5258262,0.3241902,-1.3545499,3.161745
0.6732504,-0.2221481,-0.5094209,0.31407574,-1.3122891,3.0631013
0.6522485,-0.21521826,-0.49352965,0.30427822,-1.2713525,2.9675488
0.63190454,-0.20850548,-0.47813618,0.29478762,-1.2316984,2.8749893
0.6121975,-0.2020029,-0.4632247,0.2855942,-1.1932858,2.785328
0.5931074,-0.19570385,-0.44878,0.27668852,-1.1560757,2.6984732
0.5746146,-0.1896019,-0.43478727,0.2680615,-1.1200298,2.6143363
0.5567003,-0.18369082,-0.42123222,0.25970432,-1.0851115,2.532831
0.5393461,-0.17796458,-0.40810105,0.25160852,-1.051285,2.4538743
0.5225345,-0.17241736,-0.39538038,0.24376577,-1.0185161,2.377386
0.5062483,-0.1670435,-0.38305727,0.23616816,-0.9867712,2.3032885
0.49047095,-0.16183756,-0.37111923,0.22880793,-0.9560183,2.231506
0.4751865,-0.15679425,-0.35955408,0.22167763,-0.9262261,2.161966
0.4603794,-0.15190844,-0.34835017,0.21477002,-0.8973643,2.0945978
0.44603464,-0.1471752,-0.33749607,0.20807809,-0.8694037,2.029333
0.43213773,-0.14258972,-0.32698086,0.20159508,-0.8423161,1.966106
0.41867456,-0.13814737,-0.31679383,0.19531444,-0.8160739,1.9048525
0.40563157,-0.13384366,-0.30692476,0.1892298,-0.7906507,1.8455105
0.39299557,-0.12967424,-0.2973636,0.18333502,-0.76602083,1.7880203
0.3807538,-0.1256349,-0.28810075,0.17762415,-0.74215937,1.7323235
0.3688939,-0.12172156,-0.27912685,0.17209142,-0.7190422,1.6783643
0.3574039,-0.11793027,-0.27043283,0.16673127,-0.6966461,1.626088
0.34627223,-0.11425723,-0.26200995,0.16153827,-0.6749484,1.575442
0.33548766,-0.110698715,-0.25384974,0.15650721,-0.6539273,1.5263753
0.32503936,-0.10725116,-0.24594393,0.15163301,-0.6335617,1.4788384
0.3149168,-0.10391108,-0.2382846,0.14691076,-0.61383086,1.4327836
0.30510977,-0.10067512,-0.23086403,0.14233571,-0.5947152,1.3881644
0.29560843,-0.09754003,-0.22367476,0.13790329,-0.57619536,1.3449359
0.28640324,-0.09450264,-0.21670957,0.133609,-0.5582527,1.3030548
0.27748492,-0.091559924,-0.20996143,0.12944853,-0.54086924,1.262479
0.26884452,-0.0887089,-0.20342359,0.12541774,-0.5240275,1.2231675
0.26047334,-0.085946724,-0.19708948,0.121512525,-0.5077106,1.185081
0.252363,-0.0832706,-0.19095272,0.117729,-0.49190202,1.1481813
0.24450536,-0.08067787,-0.18500715,0.11406336,-0.476586,1.1124312
0.2368925,-0.0781659,-0.17924683,0.110511914,-0.46174717,1.0777948
0.22951682,-0.075732194,-0.17366596,0.10707111,-0.44737062,1.0442375
0.22237091,-0.0733743,-0.16825892,0.10373749,-0.43344188,1.0117255
0.21544757,-0.07108986,-0.16302033,0.10050771,-0.41994703,0.98022634
0.20873989,-0.068876565,-0.1579449,0.09737853,-0.40687254,0.9497083
0.20224114,-0.06673221,-0.15302755,0.09434682,-0.39420524,0.92014074
0.19594479,-0.06465465,-0.14826337,0.091409534,-0.38193253,0.8914941
0.18984453,-0.062641785,-0.14364757,0.088563725,-0.370042,0.86373967
0.18393427,-0.060691614,-0.1391755,0.08580655,-0.3585218,0.83684963
0.17820807,-0.058802173,-0.13484272,0.08313523,-0.34736037,0.810797
0.17266017,-0.056971572,-0.13064486,0.08054711,-0.3365465,0.78555566
0.16728505,-0.05519798,-0.12657773,0.07803958,-0.3260694,0.76110035
0.16207732,-0.053479616,-0.12263725,0.07561014,-0.31591856,0.7374066
0.15703174,-0.051814757,-0.11881947,0.07325634,-0.30608383,0.7144506
0.15214328,-0.050201744,-0.11512057,0.07097584,-0.2965553,0.6922095
0.14740703,-0.04863895,-0.11153684,0.06876635,-0.28732347,0.67066085
0.14281824,-0.04712482,-0.108064696,0.066625655,-0.27837908,0.6497832
0.13837235,-0.045657836,-0.10470067,0.06455161,-0.26971322,0.6295556
0.13406487,-0.044236526,-0.101441376,0.06254214,-0.26131713,0.60995775
0.1298915,-0.04285947,-0.09828357,0.06059524,-0.2531825,0.5909701
0.12584808,-0.041525286,-0.09522407,0.05870896,-0.24530111,0.57257366
0.12193054,-0.04023264,-0.09225983,0.056881398,-0.2376651,0.55474997
0.11813497,-0.03898024,-0.08938788,0.05511074,-0.23026684,0.5374811
0.11445756,-0.03776683,-0.08660534,0.053395208,-0.2230989,0.52075
0.11089465,-0.0365912,-0.08390942,0.051733084,-0.21615411,0.5045397
0.107442655,-0.035452165,-0.08129744,0.050122708,-0.20942555,0.4888341
0.104098134,-0.034348596,-0.07876678,0.048562463,-0.20290646,0.47361746
0.10085773,-0.033279378,-0.0763149,0.047050796,-0.1965903,0.45887452
0.0977182,-0.03224345,-0.07393935,0.045586184,-0.1904708,0.44459057
0.09467641,-0.03123977,-0.07163776,0.044167172,-0.18454179,0.4307513
0.09172932,-0.030267337,-0.069407806,0.04279233,-0.17879736,0.4173428
0.088873975,-0.029325176,-0.06724728,0.041460294,-0.17323175,0.40435177
0.08610751,-0.028412344,-0.065154016,0.04016972,-0.16783941,0.39176515
0.08342717,-0.027527928,-0.06312591,0.038919322,-0.16261493,0.37957034
0.08083027,-0.026671046,-0.06116094,0.03770785,-0.15755309,0.36775517
0.07831421,-0.025840838,-0.059257142,0.036534093,-0.15264882,0.35630777
0.07587647,-0.025036473,-0.057412606,0.03539687,-0.14789723,0.34521675
0.07351462,-0.024257148,-0.05562549,0.034295052,-0.14329354,0.334471
0.071226284,-0.023502082,-0.053894006,0.033227533,-0.13883317,0.32405972
0.06900919,-0.022770522,-0.05221642,0.032193244,-0.13451163,0.31397256
0.066861115,-0.022061734,-0.050591055,0.03119115,-0.13032463,0.3041994
