ax,ay,az,gx,gy,gz
0.87455344,0.3436395,-3.3582122,-5.0491366,-1.9972908,-3.4954863
0.6493973,0.079372086,-3.8855603,0.9043833,-3.430365,-9.420121
0.24628103,-0.5247452,-4.6247826,11.79592,-9.678984,-14.601078
-0.047067318,-0.8425679,-5.0963354,16.932003,-15.960752,-16.79429
-0.15478413,-0.96044594,-5.4040694,18.649174,-20.59122,-17.382408
-0.13942929,-1.0485783,-5.665201,18.714348,-24.385372,-15.697653
-0.0670053,-1.1625348,-5.894107,19.75435,-27.342628,-13.100066
-0.0158587,-1.2623718,-6.1684217,22.019682,-29.758848,-11.545825
-0.0028332565,-1.3904948,-6.5029516,25.78158,-32.904526,-10.680058
-0.07517834,-1.6178195,-6.904123,31.113832,-38.13919,-9.592074
-0.18196191,-1.9391696,-7.304542,36.88227,-45.113926,-8.293209
-0.19557738,-2.3332198,-7.658499,44.2057,-52.93233,-6.5901155
0.052183107,-2.5896544,-7.795624,51.216034,-59.194103,-3.2532594
0.3259606,-2.5393064,-7.767199,56.929314,-64.56504,0.9178161
0.52786833,-2.3747067,-7.625371,61.2238,-70.3175,4.555088
0.7771418,-2.3019404,-7.355343,65.60876,-76.02138,7.8884444
1.0767293,-2.2079072,-6.93937,70.67336,-80.48987,11.752715
1.3159432,-1.8632208,-6.307049,74.20598,-83.43438,16.182709
1.4562733,-1.3278056,-5.550234,74.84837,-85.2956,20.76954
1.5239826,-0.76281303,-4.736076,73.84626,-86.32566,24.241592
1.546982,-0.25309402,-3.9231167,72.095245,-86.55077,26.205572
1.580455,0.21494682,-3.1456802,68.91452,-85.95515,27.138811
1.6344873,0.6269948,-2.412384,64.64604,-84.94853,27.927946
1.7050388,0.9546733,-1.7098774,60.058346,-82.97684,28.312994
1.7804708,1.2137319,-1.0447674,55.685585,-79.727646,27.998087
1.8259531,1.4200817,-0.44510275,51.757996,-75.65666,27.20453
1.8301427,1.5961791,0.08234969,48.32819,-71.2827,25.952122
1.8432931,1.7417734,0.5560582,45.24554,-66.658295,24.324091
1.8731238,1.854266,0.9817423,42.618965,-61.500988,22.122747
1.9071773,1.9333454,1.3478326,40.207207,-55.68031,19.355005
1.9490819,1.9691966,1.6465653,37.682587,-49.40573,16.743547
1.98932,2.001821,1.8764764,35.04416,-42.79112,14.249324
2.0190425,2.0119135,2.0150888,32.36173,-36.08089,11.661414
2.042053,1.98658,2.0776594,29.835924,-29.41373,9.04456
2.0623617,1.944732,2.0711095,27.413857,-22.980928,6.4391646
2.0856397,1.9015678,2.001306,25.136116,-16.977547,3.8846676
2.0966976,1.8502971,1.8751191,23.047335,-11.946964,1.459246
2.1190197,1.7941914,1.7016735,20.9155,-7.339993,-0.7873138
2.1521294,1.7215337,1.4918634,18.861494,-2.952536,-2.8129478
2.1712484,1.6541966,1.2487061,16.948795,1.3244323,-4.593738
2.1517246,1.6059273,0.9718522,15.194892,5.243099,-6.2770205
2.0867362,1.5764798,0.6678504,13.364648,8.107039,-7.7508173
1.9767942,1.5723022,0.3265872,11.576317,9.967462,-9.291813
1.8652059,1.558536,-0.011676949,9.721363,11.00228,-10.87786
1.7684212,1.5416819,-0.32113147,7.9839745,11.768651,-12.154874
1.6648866,1.5642804,-0.6129566,6.334258,12.210195,-13.316846
1.5478123,1.621291,-0.88811934,4.653598,12.113164,-14.797447
1.4343272,1.6881276,-1.1463437,2.8716333,11.593032,-16.408436
1.3243958,1.7797008,-1.3834584,0.5179742,10.594304,-18.079796
1.2223976,1.866337,-1.596465,-2.4711835,9.243876,-19.676908
1.1332428,1.9119923,-1.7909882,-5.9264703,7.717552,-21.152111
1.0449337,1.8942384,-1.9841367,-9.00303,5.830019,-23.090836
0.95647377,1.7975501,-2.1669028,-11.62823,3.6574166,-24.98239
0.86944276,1.706891,-2.3335853,-14.530359,0.97366893,-26.161306
0.78896105,1.6344775,-2.475816,-18.179855,-2.3705564,-26.788866
0.733091,1.497011,-2.5787206,-22.25497,-5.9985456,-27.250296
0.697015,1.2134907,-2.6589978,-25.438898,-9.682905,-27.937777
0.7446007,0.7487227,-2.6937044,-27.737656,-12.974091,-27.8803
0.83079594,0.22931914,-2.7077947,-29.204332,-15.78249,-26.732185
0.92966104,-0.3821154,-2.7279313,-29.378325,-18.310188,-25.189466
1.0598611,-1.1906931,-2.7540166,-27.25433,-20.4355,-23.04692
1.2622529,-2.0990329,-2.7785735,-21.263756,-21.386997,-18.992079
1.5465156,-2.7404187,-2.7368646,-13.893567,-21.25207,-12.480381
1.8053851,-2.9317727,-2.6260788,-6.4099364,-20.59239,-5.176162
1.9971637,-2.7130592,-2.415174,0.42008314,-19.647064,1.1762381
2.1192694,-2.1925046,-2.0926967,5.5588512,-18.187223,6.741506
2.1047108,-1.417119,-1.7090918,6.5308723,-16.698713,11.957432
1.9060254,-0.45988715,-1.3673954,3.8656287,-15.760338,15.919348
1.6668153,0.31266883,-1.1434076,-1.3688577,-15.7033825,18.728624
1.4832165,0.75281405,-1.0454699,-6.7512727,-16.47548,20.173016
1.4231917,0.9153302,-1.0260327,-10.45216,-17.342335,20.14869
1.4850599,0.92485833,-1.0299107,-12.469968,-17.567183,19.826324
1.5867984,0.8312197,-1.065129,-13.581842,-17.36595,19.63671
1.6527095,0.65189385,-1.1210392,-13.002027,-16.880991,19.257814
1.6003532,0.6312425,-1.0855258,-12.590136,-16.346218,18.647747
1.5497103,0.6112669,-1.0511744,-12.191722,-15.828944,18.05764
1.5007194,0.59194297,-1.0179437,-11.806307,-15.328546,17.486786
1.4533224,0.57324773,-0.9857941,-11.43343,-14.844425,16.934504
1.4074632,0.55515903,-0.95468765,-11.072651,-14.376014,16.400139
1.3630883,0.5376558,-0.92458797,-10.723548,-13.922762,15.88307
1.3201461,0.52071774,-0.8954601,-10.385718,-13.484145,15.382697
1.2785873,0.50432533,-0.86727077,-10.058772,-13.059659,14.898444
1.2383648,0.48845997,-0.83998764,-9.742337,-12.648821,14.42976
1.199433,0.4731037,-0.81358,-9.436057,-12.251166,13.976115
1.161748,0.4582393,-0.78801817,-9.1395855,-11.866247,13.537001
1.125268,0.44385013,-0.76327366,-8.852593,-11.493635,13.111926
1.0899525,0.4299203,-0.73931897,-8.574763,-11.132918,12.700419
1.0557626,0.41643444,-0.7161278,-8.305788,-10.783698,12.30203
1.0226609,0.4033778,-0.69367474,-8.045373,-10.445592,11.916319
0.9906112,0.39073616,-0.6719354,-7.7932353,-10.118233,11.542868
0.95957893,0.3784958,-0.65088606,-7.5491014,-9.801265,11.181272
0.92953056,0.36664355,-0.63050413,-7.312708,-9.494347,10.83114
0.90043384,0.35516664,-0.6107677,-7.083801,-9.197149,10.492097
0.87225765,0.34405285,-0.5916557,-6.8621364,-8.909354,10.16378
0.84497195,0.3332903,-0.5731477,-6.647477,-8.630654,9.84584
0.8185479,0.3228676,-0.5552242,-6.439596,-8.360756,9.53794
0.7929575,0.3127737,-0.53786606,-6.238274,-8.099372,9.239754
0.7681737,0.30299804,-0.52105516,-6.043298,-7.846227,8.950967
0.7441706,0.29353026,-0.5047738,-5.854463,-7.601056,8.671276
0.720923,0.2843605,-0.48900485,-5.671572,-7.3636026,8.400389
0.6984067,0.27547917,-0.47373194,-5.494434,-7.1336174,8.138022
0.67659813,0.26687703,-0.4589391,-5.3228636,-6.910862,7.8839035
0.6554747,0.2585451,-0.444611,-5.156684,-6.6951046,7.637768
0.63501453,0.25047478,-0.4307328,-4.9957213,-6.4861217,7.3993597
0.6151964,0.24265774,-0.41729006,-4.8398104,-6.2836967,7.1684337
0.59599984,0.23508586,-0.40426898,-4.6887894,-6.0876207,6.9447503
0.57740515,0.22775139,-0.39165613,-4.542503,-5.897692,6.7280803
0.55939317,0.22064674,-0.37943852,-4.4008007,-5.713715,6.5181994
0.5419454,0.21376465,-0.36760363,-4.2635374,-5.535501,6.3148932
0.5250439,0.20709805,-0.3561393,-4.130572,-5.3628674,6.117953
0.5086715,0.20064011,-0.34503382,-4.0017686,-5.195637,5.927177
0.49281138,0.19438426,-0.33427584,-3.8769953,-5.03364,5.7423706
0.47744736,0.18832408,-0.32385436,-3.756125,-4.87671,5.563345
0.46256378,0.18245341,-0.3137588,-3.6390345,-4.724687,5.3899174
0.44814548,0.17676626,-0.3039788,-3.5256042,-4.577417,5.2219114
0.43417782,0.17125687,-0.29450446,-3.4157193,-4.434749,5.0591564
0.42064658,0.16591962,-0.28532618,-3.3092678,-4.2965393,4.901487
0.40753803,0.1607491,-0.2764346,-3.2061417,-4.162647,4.7487426
0.3948389,0.15574004,-0.26782075,-3.1062362,-4.032936,4.600769
0.3825363,0.15088741,-0.25947583,-3.0094504,-3.907276,4.4574156
0.37061778,0.14618628,-0.25139144,-2.9156861,-3.7855384,4.3185377
0.35907125,0.14163187,-0.2435594,-2.8248487,-3.6676009,4.183995
0.3478851,0.13721961,-0.2359718,-2.736846,-3.553344,4.053651
0.33704796,0.13294503,-0.22862093,-2.6515894,-3.4426522,3.9273736
0.32654896,0.1288038,-0.22149941,-2.5689926,-3.335414,3.8050363
0.31637746,0.124791756,-0.21460004,-2.4889724,-3.2315207,3.686515
0.3065232,0.12090485,-0.20791586,-2.411448,-3.130868,3.5716906
0.29697624,0.11713915,-0.20144013,-2.3363411,-3.0333543,3.460447
0.287727,0.11349089,-0.19516633,-2.2635765,-2.9388814,3.3526723
0.27876613,0.10995637,-0.18908814,-2.1930804,-2.847354,3.248258
0.27008465,0.106532045,-0.18319945,-2.1247823,-2.7586799,3.1470988
0.26167378,0.10321446,-0.17749432,-2.058613,-2.6727703,3.049093
0.25352505,0.10000029,-0.17196701,-1.9945065,-2.589538,2.954142
0.24563032,0.0968863,-0.166612,-1.9323978,-2.5089004,2.8621507
0.23798163,0.09386935,-0.16142386,-1.8722248,-2.4307756,2.773026
0.23057128,0.09094642,-0.15639739,-1.8139269,-2.3550854,2.6866786
0.22339186,0.08811457,-0.15152755,-1.7574456,-2.2817538,2.603022
0.21643612,0.08537095,-0.14680946,-1.7027242,-2.210707,2.521972
0.20969711,0.082712814,-0.14223835,-1.6497077,-2.1418738,2.443447
0.20316803,0.08013749,-0.13780966,-1.5983429,-2.075185,2.3673687
0.19684237,0.0776424,-0.13351893,-1.5485781,-2.0105739,2.2936602
0.19071375,0.07522503,-0.12936187,-1.5003637,-1.9479753,2.2222478
0.18477604,0.072882965,-0.1253343,-1.4536512,-1.8873267,2.1530602
0.17902328,0.070613846,-0.12143218,-1.4083936,-1.8285673,2.0860274
0.1734497,0.06841541,-0.1176516,-1.3645457,-1.771638,2.0210826
0.16804971,0.06628544,-0.113988765,-1.3220636,-1.7164818,1.9581604
0.16281791,0.06422181,-0.11044001,-1.2809044,-1.6630435,1.897198
0.15774904,0.062222447,-0.107001774,-1.2410271,-1.6112694,1.8381342
0.15283802,0.06028535,-0.10367062,-1.2023916,-1.5611076,1.7809098
0.14807995,0.058408577,-0.10044319,-1.1649594,-1.512508,1.7254673
0.14347003,0.056590244,-0.09731628,-1.1286929,-1.4654218,1.6717515
0.13900368,0.05482854,-0.09428673,-1.0935556,-1.4198018,1.6197083
0.1346764,0.05312169,-0.091351524,-1.0595125,-1.3756025,1.5692856
0.13048387,0.05146799,-0.08850771,-1.0265293,-1.3327794,1.5204332
0.12642188,0.04986578,-0.08575244,-0.9945733,-1.2912897,1.4731017
0.12248637,0.048313458,-0.083082974,-0.96361226,-1.2510918,1.4272441
0.11867339,0.04680947,-0.08049662,-0.9336152,-1.2121456,1.3828143
0.11497913,0.04535231,-0.07799079,-0.9045521,-1.174412,1.3397678
0.111399904,0.043940518,-0.075562984,-0.8763939,-1.1378533,1.2980616
0.107932106,0.04257268,-0.07321076,-0.84911245,-1.1024327,1.257654
0.104572274,0.04124743,-0.07093178,-0.8226803,-1.0681149,1.2185043
0.10131705,0.039963443,-0.068723746,-0.79707116,-1.0348656,1.1805735
0.098163165,0.038719427,-0.06658445,-0.77225924,-1.0026515,1.1438236
0.09510747,0.037514143,-0.06451177,-0.74821985,-0.97144026,1.1082178
0.09214692,0.03634638,-0.062503606,-0.7249288,-0.9412007,1.0737207
0.08927853,0.035214975,-0.060557965,-0.7023629,-0.91190255,1.0402974
0.08649943,0.03411879,-0.058672894,-0.6804995,-0.88351655,1.0079147
0.08380686,0.033056732,-0.05684651,-0.6593167,-0.8560142,0.97653997
0.081198104,0.032027736,-0.055076983,-0.6387934,-0.82936805,0.9461421
0.07867056,0.031030774,-0.05336254,-0.618909,-0.80355144,0.9166905
0.076221704,0.030064847,-0.051701475,-0.5996436,-0.77853847,0.88815576
0.07384908,0.029128993,-0.050092116,-0.5809779,-0.7543042,0.86050934
0.07155032,0.02822227,-0.048532855,-0.56289333,-0.73082435,0.83372355
0.069323115,0.027343772,-0.047022134,-0.5453717,-0.7080754,0.80777156
0.06716525,0.026492624,-0.045558445,-0.52839553,-0.6860346,0.7826275
0.06507455,0.025667971,-0.044140317,-0.5119479,-0.66468,0.75826615
0.06304894,0.02486899,-0.042766336,-0.49601215,-0.6439901,0.7346631
0.061086375,0.024094878,-0.041435122,-0.4805725,-0.6239443,0.7117949
0.059184913,0.023344865,-0.040145352,-0.46561348,-0.60452247,0.6896385
0.057342637,0.022618199,-0.03889573,-0.45112014,-0.5857052,0.6681718
