ax,ay,az,gx,gy,gz
-1.448195,0.18727443,-2.9927545,12.151928,-31.239374,0.94364494
-1.4423845,0.15522039,-2.9371247,12.090975,-26.911446,-2.3266551
-1.6720313,0.041717928,-3.181721,15.36336,-24.565763,-6.427096
-1.966772,-0.03655146,-3.4677246,14.45626,-24.2745,-6.527199
-2.2679088,-0.14930274,-3.7720277,12.073519,-25.433979,-5.6246734
-2.520627,-0.27982417,-4.1122704,11.641008,-28.456987,-4.532163
-2.6711147,-0.35049927,-4.437079,11.861236,-33.150288,-3.6849108
-2.7251365,-0.373182,-4.724341,11.099295,-37.82024,-2.6773345
-2.7528903,-0.41948077,-4.9140763,9.432895,-42.722065,-0.52367884
-2.73813,-0.39233422,-4.9394345,6.5693235,-48.001095,3.0178187
-2.6585543,-0.30397135,-4.814778,3.6850352,-52.934414,6.3627806
-2.526003,-0.1743133,-4.625863,1.6112393,-57.055515,8.217677
-2.382184,-0.0575659,-4.4299474,0.08757734,-60.735996,8.806605
-2.2399821,-0.019836769,-4.2159185,-0.9957695,-64.29581,8.883209
-2.07081,0.007934835,-3.917167,-2.4226234,-68.05227,9.726586
-1.8449059,0.065672785,-3.5389104,-4.396027,-71.55166,10.937816
-1.5794586,0.12660477,-3.1422942,-6.2431345,-74.15833,11.363887
-1.3065649,0.101817235,-2.7685263,-7.382454,-75.92442,11.1484165
-1.0477756,0.013658977,-2.4240098,-7.8363986,-76.98457,10.87314
-0.8144899,-0.0655943,-2.0893474,-7.5797033,-77.708755,10.773889
-0.5956014,-0.069270074,-1.7338188,-7.5036845,-78.0919,10.808285
-0.37647185,-0.03687393,-1.3766388,-7.6115894,-77.82755,10.475471
-0.1580169,-0.043411095,-1.0392138,-7.643159,-76.86745,9.921633
0.039526664,-0.10987225,-0.7331656,-7.4669566,-75.310425,9.479677
0.21766199,-0.1792471,-0.42317784,-7.124711,-73.47142,9.4787445
0.40440118,-0.19857262,-0.07944317,-6.6973276,-71.48911,9.897615
0.61781174,-0.19179276,0.29407683,-6.2226367,-68.80882,10.4110775
0.8674865,-0.20443042,0.67864966,-5.798431,-65.10163,10.737172
1.1169778,-0.2189244,1.0255014,-5.829978,-60.08759,10.797841
1.332389,-0.23006952,1.3075732,-6.452027,-54.42186,10.517275
1.2772082,-0.22054121,1.2534201,-6.184817,-52.167984,10.081702
1.2252398,-0.21156758,1.2024196,-5.933162,-50.045315,9.671487
1.1762049,-0.2031005,1.154298,-5.695713,-48.04247,9.284428
1.1298574,-0.19509748,1.1088136,-5.4712777,-46.14939,8.918582
1.0859792,-0.18752083,1.0657527,-5.2587996,-44.35717,8.572227
1.0443763,-0.18033707,1.0249246,-5.0573397,-42.657887,8.243833
1.0048755,-0.1735163,0.9861596,-4.8660593,-41.044464,7.932031
0.9673218,-0.16703174,0.94930536,-4.6842074,-39.51057,7.635599
0.93157583,-0.16085932,0.91422516,-4.5111094,-38.050514,7.353437
0.8975121,-0.15497738,0.88079584,-4.346157,-36.659172,7.0845532
0.86501706,-0.14936632,0.84890604,-4.188802,-35.3319,6.828052
0.833988,-0.1440084,0.8184549,-4.038545,-34.06451,6.5831227
0.8043314,-0.13888748,0.7893507,-3.8949347,-32.85318,6.3490276
0.77596235,-0.13398886,0.76150995,-3.7575586,-31.694433,6.1250944
0.7488029,-0.12929912,0.7348564,-3.6260407,-30.585098,5.9107103
0.7227821,-0.12480599,0.70932025,-3.500036,-29.522268,5.705314
0.69783455,-0.12049819,0.68483734,-3.3792288,-28.503279,5.5083895
0.67390037,-0.11636536,0.66134894,-3.2633288,-27.525679,5.3194637
0.65092415,-0.112397954,0.6388006,-3.1520674,-26.587208,5.1380997
0.6288549,-0.10858715,0.6171424,-3.0451982,-25.685781,4.963895
0.6076453,-0.104924805,0.59632784,-2.9424918,-24.81947,4.7964764
0.58725166,-0.10140334,0.57631403,-2.8437366,-23.986483,4.635498
0.5676332,-0.09801574,0.557061,-2.7487354,-23.185163,4.480639
0.54875225,-0.09475548,0.53853166,-2.657305,-22.413961,4.331601
0.53057337,-0.09161645,0.5206914,-2.569275,-21.67144,4.188105
0.51306367,-0.08859298,0.50350785,-2.4844851,-20.956253,4.049892
0.49619246,-0.08567975,0.48695084,-2.402787,-20.267141,3.916718
0.47993082,-0.08287178,0.47099206,-2.324041,-19.60293,3.788356
0.4642517,-0.080164395,0.45560497,-2.2481155,-18.962511,3.6645923
0.44912973,-0.07755322,0.44076464,-2.1748881,-18.344849,3.5452263
0.43454096,-0.07503411,0.4264476,-2.1042428,-17.748966,3.4300692
0.4204629,-0.07260319,0.41263175,-2.0360706,-17.173943,3.3189435
0.4068743,-0.070256785,0.39929622,-1.9702684,-16.618912,3.2116811
0.3937551,-0.067991436,0.38642138,-1.9067394,-16.083054,3.108124
0.38108632,-0.06580386,0.37398854,-1.8453913,-15.565594,3.0081224
0.36884996,-0.06369096,0.3619801,-1.7861375,-15.065797,2.9115343
0.35702905,-0.06164979,0.35037938,-1.7288953,-14.582968,2.8182254
0.34560743,-0.059677564,0.33917046,-1.6735866,-14.116447,2.728068
0.33456972,-0.057771634,0.32833833,-1.6201371,-13.665608,2.6409416
0.32390133,-0.05592948,0.31786865,-1.568476,-13.229855,2.55673
0.31358838,-0.054148696,0.30774778,-1.518536,-12.808619,2.4753244
0.30361766,-0.052427005,0.29796275,-1.4702532,-12.401361,2.39662
0.29397652,-0.050762225,0.28850117,-1.4235665,-12.0075655,2.320517
0.28465292,-0.04915228,0.27935123,-1.3784175,-11.62674,2.246921
0.2756354,-0.047595184,0.27050167,-1.3347507,-11.258417,2.1757407
0.26691294,-0.046089042,0.26194167,-1.2925125,-10.902146,2.1068897
0.25847507,-0.044632033,0.25366095,-1.2516525,-10.557498,2.0402849
0.25031167,-0.043222427,0.2456496,-1.2121217,-10.224061,1.9758468
0.24241316,-0.041858554,0.2378982,-1.1738735,-9.9014435,1.9134995
0.23477027,-0.04053882,0.23039766,-1.1368632,-9.589268,1.85317
0.22737417,-0.039261706,0.22313932,-1.101048,-9.287171,1.7947886
0.22021635,-0.038025733,0.2161148,-1.0663866,-8.994808,1.7382879
0.21328866,-0.036829498,0.20931615,-1.0328397,-8.711844,1.6836039
0.20658326,-0.035671648,0.20273563,-1.0003691,-8.437961,1.6306746
0.20009263,-0.034550883,0.1963659,-0.9689385,-8.172849,1.5794405
0.19380952,-0.03346595,0.1901998,-0.9385129,-7.916213,1.5298445
0.18772699,-0.03241565,0.18423057,-0.9090586,-7.66777,1.4818317
0.18183832,-0.03139883,0.17845157,-0.88054293,-7.427245,1.4353492
0.17613707,-0.030414369,0.17285651,-0.85293496,-7.1943755,1.3903462
0.17061703,-0.029461198,0.16743927,-0.8262044,-6.968908,1.3467734
0.1652722,-0.028538285,0.162194,-0.8003224,-6.750597,1.3045839
0.16009685,-0.027644634,0.15711504,-0.775261,-6.539208,1.263732
0.15508541,-0.026779285,0.15219693,-0.7509933,-6.3345137,1.2241739
0.15023251,-0.025941312,0.14743441,-0.7274934,-6.1362953,1.1858673
0.145533,-0.025129825,0.14282243,-0.7047362,-5.944342,1.1487714
0.14098185,-0.024343962,0.13835606,-0.6826976,-5.7584496,1.1128469
0.13657431,-0.023582892,0.13403061,-0.66135424,-5.578422,1.0780557
0.13230571,-0.022845812,0.1298415,-0.64068377,-5.4040694,1.0443612
0.12817156,-0.02213195,0.12578435,-0.62066436,-5.2352085,1.0117282
0.12416753,-0.021440558,0.1218549,-0.601275,-5.071663,0.98012215
0.12028945,-0.020770913,0.11804905,-0.5824956,-4.9132614,0.94951034
0.11653327,-0.020122316,0.11436283,-0.56430656,-4.759839,0.9198608
0.1128951,-0.019494096,0.11079242,-0.54668885,-4.611237,0.89114267
0.109371156,-0.018885601,0.10733411,-0.52962434,-4.4673004,0.86332625
0.1059578,-0.018296203,0.103984326,-0.5130953,-4.3278804,0.83638275
0.1026515,-0.017725289,0.100739606,-0.49708474,-4.192834,0.8102844
0.09944886,-0.017172275,0.097596616,-0.4815761,-4.062021,0.78500414
0.09634658,-0.01663659,0.094552115,-0.46655348,-3.9353073,0.76051617
0.09334148,-0.016117686,0.09160298,-0.45200142,-3.8125627,0.73679525
0.09043047,-0.015615029,0.0887462,-0.437905,-3.6936617,0.7138171
0.08761058,-0.015128107,0.08597883,-0.42424983,-3.5784824,0.6915582
0.08487892,-0.01465642,0.08329805,-0.41102192,-3.466907,0.6699957
0.08223271,-0.014199487,0.08070113,-0.39820778,-3.3588219,0.64910775
0.07966925,-0.013756843,0.07818541,-0.38579437,-3.2541165,0.62887293
0.077185936,-0.013328037,0.07574834,-0.37376902,-3.1526845,0.60927075
0.074780226,-0.012912633,0.07338744,-0.3621195,-3.0544224,0.5902812
0.072449684,-0.012510208,0.0711003,-0.35083395,-2.959231,0.57188493
0.07019195,-0.012120354,0.06888462,-0.33990097,-2.8670127,0.5540634
0.06800472,-0.011742677,0.06673813,-0.32930946,-2.777675,0.5367984
0.0658858,-0.011376792,0.064658664,-0.31904864,-2.6911266,0.5200726
0.06383302,-0.01102233,0.062644124,-0.3091082,-2.6072803,0.5038689
0.061844315,-0.010678932,0.06069246,-0.299478,-2.526051,0.48817095
0.059917677,-0.010346251,0.058801703,-0.29014835,-2.447357,0.47296295
0.058051154,-0.01002395,0.056969948,-0.2811098,-2.3711183,0.45822948
0.056242865,-0.009711705,0.05519534,-0.27235326,-2.2972581,0.44395566
0.054490987,-0.0094091995,0.053476088,-0.26386985,-2.225702,0.4301271
0.052793745,-0.00911613,0.05181046,-0.25565106,-2.1563776,0.41672987
0.051149435,-0.0088321995,0.050196774,-0.24768858,-2.0892153,0.40375045
0.0495564,-0.008557123,0.04863341,-0.2399744,-2.0241473,0.39117575
0.048013035,-0.008290623,0.04711879,-0.23250072,-1.961108,0.37899312
0.046517786,-0.008032432,0.045651387,-0.22526003,-1.900034,0.3671903
0.045069147,-0.007782289,0.04422973,-0.21824507,-1.8408638,0.3557554
0.043665662,-0.007539943,0.042852383,-0.21144877,-1.7835381,0.3446769
0.04230592,-0.0073051504,0.04151797,-0.2048643,-1.727999,0.33394372
0.040988553,-0.007077675,0.040225137,-0.19848502,-1.6741906,0.32354504
0.03971224,-0.006857288,0.038972594,-0.19230452,-1.6220592,0.3134704
0.038475696,-0.006643769,0.037759084,-0.18631662,-1.5715523,0.3037097
0.03727768,-0.0064369026,0.036583383,-0.1805153,-1.522619,0.2942531
0.03611699,-0.006236481,0.03544431,-0.17489472,-1.4752103,0.28509116
0.034992464,-0.006042304,0.034340728,-0.16944925,-1.4292785,0.27621463
0.03390297,-0.005854176,0.033271525,-0.16417342,-1.3847778,0.26761466
0.032847412,-0.005671908,0.032235626,-0.15906194,-1.3416631,0.25928256
0.031824734,-0.005495318,0.031231998,-0.15410969,-1.2998916,0.25121003
0.030833913,-0.0053242287,0.03025963,-0.14931168,-1.2594212,0.24338892
0.029873954,-0.0051584677,0.029317548,-0.14466313,-1.2202113,0.23581143
0.02894389,-0.00499787,0.02840481,-0.14015934,-1.1822226,0.22846995
0.028042795,-0.004842274,0.027520496,-0.13579583,-1.1454171,0.2213571
0.027169764,-0.0046915235,0.026663724,-0.13156822,-1.1097578,0.21446578
0.02632392,-0.004545468,0.025833635,-0.12747227,-1.075209,0.20778908
0.025504416,-0.0044039604,0.025029395,-0.12350386,-1.0417361,0.20132029
0.024710434,-0.00426686,0.0242502,-0.11965904,-1.0093056,0.19505295
0.023941174,-0.0041340287,0.023495268,-0.11593394,-0.977885,0.18898077
0.02319587,-0.0040053334,0.022763845,-0.112324834,-0.94744277,0.18309768
0.022473771,-0.0038806458,0.022055196,-0.10882811,-0.9179485,0.17739776
0.02177416,-0.0037598405,0.021368613,-0.105440274,-0.8893726,0.17187533
0.02109633,-0.0036427965,0.020703409,-0.10215792,-0.8616864,0.16652486
0.020439604,-0.003529397,0.020058915,-0.09897776,-0.8348623,0.16134097
0.019803328,-0.0034195285,0.01943449,-0.095896624,-0.80887336,0.15631849
0.019186862,-0.0033130804,0.018829506,-0.092911415,-0.7836936,0.15145238
0.01858959,-0.0032099467,0.018243356,-0.09001915,-0.7592978,0.14673778
0.018010912,-0.003110024,0.017675458,-0.087216936,-0.7356615,0.14216997
0.01745025,-0.003013212,0.017125238,-0.08450197,-0.71276116,0.13774437
0.016907046,-0.0029194143,0.01659215,-0.08187152,-0.69057375,0.13345654
0.016380752,-0.0028285368,0.016075658,-0.079322964,-0.66907704,0.12930222
0.015870841,-0.0027404884,0.015575246,-0.07685375,-0.6482496,0.12527722
0.015376806,-0.0026551813,0.015090412,-0.074461415,-0.62807065,0.121377535
0.014898152,-0.00257253,0.014620672,-0.072143555,-0.60851985,0.11759925
0.014434398,-0.0024924516,0.014165556,-0.06989785,-0.5895777,0.11393859
0.013985082,-0.0024148661,0.013724608,-0.06772206,-0.57122517,0.11039189
0.013549753,-0.0023396958,0.013297388,-0.065614,-0.553444,0.1069556
0.013127977,-0.002266866,0.012883467,-0.063571565,-0.53621644,0.10362629
0.01271933,-0.002196303,0.012482432,-0.061592717,-0.5195252,0.10040062
0.012323405,-0.0021279368,0.01209388,-0.05967547,-0.5033535,0.09727537
0.011939805,-0.002061699,0.011717425,-0.057817906,-0.48768517,0.0942474
0.011568146,-0.001997523,0.011352688,-0.056018166,-0.47250465,0.0913137
0.0112080565,-0.0019353448,0.010999306,-0.05427445,-0.4577967,0.088471316
0.0108591765,-0.0018751022,0.010656924,-0.052585017,-0.4435466,0.08571742
0.010521158,-0.0018167348,0.0103252,-0.050948177,-0.42974007,0.083049245
0.01019366,-0.0017601844,0.010003802,-0.049362287,-0.41636333,0.080464125
0.009876357,-0.0017053944,0.009692409,-0.047825765,-0.403403,0.077959485
