ax,ay,az,gx,gy,gz
-2.4491131,-1.6745607,-3.8454895,56.26415,6.8800626,-41.559467
-2.365201,-1.868692,-4.0811076,44.374798,2.7876577,-28.53359
-2.288869,-1.9838387,-4.3596416,29.126925,-4.0701356,-18.10936
-2.0729806,-2.3158371,-4.589114,21.817232,-6.2263684,-8.44647
-1.8508159,-2.6473465,-4.9158335,19.583858,-3.8297944,-0.2527739
-1.5428696,-3.0874925,-5.2981424,24.87807,-0.37787455,7.3746185
-1.1416819,-3.5654156,-5.708463,36.101845,1.4009174,15.34699
-0.6337812,-3.9808142,-6.014024,48.040356,0.77234805,26.373022
-0.029969754,-4.257963,-6.157813,57.646378,-0.5152975,39.4854
0.4425028,-4.3355923,-6.2558317,64.874565,-2.5643935,53.655964
0.7284379,-4.2039256,-6.32711,70.18673,-5.4051485,67.1821
0.8528053,-3.8537195,-6.381032,73.56818,-8.967397,78.08951
0.8753477,-3.4089787,-6.401953,75.05885,-13.528032,84.25748
0.91240764,-2.911997,-6.290248,77.19064,-17.222822,86.90376
0.92369,-2.2968092,-6.1449523,78.490746,-20.820646,87.24538
0.904444,-1.4866116,-5.942921,76.32264,-25.21364,85.58178
0.84693795,-0.5809799,-5.6578264,71.629005,-29.990423,80.84662
0.7462397,0.2832966,-5.3131447,65.184326,-34.954277,74.0242
0.6481249,1.0939916,-4.9108586,56.569893,-39.244915,64.72969
0.57832927,1.8743864,-4.4447165,46.828945,-42.27534,53.474606
0.5140984,2.4722736,-3.989866,37.425182,-44.188606,39.79448
0.4596041,2.7986755,-3.5198648,29.550503,-44.394543,26.038534
0.39587304,2.9619124,-3.1033552,22.053082,-43.669796,14.283762
0.36536807,3.0341978,-2.773905,13.514338,-43.10608,4.1751704
0.39477548,2.9675205,-2.5143452,4.617253,-42.761223,-4.7508097
0.47859457,2.746668,-2.311084,-3.6940813,-42.373642,-12.491771
0.6440875,2.3726425,-2.1419582,-9.900932,-41.672134,-18.893333
0.9120109,1.8863058,-1.9881296,-14.071167,-40.198376,-23.33931
1.2628089,1.3263758,-1.8530756,-17.386778,-38.26225,-25.33324
1.5835268,0.7776208,-1.7423708,-19.970783,-35.82828,-24.457283
1.7942241,0.27713725,-1.6973789,-21.165903,-33.2651,-21.763437
1.8839751,-0.15099896,-1.7057861,-21.310474,-30.684755,-18.203205
1.8886186,-0.51302594,-1.7344095,-20.594406,-27.954475,-14.015875
1.8454859,-0.77809745,-1.752598,-18.59482,-24.928919,-8.7569065
1.7846123,-0.95584226,-1.7681477,-16.43866,-21.758768,-3.100218
1.7281595,-1.0746832,-1.7790602,-13.987464,-18.299425,2.6325583
1.6635151,-1.1513233,-1.8093158,-11.251491,-14.703221,8.133383
1.5607616,-1.1977266,-1.8977997,-7.528149,-12.429306,13.235327
1.3920405,-1.2132202,-2.018128,-3.848716,-11.401617,18.290154
1.2281147,-1.2234505,-2.1186059,0.31369835,-11.116382,24.176134
1.0925205,-1.1741222,-2.2128997,4.2512913,-11.608873,31.028557
0.98998237,-1.0408568,-2.3041234,6.6187696,-13.241728,38.136707
0.92825097,-0.8522166,-2.366811,7.2038097,-15.68353,44.22507
0.8809797,-0.5813321,-2.4159846,6.889451,-18.510155,48.425953
0.8206738,-0.28881764,-2.4630616,5.599406,-21.912695,50.45881
0.7703673,-0.020033494,-2.4882183,3.6613896,-25.562834,50.518795
0.73897964,0.19092922,-2.4888666,1.5757836,-29.155125,49.52509
0.7184016,0.3632783,-2.4657202,-0.41674197,-32.624516,48.508907
0.69162387,0.5514016,-2.416088,-2.5896199,-36.165237,47.84141
0.65308714,0.7531877,-2.3474624,-4.720193,-39.795895,47.022297
0.6163889,0.9711608,-2.2560122,-6.8953943,-43.385963,45.39724
0.6046964,1.1927974,-2.1334107,-9.27575,-46.667904,42.71625
0.6396504,1.4106524,-1.9715058,-12.195679,-49.101254,38.764908
0.7200912,1.5986646,-1.7636304,-15.70018,-50.70008,34.210915
0.8184442,1.7689188,-1.5365525,-19.85077,-51.090984,28.946737
0.9263111,1.9102994,-1.3190881,-23.747847,-50.256943,22.589258
1.0551047,1.998384,-1.1257643,-27.452682,-47.956066,15.086759
1.1963196,1.9998461,-0.97501683,-30.757607,-44.370125,6.699143
1.3576639,1.8585229,-0.8617184,-33.32799,-40.270554,-1.6372402
1.5085846,1.6326134,-0.7848558,-35.6162,-36.356422,-8.617747
1.6232606,1.3641598,-0.74334806,-38.04577,-32.945087,-13.460767
1.6853907,1.0810649,-0.7405182,-40.261738,-30.08623,-16.512785
1.7113296,0.79730916,-0.7645139,-41.87006,-27.831736,-18.448748
1.7391454,0.5119408,-0.7827474,-42.765503,-25.964115,-19.22361
1.7786508,0.23498647,-0.79034865,-43.15695,-24.119366,-19.023369
1.819858,-0.027922332,-0.7906264,-43.196,-22.186676,-17.932386
1.8461739,-0.269022,-0.7882989,-42.599937,-19.992935,-16.217325
1.7871133,-0.26041576,-0.7630806,-41.237133,-19.353346,-15.69852
1.730038,-0.25209883,-0.73871,-39.920135,-18.735256,-15.197154
1.6748725,-0.24406019,-0.7151548,-38.647205,-18.137846,-14.712564
1.621545,-0.23628937,-0.6923844,-37.416687,-17.560343,-14.24412
1.5699869,-0.22877641,-0.6703696,-36.227,-17.002,-13.791219
1.5201333,-0.2215118,-0.6490826,-35.07664,-16.462114,-13.35329
1.4719216,-0.21448646,-0.6284967,-33.964172,-15.940013,-12.929785
1.4252926,-0.20769174,-0.60858655,-32.88822,-15.435049,-12.520182
1.3801894,-0.20111936,-0.5893279,-31.847477,-14.946609,-12.123982
1.3365576,-0.1947614,-0.57069755,-30.840687,-14.474103,-11.740708
1.2943453,-0.18861027,-0.5526733,-29.866648,-14.016969,-11.369903
1.2535025,-0.18265872,-0.5352338,-28.924213,-13.574667,-11.011128
1.2139817,-0.17689979,-0.51835877,-28.012281,-13.146681,-10.663966
1.1757369,-0.17132682,-0.5020286,-27.129795,-12.732513,-10.328013
1.1387243,-0.16593339,-0.48622456,-26.27574,-12.331689,-10.002884
1.1029017,-0.16071336,-0.47092864,-25.449142,-11.943752,-9.688207
1.0682285,-0.15566084,-0.45612353,-24.649069,-11.568263,-9.383628
1.0346658,-0.15077013,-0.4417926,-23.87462,-11.2048,-9.088804
1.0021764,-0.1460358,-0.4279199,-23.124935,-10.852959,-8.803407
0.970724,-0.14145261,-0.41449,-22.39918,-10.512348,-8.52712
0.94027406,-0.13701548,-0.40148816,-21.696556,-10.182594,-8.259639
0.91079324,-0.13271958,-0.38890016,-21.016294,-9.863335,-8.000671
0.8822495,-0.12856022,-0.37671223,-20.357655,-9.554223,-7.749934
0.85461175,-0.12453289,-0.3649112,-19.719923,-9.254924,-7.507157
0.82785034,-0.12063325,-0.3534843,-19.102411,-8.965114,-7.2720766
0.8019365,-0.11685712,-0.34241933,-18.504456,-8.684483,-7.0444417
0.7768425,-0.11320045,-0.3317044,-17.925419,-8.412729,-6.8240085
0.75254154,-0.10965935,-0.32132816,-17.364681,-8.149566,-6.6105423
0.72900796,-0.106230065,-0.31127954,-16.821651,-7.894711,-6.4038167
0.7062168,-0.10290898,-0.30154794,-16.295752,-7.6478972,-6.203613
0.68414414,-0.099692576,-0.2921231,-15.786431,-7.4088635,-6.00972
0.6627667,-0.09657748,-0.28299516,-15.293153,-7.177359,-5.821934
0.6420622,-0.09356044,-0.2741545,-14.815402,-6.953141,-5.6400595
0.62200886,-0.0906383,-0.26559192,-14.352677,-6.735976,-5.4639053
0.6025859,-0.08780802,-0.25729853,-13.904498,-6.5256376,-5.2932887
0.58377314,-0.08506665,-0.24926564,-13.470399,-6.321907,-5.128032
0.56555104,-0.08241135,-0.24148498,-13.04993,-6.1245728,-4.967964
0.5479008,-0.07983938,-0.2339485,-12.642655,-5.933431,-4.812919
0.53080416,-0.077348076,-0.22664839,-12.248156,-5.7482853,-4.6627374
0.51424354,-0.074934885,-0.21957715,-11.866023,-5.5689435,-4.517264
0.49820185,-0.07259731,-0.2127275,-11.495866,-5.3952217,-4.376349
0.48266265,-0.07033296,-0.20609242,-11.137303,-5.226942,-4.239848
0.46761003,-0.06813951,-0.19966508,-10.7899685,-5.063931,-4.1076217
0.45302856,-0.06601472,-0.19343893,-10.453505,-4.9060225,-3.9795337
0.43890336,-0.06395641,-0.1874076,-10.12757,-4.7530556,-3.855454
0.42521998,-0.06196249,-0.18156493,-9.81183,-4.6048727,-3.7352552
0.4119645,-0.06003092,-0.17590496,-9.505963,-4.461324,-3.6188152
0.3991234,-0.05815973,-0.17042194,-9.209659,-4.322263,-3.5060153
0.38668364,-0.056347024,-0.16511028,-8.922615,-4.1875477,-3.396741
0.37463257,-0.05459096,-0.15996458,-8.64454,-4.057042,-3.2908807
0.36295795,-0.05288975,-0.15497963,-8.375152,-3.930613,-3.1883276
0.35164797,-0.051241674,-0.15015037,-8.114177,-3.8081326,-3.0889773
0.34069112,-0.049645055,-0.1454719,-7.8613505,-3.689477,-2.9927292
0.33007634,-0.048098285,-0.14093949,-7.616418,-3.5745254,-2.899486
0.3197929,-0.046599794,-0.13654856,-7.37913,-3.463162,-2.8091533
0.30983037,-0.04514807,-0.13229465,-7.1492476,-3.3552737,-2.7216396
0.3001787,-0.043741643,-0.12817349,-6.9265385,-3.2507522,-2.6368566
0.29082817,-0.042379096,-0.12418089,-6.7107773,-3.1494915,-2.5547187
0.2817693,-0.04105905,-0.12031285,-6.5017467,-3.0513897,-2.4751432
0.272993,-0.039780177,-0.11656544,-6.299236,-2.9563475,-2.3980494
0.2644904,-0.038541187,-0.11293491,-6.10304,-2.8642695,-2.32336
0.2562529,-0.03734083,-0.10941758,-5.912963,-2.7750626,-2.2509995
0.24827226,-0.036177903,-0.106009915,-5.7288117,-2.688637,-2.1808953
0.24054042,-0.03505123,-0.102708496,-5.5504017,-2.6049058,-2.1129766
0.2330496,-0.033959676,-0.099509984,-5.377553,-2.5237849,-2.047175
0.22579227,-0.032902148,-0.096411176,-5.2100925,-2.4451923,-1.9834245
0.21876113,-0.03187758,-0.09340894,-5.0478506,-2.3690495,-1.921661
0.21194911,-0.030884944,-0.09050028,-4.8906655,-2.2952795,-1.8618222
0.20534939,-0.02992324,-0.087682255,-4.7383785,-2.2238085,-1.8038484
0.1989553,-0.028991502,-0.08495204,-4.590837,-2.1545644,-1.7476809
0.19276045,-0.028088795,-0.0823069,-4.447892,-2.087478,-1.6932634
0.1867586,-0.027214214,-0.07974417,-4.3094015,-2.0224817,-1.6405416
0.18094374,-0.02636688,-0.07726128,-4.1752253,-1.9595102,-1.5894622
0.17531003,-0.025545944,-0.07485573,-4.045229,-1.8985006,-1.539974
0.16985181,-0.024750581,-0.07252513,-3.9192822,-1.8393915,-1.4920274
0.16456363,-0.023979992,-0.07026712,-3.7972586,-1.7821236,-1.4455744
0.15944014,-0.023233406,-0.06807944,-3.679036,-1.7266395,-1.4005684
0.15447626,-0.022510074,-0.06595991,-3.5644956,-1.6728835,-1.356964
0.14966697,-0.02180927,-0.06390639,-3.4535227,-1.6208018,-1.3147179
0.14500746,-0.021130294,-0.06191682,-3.346006,-1.5703423,-1.2737874
0.14049307,-0.020472463,-0.059989218,-3.2418375,-1.5214541,-1.2341317
0.13611926,-0.019835118,-0.058121644,-3.1409132,-1.4740885,-1.1957109
0.13188167,-0.019217622,-0.05631223,-3.0431318,-1.428198,-1.1584866
0.12777603,-0.018619353,-0.054559164,-2.9483955,-1.3837364,-1.1224216
0.12379824,-0.018039715,-0.052860685,-2.856609,-1.3406594,-1.0874796
0.11994432,-0.017478127,-0.051215097,-2.7676811,-1.2989237,-1.0536256
0.1162104,-0.016934024,-0.049620748,-2.681522,-1.2584877,-1.0208257
0.11259275,-0.016406866,-0.048076045,-2.5980456,-1.2193108,-0.9890472
0.109087735,-0.01589612,-0.046579435,-2.5171685,-1.1813536,-0.9582582
0.10569186,-0.015401277,-0.04512943,-2.4388096,-1.1445783,-0.9284278
0.10240171,-0.014921841,-0.043724567,-2.3628902,-1.108948,-0.89952624
0.099214,-0.014457333,-0.042363446,-2.289335,-1.0744271,-0.8715245
0.09612554,-0.014007287,-0.041044705,-2.2180696,-1.0409809,-0.84439456
0.09313324,-0.013571252,-0.03976702,-2.149023,-1.0085762,-0.81810933
0.0902341,-0.013148793,-0.038529113,-2.0821261,-0.97718024,-0.7926424
0.08742522,-0.012739487,-0.03732975,-2.017312,-0.9467618,-0.7679684
0.08470379,-0.012342923,-0.036167722,-1.9545158,-0.91729033,-0.74406254
0.08206708,-0.011958705,-0.035041872,-1.8936745,-0.88873637,-0.72090095
0.079512455,-0.011586449,-0.03395107,-1.8347273,-0.86107135,-0.6984604
0.077037364,-0.011225782,-0.03289423,-1.7776153,-0.8342676,-0.6767185
0.07463933,-0.010876344,-0.03187029,-1.7222812,-0.80829835,-0.6556534
0.07231594,-0.010537783,-0.030878227,-1.6686697,-0.7831375,-0.63524413
0.07006489,-0.010209762,-0.029917046,-1.6167272,-0.7587599,-0.6154702
0.06788391,-0.009891952,-0.028985789,-1.5664018,-0.7351413,-0.59631187
0.06577082,-0.009584037,-0.028083522,-1.517643,-0.71225786,-0.5777499
0.06372352,-0.009285706,-0.027209343,-1.470402,-0.6900868,-0.5597658
0.061739948,-0.008996663,-0.026362376,-1.4246317,-0.6686059,-0.54234153
0.059818123,-0.008716618,-0.025541775,-1.3802862,-0.64779377,-0.5254597
0.057956126,-0.00844529,-0.02474672,-1.337321,-0.62762946,-0.50910336
0.05615209,-0.008182408,-0.023976415,-1.2956935,-0.60809284,-0.49325618
0.054404214,-0.007927709,-0.023230087,-1.2553618,-0.58916444,-0.47790235
0.05271075,-0.00768094,-0.022506993,-1.2162855,-0.5708252,-0.46302643
0.051069997,-0.007441852,-0.021806408,-1.1784257,-0.5530569,-0.4486136
