ax,ay,az,gx,gy,gz
-2.7582068,-2.9409356,-5.302776,22.361113,33.513943,-49.604996
-2.3149939,-3.0943887,-5.3457646,29.213608,30.57417,-40.859447
-1.7711077,-3.210926,-5.4954667,33.52089,25.881098,-32.329662
-1.0939434,-3.4253955,-5.722289,38.822224,21.248579,-25.954218
-0.3248486,-3.726804,-5.985835,40.66405,15.056945,-22.555351
0.5556981,-4.3699303,-6.132321,42.318115,10.999638,-13.489424
1.3682874,-4.912732,-6.211917,42.907562,7.1560445,1.8513907
1.9203007,-5.0410705,-6.222609,41.549923,3.9788337,20.770811
2.2100992,-4.957418,-6.2481737,41.235928,1.4111719,38.355717
2.3047268,-4.766368,-6.306324,43.11606,-0.5979369,54.02792
2.254477,-4.448545,-6.400595,48.50503,-2.8819745,66.597145
2.10272,-3.9650924,-6.493072,55.16889,-5.7571664,76.066826
1.9027274,-3.3429937,-6.5325885,61.569466,-9.019204,82.88628
1.6503524,-2.5287523,-6.5059686,65.58449,-13.6069,87.51413
1.385504,-1.5239109,-6.3792143,65.83245,-19.72139,89.322784
1.1375436,-0.5048487,-6.150273,62.60429,-26.821526,85.968636
0.9058176,0.43723032,-5.807932,57.987354,-33.436394,79.96318
0.72171396,1.3335246,-5.4103456,51.351982,-39.701912,72.17982
0.57948714,2.170169,-4.966286,43.278667,-45.63113,62.935745
0.4665485,2.865982,-4.469828,34.480072,-50.566147,52.533237
0.39827573,3.3735626,-3.9588726,25.654598,-53.483513,41.137184
0.41782564,3.6425023,-3.4730952,17.044603,-55.03466,29.988016
0.53699696,3.7282822,-3.0255275,8.841646,-55.39438,19.466795
0.74077857,3.6510644,-2.6187186,0.76239437,-54.455578,9.70055
1.0199226,3.4004998,-2.2588103,-7.0417085,-51.99097,0.83667123
1.361299,2.985402,-1.9580123,-13.358711,-47.425472,-7.148077
1.7143432,2.3941777,-1.7299944,-17.508919,-41.975685,-13.512703
1.99792,1.778012,-1.5801684,-20.299696,-36.441277,-17.21248
2.175433,1.1935052,-1.5184935,-21.69907,-31.53913,-18.16921
2.2627351,0.6560132,-1.5151808,-22.220669,-27.29207,-17.219522
2.2909083,0.16570148,-1.5443709,-21.158846,-23.51772,-14.701556
2.295632,-0.2355215,-1.5843531,-19.21017,-19.93579,-11.371538
2.2872424,-0.5512637,-1.6350852,-16.966005,-16.407055,-7.5846415
2.249917,-0.8010764,-1.7036059,-14.847237,-13.100561,-3.1803608
2.175007,-0.9961425,-1.7918547,-12.161077,-10.176445,1.9089636
2.0683925,-1.1266179,-1.9041443,-9.102129,-8.152175,7.978279
1.9548728,-1.1857109,-2.0109491,-5.759119,-6.5049286,14.214191
1.858048,-1.2081072,-2.1080048,-1.9855641,-4.7404356,20.147285
1.7688774,-1.2037797,-2.2172024,1.8837513,-3.033794,25.485767
1.67776,-1.1933665,-2.3518667,5.6825757,-2.030145,30.405624
1.5841047,-1.1860397,-2.4945219,9.200368,-2.332312,35.6602
1.496719,-1.1574131,-2.6120524,13.170311,-3.2273195,41.485615
1.4069047,-1.0386639,-2.7260911,16.79318,-4.8445377,47.170555
1.3118895,-0.81453216,-2.8280902,19.352467,-7.4528375,51.530174
1.226456,-0.5391612,-2.9001188,21.166023,-10.866379,53.6787
1.1685469,-0.28297934,-2.93205,22.805975,-14.605559,53.435913
1.1346679,-0.036190927,-2.9434729,23.967506,-18.875198,52.53743
1.0959227,0.25538155,-2.9468865,22.99055,-24.156271,51.41375
1.0541598,0.57575345,-2.9309342,19.765749,-30.335085,49.810677
1.0038061,0.88751394,-2.8919122,14.994102,-37.05018,47.157555
0.958011,1.1871299,-2.802774,10.167487,-43.35134,43.0762
0.94032353,1.5028411,-2.6488001,5.962885,-48.639893,37.68516
0.94742846,1.7953596,-2.471582,1.9752085,-52.777206,31.088078
0.99947035,2.0254922,-2.2704563,-1.6839274,-55.620094,23.69747
1.0800211,2.1904516,-2.0647848,-5.8540053,-57.481735,15.922527
1.1754606,2.2849197,-1.8693576,-11.42761,-58.47317,8.566764
1.2867554,2.2623315,-1.7087437,-17.512482,-58.57951,2.0070443
1.4136271,2.1497786,-1.5870337,-23.13347,-57.549835,-3.6315606
1.5494138,1.9641904,-1.4964074,-27.733553,-56.028618,-8.794992
1.6925253,1.7198881,-1.4010535,-30.671177,-53.990875,-13.214308
1.8391333,1.4548038,-1.2907419,-32.079765,-51.206203,-15.935371
1.9627904,1.1918718,-1.1904799,-33.274918,-48.216457,-17.44395
2.04983,0.9319083,-1.1093134,-34.64945,-45.249794,-17.80136
1.9837356,0.90186,-1.0735449,-33.532215,-43.790764,-17.227375
1.9199102,0.87284327,-1.0390043,-32.45334,-42.38183,-16.673096
1.8582636,0.8448171,-1.0056428,-31.411291,-41.020985,-16.137737
1.79871,0.81774235,-0.97341394,-30.404623,-39.706345,-15.620556
1.7411679,0.79158217,-0.9422737,-29.431955,-38.436108,-15.120842
1.68556,0.7663013,-0.9121802,-28.491982,-37.20857,-14.637925
1.6318127,0.7418663,-0.8830936,-27.583462,-36.022102,-14.171167
1.5798562,0.71824545,-0.85497606,-26.70521,-34.875168,-13.71996
1.5296236,0.6954084,-0.8277916,-25.856102,-33.76629,-13.283726
1.4810517,0.67332625,-0.80150574,-25.035063,-32.69407,-12.861912
1.4340795,0.65197146,-0.7760856,-24.241064,-31.657162,-12.453991
1.3886493,0.6313176,-0.7515,-23.473131,-30.654295,-12.059461
1.3447057,0.6113397,-0.7277189,-22.730328,-29.684244,-11.677841
1.3021957,0.5920135,-0.7047136,-22.011757,-28.745838,-11.30867
1.2610686,0.573316,-0.68245673,-21.31656,-27.837963,-10.95151
1.2212758,0.55522513,-0.660922,-20.643923,-26.959543,-10.605938
1.1827711,0.5377198,-0.6400842,-19.993055,-26.109554,-10.27155
1.1455095,0.5207797,-0.61991924,-19.363201,-25.287008,-9.94796
1.1094486,0.50438535,-0.60040396,-18.753641,-24.490965,-9.634794
1.0745468,0.48851815,-0.58151615,-18.16368,-23.720514,-9.331697
1.040765,0.47316003,-0.5632343,-17.592646,-22.974785,-9.038326
1.0080653,0.45829386,-0.5455381,-17.039904,-22.252941,-8.754352
0.9764111,0.44390297,-0.5284077,-16.504835,-21.554178,-8.479457
0.94576734,0.4299715,-0.5118241,-15.986845,-20.87772,-8.213337
0.91610026,0.41648403,-0.49576905,-15.485366,-20.222822,-7.9556985
0.8873774,0.4034258,-0.480225,-14.999846,-19.588768,-7.70626
0.85956746,0.39078268,-0.465175,-14.529759,-18.974865,-7.4647503
0.8326403,0.37854087,-0.45060274,-14.0745945,-18.380451,-7.2309065
0.8065669,0.36668718,-0.43649253,-13.633861,-17.804884,-7.004477
0.78131926,0.35520893,-0.42282918,-13.207086,-17.247545,-6.7852187
0.7568704,0.3440938,-0.40959808,-12.793812,-16.707838,-6.572897
0.73319423,0.33332998,-0.39678517,-12.3936,-16.185188,-6.3672857
0.71026564,0.32290605,-0.38437685,-12.006026,-15.679044,-6.168167
0.68806046,0.31281096,-0.37236002,-11.630679,-15.188867,-5.9753304
0.6665553,0.3030341,-0.36072195,-11.267164,-14.714141,-5.788573
0.64572746,0.2935652,-0.3494505,-10.915099,-14.254369,-5.6076975
0.62555516,0.28439435,-0.33853382,-10.574117,-13.809069,-5.432515
0.6060174,0.27551198,-0.3279605,-10.243858,-13.377774,-5.262843
0.58709383,0.2669088,-0.31771955,-9.923983,-12.960038,-5.098505
0.56876475,0.2585759,-0.30780032,-9.614155,-12.555425,-4.939329
0.55101115,0.2505046,-0.29819256,-9.314055,-12.163516,-4.7851515
0.53381467,0.24268663,-0.28888628,-9.023374,-11.783906,-4.635812
0.51715755,0.23511386,-0.2798719,-8.74181,-11.416202,-4.4911566
0.5010227,0.2277785,-0.27114013,-8.469072,-11.060025,-4.351036
0.4853934,0.22067301,-0.262682,-8.204882,-10.715012,-4.2153068
0.47025374,0.2137901,-0.2544888,-7.948967,-10.380804,-4.083829
0.4555881,0.2071227,-0.24655214,-7.7010655,-10.057062,-3.9564683
0.4413815,0.200664,-0.23886392,-7.4609237,-9.743453,-3.833094
0.42761946,0.1944074,-0.23141626,-7.228296,-9.439656,-3.71358
0.41428787,0.1883465,-0.22420156,-7.0029445,-9.145364,-3.5978043
0.40137318,0.18247513,-0.21721247,-6.78464,-8.860272,-3.485649
0.38886222,0.17678732,-0.21044187,-6.57316,-8.584095,-3.377
0.37674227,0.17127725,-0.20388289,-6.3682895,-8.316548,-3.2717466
0.36500102,0.16593936,-0.19752884,-6.169821,-8.057362,-3.1697822
0.35362655,0.16076823,-0.19137327,-5.9775515,-7.806271,-3.0710027
0.34260732,0.15575859,-0.18540996,-5.7912874,-7.5630226,-2.9753082
0.3319322,0.15090537,-0.17963286,-5.6108394,-7.32737,-2.882602
0.3215903,0.14620368,-0.17403612,-5.4360247,-7.099074,-2.79279
0.31157124,0.14164874,-0.16861406,-5.2666664,-6.877904,-2.7057812
0.30186486,0.13723595,-0.16336122,-5.102594,-6.6636367,-2.6214879
0.29246134,0.13296086,-0.15827228,-4.9436407,-6.4560547,-2.5398247
0.28335118,0.12881914,-0.15334211,-4.7896466,-6.254949,-2.4607096
0.27452523,0.12480661,-0.14856574,-4.6404567,-6.060117,-2.384062
0.26597455,0.12091924,-0.14393833,-4.4959197,-5.8713613,-2.3098054
0.25769052,0.1171531,-0.13945524,-4.35589,-5.688493,-2.2378643
0.24966481,0.113504395,-0.13511194,-4.220227,-5.511326,-2.1681666
0.24188934,0.10996946,-0.13090408,-4.0887938,-5.339683,-2.1006422
0.23435628,0.106544726,-0.12682737,-3.9614582,-5.173392,-2.0352228
0.22705805,0.10322675,-0.12287777,-3.8380919,-5.012284,-1.9718425
0.2199873,0.1000122,-0.11905127,-3.718571,-4.856198,-1.910438
0.21313693,0.09689783,-0.11534403,-3.6027753,-4.7049766,-1.8509473
0.20650005,0.09388053,-0.11175233,-3.4905882,-4.558468,-1.7933105
0.20007,0.09095725,-0.10827255,-3.3818972,-4.4165254,-1.7374698
0.1938403,0.08812506,-0.10490121,-3.2765932,-4.279005,-1.6833693
0.18780471,0.08538111,-0.101634905,-3.1745703,-4.14577,-1.6309543
0.18195717,0.082722664,-0.098470375,-3.0757258,-4.0166864,-1.5801724
0.1762918,0.080147035,-0.09540443,-2.979961,-3.891624,-1.5309726
0.17080292,0.07765164,-0.092434,-2.8871794,-3.7704575,-1.4833056
0.16548504,0.07523399,-0.0895561,-2.7972882,-3.6530657,-1.4371234
0.1603328,0.072891645,-0.086767845,-2.710197,-3.5393307,-1.3923798
0.15534104,0.07062226,-0.084066436,-2.6258185,-3.4291382,-1.3490298
0.15050477,0.068423554,-0.08144917,-2.544068,-3.322378,-1.3070301
0.14581913,0.06629333,-0.07891343,-2.464864,-3.2189426,-1.2663385
0.14127941,0.06422945,-0.07645666,-2.3881266,-3.118729,-1.2269143
0.13688108,0.062229853,-0.0740764,-2.313779,-3.0216362,-1.1887177
0.13261972,0.060292527,-0.071770266,-2.241747,-2.9275672,-1.1517109
0.12849107,0.05841553,-0.06953595,-2.171958,-2.8364277,-1.1158564
0.124491,0.056596983,-0.06737121,-2.1043425,-2.7481263,-1.0811183
0.120615475,0.054835066,-0.06527388,-2.0388322,-2.6625745,-1.0474622
0.116860636,0.053128015,-0.06324186,-1.9753621,-2.5796869,-1.014854
0.11322271,0.051474117,-0.061273117,-1.9138682,-2.49938,-0.9832611
0.109698065,0.049871717,-0.05936567,-1.854289,-2.4215739,-0.95265204
0.106283166,0.04831921,-0.057517618,-1.796565,-2.3461902,-0.922996
0.10297459,0.04681504,-0.055727106,-1.7406384,-2.2731538,-0.89426327
0.09976903,0.045357708,-0.053992346,-1.686453,-2.2023914,-0.8664252
0.09666328,0.04394575,-0.05231159,-1.6339546,-2.1338322,-0.8394539
0.09365422,0.04257775,-0.05068317,-1.5830908,-2.0674076,-0.8133223
0.090738855,0.041252345,-0.04910545,-1.5338106,-2.003051,-0.78800434
0.08791424,0.0399682,-0.04757685,-1.4860647,-1.9406983,-0.7634746
0.08517758,0.03872404,-0.046095837,-1.4398053,-1.8802866,-0.7397085
0.08252611,0.03751861,-0.044660933,-1.394986,-1.8217556,-0.7166823
0.079957195,0.03635071,-0.043270703,-1.351562,-1.7650471,-0.694373
0.077468246,0.035219166,-0.041923754,-1.30949,-1.7101039,-0.6727583
0.075056784,0.03412285,-0.040618736,-1.2687278,-1.6568711,-0.6518164
0.0727204,0.033060666,-0.039354343,-1.2292345,-1.6052957,-0.6315265
0.07045675,0.032031547,-0.038129315,-1.1909707,-1.5553257,-0.61186826
0.06826357,0.031034468,-0.036942422,-1.153898,-1.5069114,-0.59282196
0.066138655,0.030068427,-0.03579248,-1.1179795,-1.4600043,-0.5743686
0.064079896,0.029132461,-0.034678336,-1.0831791,-1.4145573,-0.5564897
0.06208523,0.02822563,-0.033598874,-1.0494621,-1.3705252,-0.5391674
0.060152654,0.027347028,-0.032553013,-1.0167947,-1.3278638,-0.5223843
0.05828024,0.026495779,-0.031539716,-0.9851442,-1.2865305,-0.50612366
0.056466114,0.025671028,-0.030557957,-0.954479,-1.2464838,-0.49036923
0.05470846,0.02487195,-0.029606761,-0.9247683,-1.2076838,-0.47510523
0.05300552,0.024097746,-0.028685175,-0.89598256,-1.1700915,-0.46031636
0.05135559,0.023347644,-0.027792279,-0.8680929,-1.1336695,-0.44598788
0.049757022,0.022620892,-0.026927175,-0.84107137,-1.0983813,-0.43210542
