ax,ay,az,gx,gy,gz
0.24818407,0.19545633,-2.1054738,34.790318,39.728542,-19.1429
-0.5928678,0.20476824,-2.6093502,18.301073,33.391273,-7.28845
-1.0663487,0.05974164,-2.788271,-0.019872233,27.84695,0.53069496
-1.3078884,-0.3801144,-2.8506305,-10.982389,22.643576,3.9717855
-1.2623323,-0.7904922,-2.922721,-19.039774,19.380188,7.8848376
-1.2996781,-1.0437758,-3.1089432,-23.76736,17.486126,13.084888
-1.4972585,-1.2677468,-3.3311775,-25.83714,14.999084,17.193308
-1.710732,-1.4584135,-3.5367444,-25.972841,10.974254,19.01341
-1.8562405,-1.6091293,-3.6846123,-26.06516,6.041905,19.888145
-1.9625689,-1.8439277,-3.7723622,-25.536333,1.4906436,20.958588
-2.0370426,-2.0696607,-3.8516126,-23.683855,-2.7816107,22.220266
-2.0795987,-2.2112396,-3.9229808,-20.775768,-7.4060016,23.234869
-2.0705721,-2.2315025,-3.9594579,-17.309631,-12.390268,23.525082
-2.0347192,-2.1663764,-3.9654295,-14.392697,-17.907063,23.30774
-2.0231452,-2.1681879,-3.9486444,-12.702118,-23.12209,23.998661
-2.0308957,-2.285984,-3.9152856,-11.243986,-28.112392,25.610743
-1.9820716,-2.4029117,-3.8628762,-9.170845,-32.817406,27.191715
-1.8600724,-2.4109852,-3.7896626,-6.555818,-37.26914,27.989584
-1.6866926,-2.3112588,-3.6926847,-3.87783,-41.34023,28.065521
-1.549085,-2.221819,-3.5632782,-2.5957592,-45.217365,28.842428
-1.4511755,-2.269814,-3.4275827,-1.8954453,-48.71409,30.598515
-1.349557,-2.3837318,-3.2904472,-0.618819,-51.94441,32.70696
-1.2108243,-2.402936,-3.1616669,1.8713785,-54.998207,34.372322
-1.0155808,-2.2902524,-3.0136113,4.4158745,-57.627712,35.294075
-0.8062623,-2.089668,-2.8406818,6.089355,-59.5909,36.39232
-0.6667844,-1.9252042,-2.6764479,6.8139424,-61.05751,38.16336
-0.60055923,-1.8305479,-2.535898,7.0952744,-62.55428,40.493137
-0.51855916,-1.7333678,-2.3942165,7.7526064,-63.967255,42.694195
-0.38930032,-1.5324157,-2.2515366,8.1257715,-65.05004,43.978176
-0.21152349,-1.2964766,-2.0815997,8.076487,-65.69973,44.582153
-0.048368454,-1.1262416,-1.8909421,7.704064,-65.736565,44.704903
0.08270611,-1.0477018,-1.697183,7.3036804,-65.31679,44.7659
0.2084628,-1.0103745,-1.5176029,7.446167,-64.400406,45.05061
0.32713026,-0.90231323,-1.3607107,7.8911133,-63.404408,45.36058
0.4889125,-0.6881251,-1.2004492,7.9330897,-62.117744,45.1397
0.63973886,-0.49163282,-1.0444756,7.5426784,-60.505016,44.469646
0.7545396,-0.3512501,-0.902359,6.6433506,-58.572067,43.61185
0.8268333,-0.3089736,-0.7767026,5.7769165,-56.31243,42.645767
0.85691965,-0.32371905,-0.6761999,5.502539,-53.99465,41.44652
0.874401,-0.32903135,-0.5909213,5.6115584,-51.594017,40.1207
0.87862253,-0.29510552,-0.52343684,5.6603074,-49.250893,38.776398
0.87766755,-0.25618166,-0.4591761,5.7506557,-46.97409,37.24752
0.8746923,-0.21200977,-0.39726004,6.0149846,-44.761086,35.39124
0.8732218,-0.1679214,-0.33968952,6.4378777,-42.648457,33.135513
0.8872144,-0.12735806,-0.2807238,7.11193,-40.623775,30.561525
0.8989525,-0.056907568,-0.2362188,7.208398,-39.016983,27.862135
0.8790039,0.024167234,-0.19865787,6.3002005,-38.144283,25.69753
0.848856,0.02333835,-0.19184433,6.084117,-36.836014,24.81616
0.81991476,0.022542642,-0.18530352,5.8766828,-35.580116,23.970068
0.7921159,0.021778345,-0.1790209,5.677437,-34.373787,23.157375
0.7654,0.02104382,-0.172983,5.4859524,-33.214455,22.376339
0.7397118,0.020337552,-0.1671774,5.3018336,-32.099716,21.625349
0.71500015,0.019658133,-0.16159247,5.1247144,-31.027357,20.902908
0.6912173,0.01900425,-0.15621747,4.9542527,-29.995302,20.20762
0.66831887,0.018374683,-0.15104234,4.79013,-29.001629,19.53819
0.6462634,0.017768294,-0.14605774,4.632049,-28.044535,18.893402
0.62501216,0.017184014,-0.14125487,4.479732,-27.122337,18.272125
0.6045287,0.016620845,-0.13662556,4.332918,-26.233461,17.673296
0.5847791,0.01607785,-0.13216206,4.191364,-25.376427,17.095917
0.56573117,0.015554149,-0.12785718,4.0548396,-24.549845,16.539055
0.54735494,0.015048915,-0.123704076,3.923129,-23.75241,16.00183
0.52962196,0.014561366,-0.11969637,3.7960293,-22.982891,15.483409
0.51250553,0.01409077,-0.115828,3.6733484,-22.240126,14.983013
0.49598038,0.013636428,-0.112093255,3.5549054,-21.523018,14.499903
0.48002258,0.013197686,-0.108486734,3.4405289,-20.83053,14.033379
0.46460947,0.012773921,-0.10500333,3.3300567,-20.16168,13.58278
0.44971967,0.012364541,-0.101638176,3.223335,-19.51554,13.147479
0.43533278,0.01196899,-0.09838669,3.120218,-18.89122,12.726881
0.42142949,0.011586735,-0.095244505,3.0205672,-18.28789,12.32042
0.40799144,0.01121727,-0.092207454,2.9242506,-17.704746,11.927561
0.39500108,0.010860114,-0.08927159,2.8311431,-17.141031,11.54779
0.38244176,0.010514811,-0.08643314,2.7411253,-16.596022,11.18062
0.37029764,0.010180921,-0.08368853,2.654083,-16.069027,10.825589
0.3585535,0.009858029,-0.08103431,2.5699077,-15.559392,10.482251
0.34719488,0.009545737,-0.07846723,2.4884956,-15.066485,10.150184
0.33620793,0.0092436625,-0.075984135,2.4097474,-14.589708,9.828982
0.32557943,0.008951444,-0.07358206,2.3335683,-14.128486,9.51826
0.3152967,0.008668732,-0.07125813,2.2598674,-13.682267,9.217646
0.3053476,0.008395192,-0.069009595,2.188558,-13.250527,8.926785
0.2957205,0.008130506,-0.06683384,2.1195564,-12.83276,8.645339
0.28640422,0.007874366,-0.064728335,2.0527828,-12.428482,8.372979
0.27738813,0.0076264776,-0.06269066,1.9881605,-12.03723,8.109395
0.2686619,0.0073865596,-0.060718503,1.9256158,-11.658555,7.8542852
0.26021567,0.00715434,-0.058809627,1.8650781,-11.292032,7.6073613
0.25203997,0.0069295582,-0.05696189,1.8064792,-10.937248,7.3683457
0.24412566,0.006711963,-0.055173233,1.7497541,-10.593808,7.1369724
0.236464,0.006501314,-0.05344167,1.6948396,-10.261331,6.9129853
0.22904654,0.0062973793,-0.051765297,1.6416754,-9.93945,6.696137
0.22186515,0.006099935,-0.050142277,1.5902033,-9.627815,6.4861903
0.21491201,0.0059087663,-0.048570845,1.5403671,-9.326084,6.2829165
0.2081796,0.005723666,-0.047049295,1.492113,-9.033932,6.0860953
0.20166063,0.005544435,-0.04557599,1.4453888,-8.751042,5.8955145
0.19534813,0.005370879,-0.044149343,1.4001443,-8.477112,5.7109694
0.18923533,0.005202815,-0.04276783,1.3563313,-8.211847,5.5322633
0.18331574,0.005040062,-0.04142998,1.3139031,-7.9549675,5.359205
0.17758307,0.004882449,-0.040134378,1.2728145,-7.7061987,5.191611
0.17203125,0.004729808,-0.038879648,1.2330222,-7.465278,5.0293045
0.16665444,0.0045819785,-0.037664473,1.1944844,-7.231952,4.8721147
0.161447,0.0044388054,-0.036487572,1.1571603,-7.0059757,4.719876
0.15640347,0.004300139,-0.035347715,1.1210111,-6.7871118,4.5724287
0.15151857,0.0041658343,-0.03424371,1.085999,-6.5751324,4.42962
0.14678723,0.0040357513,-0.033174414,1.0520874,-6.3698163,4.2913
0.14220452,0.003909755,-0.032138705,1.0192412,-6.1709504,4.1573253
0.1377657,0.0037877145,-0.031135518,0.9874263,-5.978328,4.027557
0.13346618,0.003669504,-0.030163812,0.9566097,-5.791751,3.9018612
0.12930152,0.0035550012,-0.029222583,0.9267598,-5.611026,3.780108
0.12526742,0.0034440882,-0.028310861,0.8978456,-5.4359665,3.6621716
0.12135973,0.0033366508,-0.027427712,0.8698376,-5.2663927,3.5479312
0.11757445,0.0032325787,-0.026572227,0.84270686,-5.1021314,3.4372694
0.1139077,0.0031317654,-0.02574353,0.8164257,-4.9430127,3.3300724
0.11035572,0.0030341079,-0.02494077,0.7909671,-4.788875,3.2262309
0.106914885,0.0029395057,-0.024163129,0.76630515,-4.63956,3.1256387
0.103581674,0.002847863,-0.023409812,0.7424146,-4.494916,3.0281928
0.100352705,0.0027590857,-0.022680052,0.7192711,-4.354795,2.9337943
0.09722467,0.002673084,-0.021973107,0.6968512,-4.219054,2.842347
0.0941944,0.0025897701,-0.021288255,0.6751319,-4.0875564,2.7537572
0.09125881,0.0025090594,-0.020624802,0.6540913,-3.9601667,2.667936
0.08841493,0.00243087,-0.019982075,0.63370794,-3.8367567,2.5847955
0.08565986,0.0023551227,-0.019359421,0.6139612,-3.717201,2.5042517
0.082990825,0.0022817403,-0.018756209,0.5948311,-3.6013784,2.4262228
0.080405116,0.0022106492,-0.01817183,0.5762982,-3.4891717,2.35063
0.07790011,0.002141777,-0.01760569,0.55834377,-3.3804674,2.2773967
0.075473286,0.002075054,-0.01705722,0.54094964,-3.2751555,2.2064488
0.07312219,0.0020104132,-0.016525863,0.5240983,-3.1731298,2.1377149
0.070844434,0.001947789,-0.016011083,0.5077727,-3.074287,2.0711253
0.068637736,0.0018871182,-0.015512363,0.49195632,-2.9785275,2.0066128
0.06649987,0.0018283399,-0.015029197,0.47663328,-2.8857548,1.9441124
0.06442867,0.0017713945,-0.014561099,0.4617881,-2.7958755,1.8835613
0.062422056,0.001716225,-0.014107597,0.44740582,-2.7087986,1.8248982
0.060478006,0.0016627755,-0.013668235,0.43347198,-2.6244369,1.7680644
0.058594566,0.0016109924,-0.013242572,0.41997254,-2.542705,1.7130022
0.056769837,0.0015608234,-0.012830176,0.4068939,-2.463521,1.6596565
0.05500198,0.0015122183,-0.012430635,0.39422294,-2.3868053,1.6079737
0.05328923,0.001465128,-0.012043548,0.38194692,-2.3124804,1.5579016
0.051629853,0.0014195053,-0.011668523,0.37005344,-2.240472,1.5093901
0.05002219,0.0013753044,-0.011305185,0.3585306,-2.1707077,1.4623902
0.04846462,0.0013324807,-0.010953168,0.34736684,-2.103117,1.416855
0.046955578,0.0012909913,-0.010612121,0.33655092,-2.0376325,1.3727385
0.045493558,0.0012507947,-0.010281699,0.32607195,-1.9741882,1.3299965
0.044077083,0.0012118503,-0.009961571,0.3159195,-1.9127204,1.288586
0.042704735,0.0011741192,-0.009651416,0.3060833,-1.8531675,1.2484658
0.041375138,0.0011375634,-0.009350922,0.2965535,-1.7954699,1.2095952
0.04008696,0.0011021463,-0.00905979,0.28732055,-1.7395694,1.1719354
0.038838904,0.0010678325,-0.008777725,0.27837518,-1.6854101,1.1354488
0.03762972,0.0010345873,-0.008504446,0.26970845,-1.6329379,1.1000986
0.0364582,0.0010023776,-0.008239677,0.26131165,-1.5820998,1.0658493
0.035323165,0.00097117113,-0.007983156,0.2531764,-1.5328451,1.0326668
0.03422348,0.0009409365,-0.007734623,0.24529445,-1.4851243,1.0005176
0.03315804,0.00091164344,-0.0074938303,0.237658,-1.4388897,0.9693697
0.032125782,0.0008832626,-0.007260536,0.23025934,-1.394095,0.9391918
0.031125667,0.00085576554,-0.0070345066,0.2230911,-1.3506951,0.90995365
0.030156696,0.00082912477,-0.006815516,0.21614607,-1.3086467,0.88162595
0.029217897,0.00080331357,-0.0066033443,0.20941728,-1.2679076,0.85418034
0.028308332,0.0007783061,-0.0063977796,0.20289804,-1.2284371,0.82758933
0.027427088,0.0007540772,-0.0061986153,0.19658178,-1.1901957,0.8018263
0.026573284,0.0007306028,-0.0060056522,0.19046219,-1.1531448,0.7768654
0.025746062,0.0007078593,-0.0058186976,0.18453313,-1.1172477,0.7526818
0.024944598,0.0006858239,-0.0056375638,0.17878869,-1.0824682,0.7292511
0.024168085,0.0006644746,-0.00546207,0.17322311,-1.0487716,0.70654994
0.023415752,0.00064379,-0.00529204,0.1678308,-1.0161241,0.68455553
0.022686841,0.0006237494,-0.0051273033,0.16260637,-0.9844931,0.6632459
0.021980623,0.0006043327,-0.0049676956,0.15754461,-0.9538468,0.64259976
0.021296391,0.0005855206,-0.004813057,0.15264043,-0.9241547,0.6225964
0.020633463,0.0005672941,-0.0046632327,0.14788893,-0.89538693,0.6032158
0.019991172,0.00054963503,-0.004518073,0.14328536,-0.86751485,0.58443856
0.019368878,0.0005325257,-0.004377432,0.1388251,-0.8405104,0.56624585
0.018765956,0.0005159491,-0.00424117,0.1345037,-0.81434673,0.54861957
0.018181805,0.0004998885,-0.00410915,0.13031684,-0.78899753,0.531542
0.017615838,0.00048432787,-0.0039812396,0.12626033,-0.7644375,0.51499605
0.017067492,0.00046925168,-0.0038573113,0.12233008,-0.740642,0.49896523
0.016536215,0.00045464482,-0.0037372408,0.11852219,-0.7175873,0.48343346
0.016021477,0.00044049267,-0.0036209084,0.11483284,-0.69525033,0.46838516
0.015522763,0.00042678107,-0.0035081974,0.11125834,-0.67360866,0.45380536
0.015039573,0.00041349634,-0.003398995,0.10779512,-0.65264076,0.4396794
0.014571426,0.00040062514,-0.003293192,0.104439706,-0.63232553,0.42599317
0.014117852,0.0003881546,-0.0031906827,0.10118874,-0.6126427,0.41273302
0.013678397,0.0003760723,-0.0030913644,0.09803898,-0.5935726,0.39988562
0.013252622,0.0003643661,-0.0029951378,0.094987266,-0.5750962,0.38743818
0.0128401015,0.00035302428,-0.0029019066,0.09203055,-0.5571949,0.3753782
0.012440422,0.00034203555,-0.0028115776,0.089165874,-0.53985083,0.36369362
