ax,ay,az,gx,gy,gz
-1.8400166,-0.63909674,-3.6754882,-14.92559,-90.499,34.62395
-1.3988003,-0.19307755,-3.5427978,-18.16719,-99.89969,25.077005
-1.0239924,-0.048597325,-3.382896,-29.081736,-101.52176,24.113323
-0.9559377,-0.3121089,-3.4274764,-41.730522,-99.03653,29.805021
-1.2534902,-0.8237067,-3.6454077,-48.839222,-98.99302,36.231926
-1.4807923,-1.16483,-3.7651548,-46.58488,-103.16568,36.225647
-1.2530292,-1.1945415,-3.6458127,-41.97438,-106.613014,32.754
-0.9265461,-1.1437045,-3.5123794,-39.46089,-108.01092,30.44037
-0.7777461,-1.2233348,-3.437574,-40.019997,-108.70639,31.51264
-0.7526099,-1.4916278,-3.3823016,-39.934937,-109.595276,33.96674
-0.7439717,-1.7765251,-3.3359156,-36.36371,-111.6584,35.11386
-0.5570218,-1.8745222,-3.2203915,-31.648056,-113.43881,34.73368
-0.3086645,-1.8746407,-3.089208,-27.466892,-114.32651,34.53273
-0.101563275,-1.8039489,-2.9675741,-24.832138,-114.522934,35.353897
0.0098212,-1.716008,-2.847069,-23.52109,-114.93135,36.772472
0.08121409,-1.6930611,-2.6969438,-22.110859,-115.931595,38.289436
0.1938035,-1.6748729,-2.5032778,-20.169466,-116.50042,39.545464
0.33673942,-1.610395,-2.3110778,-18.30906,-116.645744,40.63805
0.54312086,-1.485437,-2.0767696,-16.02259,-116.297905,41.060596
0.7776396,-1.262937,-1.7977952,-13.838301,-115.41119,40.714188
1.0011961,-0.993245,-1.4916248,-13.291479,-113.55195,40.343353
1.126563,-0.79048073,-1.2319645,-14.562348,-111.30804,41.157402
1.150749,-0.69043434,-1.0460385,-16.755987,-109.07374,42.894985
1.1436452,-0.707862,-0.8772504,-17.801556,-107.07444,44.12123
1.2050704,-0.715592,-0.66519934,-16.89732,-105.13589,43.852608
1.3435638,-0.6218337,-0.4127949,-14.796456,-102.390785,42.045708
1.4715956,-0.44389397,-0.17897823,-13.237057,-99.18752,40.328384
1.5504208,-0.2506425,0.0034524922,-13.344814,-95.77379,39.55024
1.5621591,-0.11621241,0.13951492,-14.662578,-92.37485,39.72899
1.5196527,-0.058003835,0.24209164,-15.993758,-89.18722,40.043453
1.4662418,-0.06628666,0.33353198,-16.228716,-86.02182,39.466938
1.4400688,-0.08987467,0.41517335,-15.513739,-82.81968,38.40992
1.4199758,-0.07767338,0.47899938,-14.445877,-79.55405,37.290424
1.388138,-0.05030028,0.52931863,-13.578436,-76.36395,36.2443
1.347783,-0.008191293,0.5726852,-12.942066,-73.32013,35.31081
1.3003646,0.031159503,0.60591125,-12.579544,-70.399055,34.57302
1.2488368,0.035238285,0.6291375,-12.027582,-67.56786,33.893314
1.198765,0.03104377,0.64781815,-11.01924,-64.83291,33.07147
1.1615245,0.041906495,0.66984916,-9.412122,-62.130352,31.813255
1.1417965,0.07781748,0.7036049,-7.5704103,-59.450104,30.060797
1.1377126,0.13738239,0.7456901,-6.129519,-56.959587,27.891832
1.1408436,0.20677914,0.7800657,-5.6622443,-54.96456,25.728743
1.1002754,0.19942608,0.75232667,-5.460895,-53.01003,24.81383
1.0614681,0.19239224,0.72579175,-5.268287,-51.14034,23.938635
1.0243158,0.18565834,0.7003884,-5.083892,-49.35038,23.100761
0.9887209,0.17920673,0.67604995,-4.9072275,-47.63546,22.298012
0.95459425,0.17302124,0.65271544,-4.7378497,-45.991276,21.528374
0.9218537,0.16708699,0.6303287,-4.5753517,-44.413876,20.789997
0.8904237,0.16139026,0.608838,-4.419358,-42.899612,20.081175
0.8602343,0.15591839,0.5881957,-4.2695217,-41.44512,19.400333
0.8312209,0.1506597,0.5683574,-4.125522,-40.04729,18.746012
0.8033237,0.14560328,0.5492823,-3.9870625,-38.70323,18.116863
0.77648693,0.14073908,0.53093237,-3.8538659,-37.410267,17.51163
0.75065887,0.13605773,0.5132721,-3.725676,-36.165897,16.929146
0.72579134,0.13155046,0.49626863,-3.6022532,-34.967808,16.368322
0.7018392,0.12720911,0.47989106,-3.4833736,-33.81382,15.828145
0.6787604,0.12302605,0.46411067,-3.3688288,-32.701912,15.307664
0.6565155,0.11899414,0.44890043,-3.2584226,-31.630177,14.805987
0.6350674,0.11510666,0.43423507,-3.1519716,-30.596834,14.322284
0.6143815,0.11135731,0.42009082,-3.049303,-29.600208,13.855766
0.59442496,0.10774017,0.4064453,-2.9502547,-28.638727,13.4057
0.57516706,0.104249656,0.39327747,-2.8546736,-27.710901,12.971388
0.5565787,0.10088049,0.38056746,-2.762416,-26.815336,12.5521755
0.53863245,0.097627714,0.3682965,-2.6733449,-25.950705,12.147445
0.52130234,0.09448661,0.3564468,-2.5873318,-25.11576,11.75661
0.5045638,0.09145273,0.34500164,-2.504255,-24.309317,11.379116
0.48839355,0.08852185,0.333945,-2.4239986,-23.53025,11.014438
0.47276944,0.08568997,0.32326186,-2.346453,-22.7775,10.662077
0.45767054,0.08295328,0.3129378,-2.271514,-22.05005,10.321561
0.44307685,0.080308154,0.30295917,-2.1990824,-21.346943,9.992438
0.42896938,0.07775116,0.29331303,-2.129064,-20.667261,9.674281
0.41533005,0.07527902,0.28398696,-2.0613692,-20.010134,9.366682
0.40214157,0.07288859,0.2749692,-1.9959122,-19.374727,9.06925
0.3893875,0.0705769,0.26624843,-1.932611,-18.76025,8.781615
0.37705207,0.06834109,0.25781393,-1.8713878,-18.165945,8.503423
0.3651203,0.06617845,0.24965544,-1.8121679,-17.591085,8.234332
0.3535778,0.064086355,0.24176311,-1.7548801,-17.03498,7.9740214
0.3424108,0.062062323,0.23412754,-1.6994559,-16.496967,7.722179
0.33160612,0.060103964,0.2267397,-1.64583,-15.976409,7.4785075
0.3211511,0.058208987,0.21959098,-1.5939398,-15.472699,7.242723
0.31103373,0.056375194,0.21267308,-1.5437249,-14.985254,7.014551
0.30124226,0.054600485,0.20597805,-1.4951279,-14.513513,6.7937307
0.2917656,0.05288283,0.19949828,-1.4480933,-14.056938,6.5800095
0.28259304,0.051220294,0.19322643,-1.402568,-13.615015,6.3731465
0.27371427,0.049611006,0.18715546,-1.3585007,-13.187245,6.172909
0.26511937,0.04805317,0.18127859,-1.3158425,-12.773152,5.9790735
0.25679883,0.046545066,0.17558932,-1.274546,-12.372279,5.7914257
0.2487435,0.045085028,0.17008139,-1.2345657,-11.984182,5.6097584
0.24094455,0.04367146,0.16474876,-1.1958579,-11.608437,5.4338737
0.23339348,0.042302817,0.15958562,-1.1583803,-11.244635,5.263579
0.2260821,0.040977623,0.15458639,-1.1220925,-10.892381,5.09869
0.21900254,0.039694447,0.14974564,-1.0869551,-10.551295,4.9390287
0.21214719,0.038451906,0.14505821,-1.0529306,-10.221013,4.7844243
0.20550872,0.03724868,0.14051908,-1.0199825,-9.901178,4.6347113
0.19908006,0.03608348,0.13612342,-0.98807573,-9.591454,4.48973
0.1928544,0.03495507,0.13186654,-0.9571765,-9.291509,4.349326
0.18682516,0.033862263,0.12774397,-0.9272521,-9.001026,4.213352
0.18098597,0.032803904,0.12375136,-0.89827096,-8.719701,4.081665
0.17533071,0.03177888,0.119884506,-0.8702028,-8.447236,3.9541252
0.16985345,0.030786121,0.11613936,-0.843018,-8.183348,3.8306
0.16454849,0.029824588,0.11251202,-0.8166883,-7.9277606,3.7109601
0.15941027,0.028893283,0.10899871,-0.7911863,-7.680207,3.595081
0.15443347,0.027991232,0.10559576,-0.7664854,-7.4404306,3.4828424
0.14961293,0.027117506,0.10229966,-0.7425601,-7.2081823,3.3741279
0.14494367,0.026271196,0.099107,-0.71938556,-6.983223,3.268825
0.14042085,0.025451433,0.09601447,-0.6969379,-6.765319,3.1668248
0.13603985,0.024657369,0.0930189,-0.675194,-6.5542464,3.0680225
0.13179612,0.02388819,0.0901172,-0.65413153,-6.3497887,2.9723165
0.12768532,0.023143103,0.087306395,-0.6337288,-6.1517353,2.8796084
0.12370325,0.022421347,0.0845836,-0.613965,-5.959883,2.789803
0.119845815,0.021722184,0.08194604,-0.5948197,-5.7740364,2.7028086
0.11610908,0.021044897,0.079390995,-0.5762735,-5.594005,2.6185365
0.11248924,0.020388795,0.07691588,-0.55830747,-5.419605,2.5369003
0.108982585,0.01975321,0.07451817,-0.5409032,-5.250658,2.4578168
0.10558555,0.019137494,0.0721954,-0.524043,-5.086993,2.3812058
0.10229469,0.018541023,0.06994524,-0.5077098,-4.928443,2.306989
0.09910666,0.017963188,0.067765385,-0.49188694,-4.774847,2.2350912
0.09601822,0.017403405,0.06565362,-0.47655836,-4.6260495,2.1654394
0.09302623,0.016861103,0.06360781,-0.4617085,-4.481899,2.097963
0.09012766,0.016335737,0.061625887,-0.44732234,-4.3422494,2.0325935
0.0873196,0.015826771,0.059705835,-0.43338528,-4.2069597,1.9692649
0.084599175,0.015333692,0.05784571,-0.41988328,-4.075893,1.9079129
0.08196365,0.014856,0.056043644,-0.40680262,-3.9489164,1.8484756
0.07941037,0.014393214,0.054297805,-0.39413014,-3.825902,1.790893
0.07693674,0.013944867,0.05260643,-0.381853,-3.7067256,1.7351067
0.07454028,0.013510506,0.05096782,-0.36995888,-3.5912666,1.6810608
0.07221856,0.013089691,0.049380317,-0.35843572,-3.4794087,1.6287005
0.069969244,0.012682001,0.047842324,-0.34727192,-3.3710394,1.5779731
0.067790076,0.0122870235,0.046352286,-0.3364562,-3.2660494,1.5288277
0.06567884,0.011904361,0.044908706,-0.32597774,-3.1643326,1.4812144
0.063633434,0.011533628,0.043510135,-0.31582597,-3.0657873,1.4350855
0.061651785,0.0111744525,0.042155158,-0.30599064,-2.9703135,1.3903947
0.059731904,0.010826472,0.040842418,-0.29646185,-2.877816,1.3470968
0.057871863,0.010489337,0.03957059,-0.28723007,-2.788201,1.3051484
0.056069788,0.010162709,0.0383384,-0.278286,-2.7013793,1.2645073
0.05432387,0.00984626,0.03714461,-0.26962066,-2.6172628,1.2251327
0.052632358,0.009539671,0.035988014,-0.2612253,-2.5357678,1.186985
0.050993547,0.009242635,0.034867458,-0.25309157,-2.4568117,1.150026
0.0494058,0.008954854,0.033781815,-0.24521124,-2.3803158,1.1142185
0.047867514,0.008676038,0.032729995,-0.23757641,-2.306203,1.0795264
0.046377152,0.008405909,0.03171094,-0.23017944,-2.2343988,1.0459152
0.044933215,0.008144193,0.030723631,-0.22301288,-2.1648316,1.0133511
0.043534257,0.007890631,0.029767077,-0.21606956,-2.0974314,0.9818012
0.042178873,0.0076449662,0.028840318,-0.20934252,-2.0321307,0.9512341
0.04086571,0.0074069537,0.027942425,-0.202825,-1.9688638,0.92161906
0.039593443,0.007176354,0.027072497,-0.19651048,-1.9075674,0.8929264
0.0383608,0.0069529363,0.026229663,-0.19039261,-1.84818,0.8651274
0.037166543,0.0067364764,0.025413077,-0.18446529,-1.7906423,0.83819413
0.036009483,0.0065267575,0.024621923,-0.17872255,-1.7348963,0.81209964
0.034888454,0.00632357,0.023855405,-0.17315865,-1.6808864,0.7868177
0.033802334,0.0061267093,0.023112757,-0.16776802,-1.6285584,0.76232314
0.032750037,0.0059359795,0.022393236,-0.16254523,-1.5778599,0.7385913
0.031730507,0.0057511884,0.021696119,-0.1574851,-1.52874,0.71559846
0.030742722,0.0055721514,0.021020709,-0.15258251,-1.4811497,0.6933216
0.029785695,0.0053986893,0.02036633,-0.14783259,-1.4350412,0.6717383
0.028858466,0.005230628,0.019732326,-0.14323056,-1.3903683,0.6508271
0.027960107,0.0050677997,0.019118063,-0.13877182,-1.3470865,0.630567
0.02708972,0.004910041,0.018522926,-0.13445191,-1.3051522,0.6109377
0.026246432,0.0047571943,0.017946318,-0.1302665,-1.2645236,0.5919196
0.025429402,0.004609106,0.017387662,-0.1262114,-1.2251599,0.57349354
0.024637805,0.004465629,0.0168464,-0.12228255,-1.1870217,0.55564123
0.023870857,0.0043266183,0.016321989,-0.118476026,-1.150071,0.5383447
0.023127785,0.004191936,0.015813904,-0.114788,-1.1142707,0.52158666
0.022407847,0.0040614465,0.0153216375,-0.1112148,-1.0795848,0.50535035
0.021710323,0.0039350195,0.014844697,-0.107752845,-1.0459789,0.4896195
0.021034515,0.0038125282,0.0143826045,-0.10439866,-1.0134192,0.4743784
0.020379744,0.0036938505,0.013934897,-0.1011489,-0.9818731,0.45961177
0.019745357,0.0035788675,0.013501128,-0.09800032,-0.95130914,0.44530487
0.019130722,0.003467464,0.013080863,-0.094949745,-0.9216966,0.43144333
0.01853522,0.0033595285,0.012673682,-0.091994144,-0.89300597,0.41801333
0.017958255,0.003254953,0.012279175,-0.08913055,-0.8652085,0.40500143
0.017399251,0.003153633,0.01189695,-0.0863561,-0.8382763,0.39239457
0.01685765,0.0030554673,0.011526624,-0.08366802,-0.8121826,0.38018018
0.01633291,0.0029603573,0.011167825,-0.08106362,-0.7869012,0.368346
0.015824504,0.0028682083,0.010820196,-0.078540295,-0.76240677,0.35688025
0.015331924,0.0027789278,0.010483389,-0.07609552,-0.7386748,0.3457714
0.014854678,0.0026924263,0.010157066,-0.073726855,-0.7156817,0.33500838
0.014392288,0.0026086178,0.009840902,-0.07143192,-0.69340426,0.32458037
0.013944292,0.002527418,0.00953458,-0.06920842,-0.6718203,0.314477
0.013510242,0.002448746,0.009237792,-0.06705414,-0.65090823,0.30468816
