ax,ay,az,gx,gy,gz
-0.28727534,-0.5309139,-1.1700106,10.986464,-12.096474,4.8827715
-0.6587884,-0.5790781,-1.4287271,12.17884,-13.137804,5.028203
-1.0611984,-0.7600258,-1.6398426,11.951383,-16.545328,7.308719
-1.3612839,-0.9335881,-1.7808903,9.473836,-22.192226,9.314742
-1.5080249,-1.0646818,-1.866741,5.7861843,-28.073929,10.872932
-1.4532437,-1.1853766,-1.8816779,3.111506,-32.043877,12.033028
-1.3073417,-1.3555964,-1.8404757,2.3538375,-33.69896,12.615352
-1.2332816,-1.5671425,-1.828729,4.2823234,-34.771774,11.927413
-1.1914278,-1.7411608,-1.858215,7.9454393,-36.28347,9.646371
-1.1173244,-1.8158156,-1.907804,12.315336,-38.537613,5.3372083
-0.97878027,-1.8481992,-1.954833,16.814157,-41.102905,-0.31855765
-0.8066652,-1.8798865,-1.9719057,20.897373,-43.1251,-6.3698215
-0.68596137,-1.9712051,-1.9580445,23.307707,-44.23307,-9.563185
-0.61434466,-2.16195,-1.8955053,24.866169,-44.454308,-9.120165
-0.5651872,-2.2983243,-1.8467607,26.232197,-44.39674,-6.0331845
-0.48864257,-2.3270693,-1.8061023,27.417162,-44.346115,-2.2568734
-0.39551824,-2.2631016,-1.7652129,28.355488,-44.29734,0.797134
-0.3305765,-2.2166877,-1.7112697,29.412283,-44.294468,2.6371207
-0.312189,-2.23384,-1.6446918,31.015047,-44.327374,3.5829253
-0.33510664,-2.292592,-1.5695091,32.92472,-44.207302,5.0582533
-0.33843246,-2.2794487,-1.502152,35.12072,-44.078426,7.2527723
-0.30670252,-2.1393106,-1.4478106,36.893135,-44.02402,9.974077
-0.26075044,-1.9282486,-1.3858777,37.284225,-44.016987,12.760026
-0.21933372,-1.7454132,-1.2915232,37.141846,-43.739803,15.258723
-0.21007821,-1.6067034,-1.2060667,37.04775,-43.307064,17.569466
-0.21672022,-1.4642977,-1.1274238,37.340725,-43.063293,19.558517
-0.18174674,-1.2335203,-1.0533801,37.404495,-42.929867,21.123772
-0.1202873,-0.96741813,-0.971872,36.50525,-42.622738,22.495892
-0.07617749,-0.756387,-0.8842855,34.964714,-42.180313,24.037283
-0.048737265,-0.603085,-0.80839026,33.043423,-41.53871,25.879526
-0.020171855,-0.49449155,-0.7352768,31.351398,-40.83202,27.823355
0.043554254,-0.3361503,-0.66251343,29.867125,-40.20622,28.983469
0.13353856,-0.17678198,-0.57644844,28.483727,-39.557114,29.118158
0.2116166,-0.07552158,-0.48379132,27.385382,-38.75358,28.581663
0.27885517,-0.0064135585,-0.39533293,26.189127,-37.748695,28.317907
0.34333497,0.03122184,-0.30705595,24.760307,-36.37973,28.533133
0.41703808,0.06642606,-0.21654494,23.267485,-34.599785,28.737482
0.48441747,0.12833473,-0.1455187,21.83909,-32.428543,28.197258
0.53776294,0.20899194,-0.105848394,19.98328,-29.813766,27.52743
0.6064787,0.26610795,-0.06416899,17.813057,-26.868988,26.808786
0.5845207,0.25647333,-0.06184571,17.168123,-25.89618,25.838158
0.56355333,0.24727336,-0.05962724,16.552284,-24.967257,24.911316
0.5435134,0.23848034,-0.057506897,15.963687,-24.079422,24.02547
0.5243435,0.23006903,-0.055478603,15.4006405,-23.230131,23.178082
0.505991,0.22201641,-0.053536803,14.861604,-22.417055,22.366829
0.48840785,0.21430135,-0.051676404,14.345165,-21.638065,21.589582
0.47154996,0.20690453,-0.049892742,13.850028,-20.891207,20.844398
0.45537683,0.19980817,-0.04818153,13.375002,-20.174683,20.12948
0.43985105,0.19299582,-0.04653881,12.918989,-19.48684,19.443178
0.42493808,0.18645239,-0.044960935,12.480977,-18.826147,18.783966
0.4106061,0.18016386,-0.04344452,12.060027,-18.191193,18.150434
0.3968254,0.17411724,-0.041986447,11.655272,-17.580664,17.541273
0.3835686,0.16830048,-0.0405838,11.265902,-16.993343,16.955269
0.37081006,0.16270235,-0.039233875,10.891168,-16.428099,16.39129
0.35852602,0.15731241,-0.037934147,10.530369,-15.883875,15.848286
0.34669414,0.15212087,-0.036682267,10.182852,-15.359685,15.325271
0.3352937,0.14711863,-0.035476033,9.848006,-14.854608,14.821324
0.32430518,0.14229713,-0.03431338,9.525259,-14.36778,14.3355875
0.31371027,0.13764836,-0.03319238,9.214073,-13.898391,13.86725
0.30349186,0.13316476,-0.032111213,8.913945,-13.445682,13.415556
0.29363373,0.12883927,-0.031068165,8.6244,-13.008935,12.979788
0.28412074,0.12466519,-0.030061634,8.344991,-12.587478,12.559275
0.27493846,0.12063624,-0.029090095,8.075295,-12.180674,12.153381
0.26607338,0.11674646,-0.028152118,7.8149166,-11.787921,11.761509
0.25751266,0.11299022,-0.027246343,7.563477,-11.408653,11.383091
0.24924417,0.109362215,-0.026371488,7.320621,-11.042332,11.0175905
0.24125639,0.10585737,-0.025526335,7.0860095,-10.688447,10.664498
0.2335384,0.10247091,-0.024709728,6.8593225,-10.346515,10.323333
0.22607985,0.09919828,-0.02392057,6.6402555,-10.016077,9.993635
0.21887086,0.09603516,-0.023157816,6.4285183,-9.696695,9.67497
0.21190207,0.09297742,-0.022420477,6.223836,-9.387955,9.36692
0.20516452,0.09002115,-0.021707604,6.025945,-9.089459,9.069094
0.19864967,0.0871626,-0.021018296,5.8345957,-8.800831,8.781112
0.19234942,0.0843982,-0.020351693,5.6495495,-8.5217085,8.502615
0.18625599,0.08172455,-0.019706972,5.4705772,-8.251749,8.233261
0.18036194,0.07913838,-0.019083347,5.2974615,-7.9906235,7.97272
0.17466018,0.07663659,-0.018480066,5.1299934,-7.738017,7.7206793
0.1691439,0.07421619,-0.017896414,4.967973,-7.493628,7.476838
0.16380662,0.07187431,-0.017331697,4.81121,-7.257169,7.2409086
0.15864207,0.06960824,-0.016785257,4.659521,-7.0283623,7.0126147
0.15364426,0.06741533,-0.01625646,4.512729,-6.806944,6.7916923
0.1488075,0.06529307,-0.015744703,4.370667,-6.5926585,6.5778875
0.14412622,0.063239045,-0.015249397,4.233172,-6.385263,6.3709564
0.13959517,0.061250925,-0.014769984,4.100089,-6.184522,6.1706653
0.13520923,0.059326485,-0.014305927,3.9712684,-5.990211,5.9767895
0.13096353,0.05746358,-0.013856706,3.846567,-5.8021126,5.7891126
0.12685336,0.055660136,-0.013421826,3.7258458,-5.6200185,5.6074266
0.122874185,0.053914174,-0.013000807,3.6089725,-5.4437284,5.4315314
0.11902166,0.05222378,-0.012593187,3.4958189,-5.273049,5.2612343
0.11529159,0.050587114,-0.012198524,3.3862617,-5.1077943,5.0963497
0.11167992,0.0490024,-0.011816388,3.2801824,-4.9477854,4.9367
0.10818276,0.047467936,-0.011446368,3.1774664,-4.79285,4.782111
0.10479636,0.045982067,-0.011088067,3.0780034,-4.6428213,4.6324186
0.10151709,0.044543203,-0.010741102,2.981687,-4.497539,4.487462
0.098341465,0.043149818,-0.010405102,2.888415,-4.3568487,4.347087
0.09526612,0.041800432,-0.010079712,2.798088,-4.2206006,4.211144
0.092287794,0.040493615,-0.0097645875,2.7106109,-4.088651,4.07949
0.08940335,0.039227996,-0.009459398,2.6258912,-3.960861,3.9519866
0.08660977,0.038002238,-0.00916382,2.5438402,-3.8370962,3.8284988
0.08390412,0.036815066,-0.0088775465,2.4643717,-3.717227,3.7088983
0.08128357,0.035665233,-0.008600277,2.3874028,-3.601128,3.5930595
0.078745395,0.034551546,-0.0083317235,2.3128533,-3.4886787,3.4808621
0.076286964,0.033472843,-0.008071606,2.240646,-3.379762,3.3721893
0.073905714,0.03242801,-0.007819656,2.1707058,-3.274265,3.2669287
0.0715992,0.03141597,-0.0075756134,2.1029603,-3.1720786,3.1649714
0.069365025,0.030435666,-0.0073392247,2.0373397,-3.0730975,3.066212
0.06720089,0.0294861,-0.007110247,1.9737765,-2.9772193,2.9705486
0.06510458,0.02856629,-0.006888445,1.912205,-2.8843458,2.8778832
0.06307393,0.027675292,-0.0066735903,1.8525623,-2.7943814,2.7881205
0.061106868,0.026812192,-0.0064654634,1.794787,-2.7072341,2.7011683
0.059201375,0.025976108,-0.006263851,1.7388203,-2.6228144,2.6169379
0.057355504,0.025166186,-0.0060685473,1.6846048,-2.5410364,2.535343
0.055567373,0.024381598,-0.005879353,1.6320851,-2.4618163,2.4563005
0.053835157,0.023621544,-0.005696074,1.5812076,-2.3850737,2.3797297
0.052157097,0.022885252,-0.0055185254,1.5319208,-2.31073,2.3055525
0.05053148,0.02217197,-0.005346526,1.4841744,-2.2387097,2.2336938
0.048956655,0.021480978,-0.0051799,1.4379197,-2.1689398,2.1640804
0.047431026,0.020811569,-0.0050184797,1.3931102,-2.1013496,2.0966413
0.045953047,0.020163067,-0.004862101,1.3497,-2.0358703,2.0313087
0.044521216,0.019534815,-0.004710605,1.3076452,-1.9724355,1.9680161
0.043134086,0.018926177,-0.0045638382,1.2669035,-1.9109812,1.9066994
0.041790254,0.018336536,-0.004421653,1.2274334,-1.851445,1.8472967
0.040488362,0.017765298,-0.004283905,1.1891952,-1.7937669,1.7897477
0.03922709,0.017211884,-0.0041504554,1.15215,-1.7378885,1.7339946
0.03800517,0.016675735,-0.004021169,1.1162606,-1.6837534,1.6799808
0.036821365,0.01615631,-0.0038959158,1.0814908,-1.631307,1.6276519
0.035674486,0.015653087,-0.003774569,1.0478054,-1.5804964,1.5769552
0.03456337,0.015165558,-0.0036570067,1.0151706,-1.5312704,1.5278394
0.033486903,0.01469323,-0.00354311,0.98355335,-1.4835794,1.4802554
0.032444,0.01423563,-0.003432765,0.9529219,-1.4373753,1.4341547
0.031433612,0.013792296,-0.0033258596,0.9232455,-1.3926117,1.3894916
0.030454718,0.013362781,-0.003222287,0.8944941,-1.3492435,1.3462205
0.029506335,0.012946655,-0.0031219427,0.8666389,-1.3072271,1.3042983
0.028587513,0.012543498,-0.003024726,0.83965194,-1.2665203,1.2636826
0.027697325,0.012152906,-0.0029305387,0.81350595,-1.227082,1.2243327
0.026834877,0.011774485,-0.0028392868,0.78817475,-1.1888728,1.1862091
0.025999304,0.011407856,-0.0027508782,0.7636329,-1.1518542,1.1492734
0.025189767,0.01105265,-0.0026652245,0.73985577,-1.115989,1.1134886
0.02440545,0.010708512,-0.0025822392,0.7168194,-1.0812413,1.0788187
0.023645569,0.010375095,-0.0025018393,0.6945007,-1.0475761,1.0452288
0.02290936,0.010052064,-0.0024239442,0.6728773,-1.0149596,1.0126855
0.022196086,0.009739097,-0.0023484756,0.65192753,-0.9833592,0.98115593
0.02150503,0.009435878,-0.0022753577,0.6316303,-0.9527431,0.95060843
0.020835498,0.009142105,-0.0022045174,0.6119653,-0.92308074,0.9210125
0.020186821,0.008857481,-0.0021358836,0.59291285,-0.8943422,0.89233834
0.019558348,0.008581722,-0.0020693874,0.5744538,-0.86649877,0.8645573
0.018949447,0.008314552,-0.0020049622,0.5565696,-0.8395225,0.8376415
0.01835951,0.008055702,-0.0019425434,0.5392424,-0.8133864,0.8115639
0.017787946,0.0078049134,-0.0018820686,0.5224548,-0.7880642,0.78629845
0.01723418,0.0075619346,-0.001823477,0.50619,-0.76353055,0.7618198
0.01669766,0.0073265224,-0.00176671,0.49043167,-0.73976094,0.73810345
0.016177846,0.007098441,-0.0017117106,0.4751641,-0.7167315,0.71512556
0.015674219,0.006877462,-0.0016584239,0.4603719,-0.69441915,0.6928632
0.0151862735,0.0066633634,-0.0016067964,0.44604033,-0.67280155,0.6712941
0.014713521,0.0064559313,-0.0015567766,0.432155,-0.65185714,0.6503966
0.014255489,0.0062549585,-0.001508314,0.418702,-0.6315648,0.6301497
0.01381172,0.006060243,-0.0014613606,0.4056679,-0.6119043,0.6105333
0.013381766,0.0058715898,-0.001415869,0.39303964,-0.592856,0.59152764
0.0129652,0.0056888107,-0.0013717938,0.38080454,-0.5744007,0.57311374
0.012561602,0.005511722,-0.0013290909,0.36895037,-0.55652004,0.5552731
0.012170571,0.0053401473,-0.0012877175,0.35746527,-0.5391961,0.53798795
0.011791714,0.005173914,-0.0012476322,0.34633774,-0.52241147,0.52124095
0.011424651,0.0050128563,-0.0012087949,0.33555666,-0.5061494,0.5050154
0.0110690165,0.0048568123,-0.0011711667,0.3251112,-0.49039364,0.4892949
0.010724454,0.004705627,-0.0011347099,0.31499097,-0.47512838,0.4740638
0.010390618,0.0045591476,-0.0010993881,0.3051858,-0.46033835,0.45930696
0.010067175,0.004417229,-0.001065166,0.29568586,-0.4460088,0.44500947
0.009753802,0.0042797285,-0.0010320093,0.28648168,-0.4321253,0.4311571
0.009450184,0.0041465084,-0.0009998847,0.27756402,-0.41867405,0.41773596
0.009156018,0.0040174355,-0.00096876017,0.268924,-0.40564153,0.40473267
0.00887101,0.0038923807,-0.0009386046,0.2605529,-0.39301473,0.39213413
0.008594873,0.0037712192,-0.00090938783,0.25244245,-0.380781,0.3799278
0.008327333,0.0036538292,-0.0008810805,0.24458447,-0.3689281,0.36810148
0.008068122,0.0035400935,-0.00085365446,0.2369711,-0.3574442,0.35664332
0.00781698,0.0034298985,-0.00082708214,0.22959472,-0.34631777,0.34554183
0.007573656,0.003323134,-0.000801337,0.22244798,-0.3355377,0.3347859
0.007337906,0.0032196927,-0.00077639334,0.2155237,-0.32509324,0.32436484
0.007109495,0.0031194717,-0.0007522261,0.208815,-0.3149739,0.31426817
0.006888194,0.0030223704,-0.0007288112,0.2023151,-0.30516952,0.30448577
0.006673782,0.0029282917,-0.00070612517,0.19601755,-0.2956704,0.2950079
