ax,ay,az,gx,gy,gz
-0.39545813,-0.13091028,-1.1436467,7.269157,-15.203775,21.307467
0.004992402,-0.22815229,-0.899864,3.7475147,-5.197123,20.228523
-0.04768119,-0.44817907,-0.9432122,6.95477,0.44700935,16.649937
-0.36282668,-0.58326906,-1.2687544,10.616414,2.7433026,13.291192
-0.823772,-0.8628012,-1.58489,14.133542,0.20290424,11.066113
-1.1571064,-1.1857048,-1.8056718,18.168097,-3.8103757,7.941976
-1.3286494,-1.3887051,-2.0212367,21.272257,-8.745974,5.6934543
-1.3095922,-1.4354899,-2.2104595,22.242365,-12.5941105,4.594451
-1.236112,-1.4823161,-2.345543,21.587559,-15.302197,4.482762
-1.1770157,-1.5803852,-2.4643707,20.370861,-17.156834,5.2882767
-1.2140445,-1.7329477,-2.6107783,19.131153,-19.55878,6.9526553
-1.2805508,-1.9517812,-2.7437317,18.11393,-23.494965,8.120491
-1.2542121,-2.1781888,-2.8314552,17.953522,-27.61512,8.800423
-1.2075008,-2.3649561,-2.8621259,17.751236,-31.352095,9.532728
-1.2212509,-2.583407,-2.839424,17.993563,-34.89603,11.249223
-1.2368884,-2.766214,-2.7676132,18.94168,-38.22899,14.159302
-1.1944231,-2.8176377,-2.6774156,21.008802,-41.254585,17.225124
-1.0520194,-2.687657,-2.5866978,22.866766,-44.268814,19.475502
-0.8341516,-2.523769,-2.456495,24.1903,-46.603966,20.67342
-0.6661707,-2.4006057,-2.311702,25.309355,-48.29429,21.443916
-0.59001917,-2.3145435,-2.181841,25.966406,-49.821796,22.767841
-0.536048,-2.2567568,-2.0482728,26.718855,-51.081543,25.409328
-0.39683837,-2.060191,-1.896593,27.706926,-52.237778,27.585436
-0.17527473,-1.7268009,-1.7286065,28.287178,-53.02352,28.665442
0.063169815,-1.3363739,-1.5521706,27.72767,-53.08789,28.952751
0.2442091,-1.0604709,-1.3688082,26.248066,-52.291344,29.436232
0.3116503,-0.9271695,-1.2168952,25.00572,-51.41537,30.427584
0.30845356,-0.88214815,-1.0804061,24.598318,-51.0464,31.16472
0.3792311,-0.7359829,-0.9347465,24.850616,-50.9246,31.12632
0.52984816,-0.4698438,-0.7811761,24.546255,-50.418797,30.721949
0.6823028,-0.19352995,-0.62950736,23.299656,-49.137054,30.564367
0.75345564,0.010791544,-0.5059546,21.26139,-47.515186,30.813288
0.7575996,0.11913583,-0.41791096,19.135437,-45.960457,31.250902
0.7690426,0.19569299,-0.33110687,17.580526,-44.5751,31.55629
0.81556547,0.3371426,-0.2546751,15.959138,-43.08344,31.451967
0.86791235,0.4961583,-0.19672585,13.675948,-41.421265,31.303942
0.90475464,0.60931677,-0.15146285,10.653981,-39.67454,31.258028
0.91709644,0.6235809,-0.10215254,7.7148256,-37.888466,31.102634
0.9199752,0.5853125,-0.04143223,5.2509546,-35.985374,30.675022
0.9333958,0.54537123,0.024475044,3.269056,-33.99553,29.928312
0.98084706,0.5242499,0.095312305,1.5463531,-31.502895,29.196114
1.0261576,0.5241692,0.15438071,0.18819079,-28.62353,28.536335
0.9896676,0.5055298,0.14889094,0.18149874,-27.605679,27.521585
0.95476156,0.48769957,0.1436395,0.1750972,-26.632015,26.550886
0.92134404,0.4706296,0.13861199,0.16896863,-25.69987,25.62158
0.8893274,0.45427528,0.13379523,0.163097,-24.8068,24.731234
0.85863143,0.43859553,0.12917715,0.15746754,-23.950571,23.877611
0.8291822,0.42355266,0.12474666,0.15206675,-23.129118,23.05866
0.8009118,0.4091119,0.1204935,0.14688212,-22.340546,22.27249
0.7737572,0.39524114,0.11640823,0.14190215,-21.5831,21.517351
0.7476605,0.38191074,0.11248209,0.13711618,-20.85516,20.79163
0.7225677,0.36909312,0.108706996,0.13251431,-20.155224,20.093826
0.69842875,0.35676277,0.1050754,0.12808739,-19.481895,19.422548
0.6751971,0.34489587,0.10158031,0.12382686,-18.833876,18.7765
0.65282947,0.33347028,0.09821519,0.119724765,-18.209953,18.15448
0.63128513,0.3224653,0.09497395,0.115773685,-17.609,17.555357
0.61052644,0.31186157,0.0918509,0.11196666,-17.029957,16.978079
0.5905177,0.301641,0.08884068,0.10829719,-16.471836,16.42166
0.57122576,0.29178652,0.0859383,0.10475917,-15.933709,15.885171
0.55261934,0.2822822,0.08313905,0.10134687,-15.414704,15.367746
0.53466904,0.27311304,0.0804385,0.09805489,-14.914,14.8685665
0.51734704,0.26426485,0.07783249,0.09487816,-14.430822,14.386862
0.50062734,0.25572428,0.075317085,0.091811866,-13.964444,13.921905
0.48448518,0.24747875,0.07288857,0.0888515,-13.514176,13.473008
0.4688972,0.23951629,0.07054343,0.08599276,-13.079368,13.039524
0.45384133,0.23182565,0.06827835,0.08323161,-12.659401,12.620836
0.43929663,0.2243961,0.06609016,0.08056421,-12.253692,12.216364
0.4252432,0.21721749,0.063975886,0.077986896,-11.861687,11.825553
0.41166213,0.21028018,0.06193268,0.07549622,-11.482859,11.447879
0.39853552,0.203575,0.05995784,0.07308888,-11.116706,11.082841
0.38584623,0.19709322,0.058048796,0.07076175,-10.762753,10.729966
0.373578,0.19082652,0.056203097,0.06851183,-10.420545,10.388801
0.36171535,0.18476698,0.05441841,0.06633629,-10.089648,10.058912
0.3502434,0.17890702,0.05269251,0.06423241,-9.76965,9.73989
0.33914804,0.17323942,0.051023263,0.062197592,-9.460158,9.431339
0.32841572,0.16775727,0.04940864,0.060229354,-9.160792,9.132886
0.31803355,0.16245398,0.04784669,0.05832533,-8.871193,8.844169
0.30798915,0.15732323,0.046335552,0.05648325,-8.591016,8.564845
0.29827064,0.15235893,0.044873446,0.054700937,-8.319928,8.294583
0.28886664,0.1475553,0.043458663,0.052976307,-8.057614,8.033069
0.27976632,0.14290679,0.04208956,0.05130736,-7.803771,7.779999
0.27095917,0.13840804,0.040764563,0.049692187,-7.5581055,7.5350814
0.2624352,0.13405392,0.03948217,0.048128944,-7.3203382,7.2980385
0.25418472,0.12983951,0.038240924,0.04661586,-7.0902004,7.068602
0.2461985,0.12576008,0.037039433,0.045151237,-6.867434,6.8465137
0.23846762,0.12181109,0.03587636,0.043733444,-6.6517897,6.6315265
0.23098354,0.11798816,0.034750413,0.04236091,-6.4430294,6.4234023
0.22373798,0.11428708,0.033660352,0.04103212,-6.240923,6.221911
0.21672304,0.11070379,0.032604985,0.039745625,-6.0452485,6.026833
0.20993105,0.107234396,0.031583164,0.03850002,-5.8557935,5.8379555
0.20335467,0.10387512,0.030593775,0.037293952,-5.672353,5.655073
0.1969868,0.10062237,0.02963576,0.036126126,-5.494728,5.4779897
0.19082059,0.09747262,0.028708082,0.034995284,-5.3227286,5.3065143
0.18484947,0.094422534,0.027809756,0.033900216,-5.156171,5.140464
0.17906708,0.09146884,0.02693982,0.032839764,-4.9948773,4.9796615
0.17346726,0.088608414,0.026097354,0.031812795,-4.838677,4.823937
0.16804412,0.08583823,0.025281467,0.030818224,-4.687404,4.6731253
0.16279194,0.08315537,0.024491299,0.029855005,-4.5409,4.5270677
0.15770519,0.08055702,0.02372602,0.028922128,-4.399011,4.3856106
0.15277854,0.07804045,0.022984829,0.028018612,-4.2615876,4.2486057
0.14800686,0.07560304,0.022266952,0.027143516,-4.128487,4.1159105
0.14338517,0.07324225,0.021571642,0.026295928,-3.9995704,3.9873865
0.13890868,0.07095562,0.020898173,0.025474967,-3.8747036,3.8629
0.13457274,0.06874079,0.020245852,0.024679784,-3.7537572,3.7423222
0.13037287,0.066595465,0.019614,0.023909554,-3.6366065,3.6255283
0.12630473,0.06451742,0.019001966,0.023163483,-3.5231302,3.5123978
0.122364126,0.06250454,0.01840912,0.022440802,-3.4132113,3.402814
0.11854701,0.060554724,0.017834853,0.021740766,-3.3067372,3.296664
0.11484946,0.058665987,0.017278574,0.021062661,-3.2035983,3.1938393
0.11126769,0.056836393,0.016739713,0.020405786,-3.1036887,3.0942342
0.10779804,0.055064064,0.01621772,0.019769475,-3.0069065,2.9977467
0.10443695,0.053347193,0.01571206,0.019153072,-2.9131527,2.9042785
0.10118099,0.05168403,0.015222216,0.01855595,-2.8223314,2.8137338
0.09802685,0.050072867,0.01474769,0.0179775,-2.7343502,2.7260206
0.094971314,0.04851208,0.014287999,0.017417135,-2.6491196,2.6410496
0.09201128,0.04700007,0.013842675,0.016874284,-2.5665526,2.5587342
0.08914373,0.045535304,0.013411265,0.016348394,-2.4865654,2.4789906
0.08636576,0.044116292,0.012993332,0.01583893,-2.409077,2.4017382
0.08367455,0.0427416,0.012588452,0.01534538,-2.3340087,2.3268986
0.08106737,0.041409835,0.012196214,0.01486724,-2.2612844,2.2543957
0.078541584,0.040119648,0.011816221,0.014404028,-2.1908305,2.1841567
0.07609464,0.038869727,0.01144809,0.013955274,-2.1225755,2.1161096
0.07372406,0.037658818,0.0110914465,0.013520524,-2.0564508,2.0501864
0.07142746,0.03648569,0.010745932,0.013099341,-1.9923896,1.9863201
0.0692025,0.035349164,0.010411197,0.012691298,-1.9303268,1.9244465
0.06704694,0.03424809,0.010086904,0.012295982,-1.8702,1.8645029
0.06495862,0.03318136,0.009772726,0.011912998,-1.8119485,1.8064289
0.06293543,0.0321479,0.009468346,0.011541956,-1.7555138,1.750166
0.060975317,0.03114666,0.009173457,0.011182485,-1.7008388,1.6956576
0.059076324,0.03017664,0.008887762,0.010834222,-1.6478685,1.6428486
0.057236534,0.02923686,0.008610974,0.010496817,-1.5965496,1.591686
0.055454098,0.028326377,0.008342815,0.010169928,-1.5468304,1.5421184
0.053727217,0.027444275,0.008083013,0.00985323,-1.498661,1.4940957
0.05205416,0.026589664,0.007831309,0.009546402,-1.451993,1.4475698
0.05043324,0.025761688,0.0075874496,0.009249136,-1.4067793,1.4024938
0.048862837,0.024959512,0.0073511894,0.008961134,-1.3629746,1.3588226
0.047341365,0.024182333,0.0071222913,0.008682106,-1.3205348,1.3165121
0.0458673,0.02342937,0.006900525,0.008411772,-1.2794175,1.27552
0.044439163,0.022699866,0.006685668,0.00814986,-1.2395812,1.235805
0.04305552,0.02199309,0.0064775054,0.007896109,-1.2009859,1.1973274
0.041714977,0.021308333,0.006275827,0.0076502617,-1.163593,1.1600484
0.0404162,0.020644905,0.0060804314,0.0074120737,-1.127365,1.1239307
0.039157875,0.020002143,0.0058911224,0.007181305,-1.0922655,1.0889381
0.037938744,0.019379402,0.00570771,0.006957724,-1.0582591,1.0550355
0.03675759,0.018776057,0.0055300104,0.0067411074,-1.0253121,1.0221887
0.035613216,0.018191505,0.005357845,0.0065312376,-0.9933912,0.990365
0.034504488,0.017625159,0.005191042,0.006327904,-0.96246445,0.9595325
0.03343029,0.01707645,0.005029434,0.0061309026,-0.9325009,0.9296602
0.032389544,0.016544828,0.0048728585,0.0059400364,-0.90347046,0.9007182
0.031381212,0.016029764,0.004721159,0.0057551144,-0.87534404,0.8726775
0.030404275,0.015530737,0.004574184,0.0055759507,-0.8480935,0.84551
0.029457763,0.015047251,0.004431785,0.005402366,-0.8216916,0.8191885
0.028540723,0.01457882,0.004293821,0.005234187,-0.79611176,0.79368657
0.027652238,0.014124976,0.0041601523,0.005071244,-0.77132845,0.7689788
0.026791418,0.013685262,0.004030646,0.0049133752,-0.74731684,0.7450403
0.0259574,0.0132592395,0.0039051718,0.0047604223,-0.7240529,0.72184724
0.025149353,0.012846482,0.0037836046,0.004612231,-0.7015133,0.6993763
0.024366463,0.012446577,0.0036658226,0.0044686543,-0.67967546,0.677605
0.023607949,0.012059121,0.0035517076,0.0043295478,-0.65851754,0.6565115
0.022873051,0.01168373,0.0034411454,0.004194772,-0.63801837,0.6360748
0.022161033,0.011320026,0.0033340256,0.0040641925,-0.61815745,0.61627436
0.021471184,0.010967645,0.003230241,0.0039376784,-0.5989148,0.59709036
0.02080281,0.010626235,0.0031296874,0.003815103,-0.5802713,0.57850367
0.020155245,0.010295454,0.0030322643,0.0036963439,-0.56220824,0.56049556
0.019527841,0.009974971,0.002937874,0.003581282,-0.5447075,0.54304814
0.01891997,0.009664466,0.0028464226,0.0034698022,-0.52775156,0.5261439
0.018331023,0.009363627,0.0027578182,0.003361793,-0.5113235,0.5097659
0.017760409,0.009072154,0.0026719721,0.003257146,-0.49540693,0.49389777
0.017207561,0.0087897545,0.0025887985,0.0031557572,-0.4799858,0.47852364
0.016671922,0.008516146,0.0025082142,0.0030575246,-0.46504477,0.4636281
0.01615296,0.008251055,0.0024301386,0.00296235,-0.45056888,0.4491963
0.015650151,0.007994218,0.0023544934,0.002870138,-0.4365436,0.43521377
0.015162996,0.007745375,0.0022812032,0.002780797,-0.42295495,0.4216665
0.014691005,0.0075042783,0.0022101942,0.0026942368,-0.4097893,0.40854096
0.014233708,0.0072706873,0.002141396,0.0026103714,-0.39703348,0.39582402
0.013790647,0.007044368,0.0020747394,0.0025291168,-0.38467476,0.38350293
0.013361377,0.0068250936,0.0020101578,0.0024503914,-0.37270078,0.37156543
0.0129454695,0.0066126455,0.0019475865,0.0023741168,-0.3610995,0.3599995
0.0125425095,0.00640681,0.001886963,0.0023002166,-0.3498594,0.34879363
0.012152093,0.006207383,0.0018282267,0.0022286167,-0.33896917,0.33793658
