ax,ay,az,gx,gy,gz
-1.4618315,-1.5618324,-2.8318439,-47.607704,4.217311,39.284904
-1.7844799,-2.3862002,-2.9624703,-37.34189,-0.81671077,45.40231
-1.7335877,-2.0681403,-2.9794462,-31.921463,-5.3062253,42.03191
-1.4568112,-1.7503456,-2.8498337,-28.230875,-9.132268,33.53515
-1.151416,-1.6571481,-2.572649,-23.262884,-11.12384,24.91928
-0.88093656,-1.682278,-2.2586071,-18.696045,-10.899132,19.017696
-0.7723302,-1.6538357,-2.0973814,-15.870752,-10.188474,16.390417
-0.7895049,-1.5770745,-2.0280917,-12.978965,-11.078755,15.020986
-0.74807566,-1.3862805,-1.9227389,-10.099421,-13.380803,12.659832
-0.57193375,-1.1500142,-1.7361387,-9.72969,-14.224922,10.686209
-0.48155618,-1.0784707,-1.5741999,-11.076613,-13.985492,10.742714
-0.49736044,-1.1153898,-1.4789834,-12.620081,-14.011037,12.183478
-0.5296386,-1.1663444,-1.4133284,-12.308066,-14.385091,12.860605
-0.52906513,-1.1542318,-1.3593262,-11.090828,-15.252552,12.4174795
-0.47307009,-1.104446,-1.2987176,-9.379031,-16.172043,11.466244
-0.40810674,-1.0289545,-1.263347,-8.37595,-16.711178,11.00951
-0.39888063,-1.0262234,-1.2654867,-8.43324,-16.820654,11.749249
-0.47223046,-1.1230294,-1.3115011,-8.391852,-16.95547,13.317334
-0.59738433,-1.2448261,-1.3801253,-7.234398,-18.20758,14.3730755
-0.6558827,-1.2872335,-1.4224601,-5.3122034,-20.034939,14.231821
-0.6465929,-1.2687361,-1.4452727,-3.4590378,-21.47063,13.97213
-0.6741181,-1.2647539,-1.4909775,-2.240606,-22.665468,14.225783
-0.76142436,-1.3230916,-1.5574424,-0.8586012,-23.909266,14.823465
-0.8843256,-1.3794305,-1.6333575,1.2597121,-25.808012,14.880371
-0.95329994,-1.3834376,-1.6870257,3.9966183,-28.399723,13.741502
-0.9495018,-1.3507432,-1.7131916,6.620504,-31.015665,12.620029
-0.92484933,-1.3032961,-1.7257005,8.001554,-33.13961,12.670143
-0.93638444,-1.3091353,-1.7403224,8.143611,-35.03043,14.301461
-0.9935137,-1.382984,-1.7580938,7.879646,-37.327827,17.00788
-1.0442637,-1.4839373,-1.7662774,8.482168,-40.131546,19.13392
-1.0182443,-1.5338448,-1.7476293,10.062099,-42.999256,20.315659
-0.9215163,-1.5084205,-1.6963761,12.151032,-45.548542,20.683582
-0.7802627,-1.4017085,-1.6170001,14.070783,-47.52402,20.945253
-0.64411056,-1.2493831,-1.5191592,14.759735,-49.030445,21.817892
-0.532494,-1.1350763,-1.4111136,14.001644,-50.039444,24.009325
-0.48167717,-1.1141566,-1.3284765,13.114533,-50.792698,26.89146
-0.42510715,-1.0957311,-1.2519816,13.17484,-51.798782,29.099323
-0.28458628,-0.9584009,-1.140092,13.955276,-52.773514,29.861727
-0.0705297,-0.7187424,-0.98869,14.650767,-53.067535,29.536362
0.1156093,-0.46132895,-0.8381236,13.92981,-52.727272,29.451735
0.2242042,-0.29096946,-0.7130286,12.068628,-51.985046,30.265974
0.260606,-0.21976654,-0.63081115,9.682787,-51.017925,31.80757
0.25610387,-0.2526322,-0.5760556,8.196853,-50.28461,33.00535
0.28301156,-0.26904592,-0.5108386,7.819499,-49.869423,32.999413
0.36253327,-0.2382085,-0.42463696,7.8769183,-49.095955,32.21611
0.44372526,-0.16873619,-0.3406938,7.452625,-47.896774,31.875002
0.4925058,-0.10195691,-0.27294955,6.588669,-46.492153,31.903996
0.51598245,-0.053975713,-0.21632554,5.699097,-45.152954,31.77061
0.5323143,-0.021961916,-0.16097926,5.2384443,-43.961018,31.141071
0.57315856,0.032317933,-0.096290134,4.8456116,-42.737503,29.90108
0.6348404,0.09352224,-0.025756586,4.260186,-41.29814,28.515896
0.69028986,0.1581447,0.0420636,3.5354471,-39.688816,26.850094
0.7436314,0.2249542,0.105401464,2.701656,-37.89803,24.821442
0.79656464,0.2773112,0.16413003,1.8727945,-35.95326,22.550316
0.7701763,0.26812455,0.15869279,1.8107532,-34.762215,21.803278
0.74475944,0.25927606,0.1534557,1.7509959,-33.615013,21.083738
0.72026926,0.25075018,0.14840958,1.6934173,-32.50964,20.390436
0.696664,0.2425324,0.14354576,1.6379192,-31.444204,19.722183
0.6739043,0.23460898,0.13885619,1.5844091,-30.416939,19.07787
0.65195334,0.22696711,0.13433325,1.5328006,-29.426172,18.45645
0.6307764,0.2195947,0.1299698,1.4830116,-28.470345,17.856941
0.61034083,0.21248037,0.12575911,1.4349657,-27.547974,17.27842
0.5906157,0.20561339,0.121694796,1.3885902,-26.657673,16.720013
0.57157195,0.19898361,0.11777089,1.3438166,-25.798126,16.180895
0.553182,0.19258146,0.113981694,1.3005804,-24.96809,15.660286
0.5354199,0.18639785,0.11032184,1.2588199,-24.166388,15.157449
0.5182607,0.18042417,0.10678625,1.2184772,-23.391903,14.671682
0.50168115,0.17465225,0.10337007,1.1794971,-22.643578,14.202324
0.48565888,0.16907436,0.100068726,1.1418273,-21.920406,13.748742
0.47017273,0.1636831,0.09687785,1.1054181,-21.221434,13.310338
0.45520255,0.15847147,0.09379328,1.0702218,-20.545748,12.886539
0.4407291,0.15343277,0.09081107,1.0361935,-19.892483,12.476804
0.4267341,0.14856064,0.08792743,1.0032899,-19.260813,12.080613
0.41320005,0.14384897,0.085138775,0.97147024,-18.649948,11.697472
0.40011027,0.13929199,0.082441665,0.940695,-18.059137,11.326907
0.38744885,0.1348841,0.07983281,0.9109268,-17.487658,10.968469
0.37520048,0.13062003,0.077309065,0.8821298,-16.934822,10.621724
0.36335057,0.12649468,0.07486742,0.85426956,-16.399971,10.286259
0.35188514,0.12250317,0.072505,0.82731336,-15.882475,9.9616785
0.34079078,0.11864085,0.07021903,0.80122954,-15.381727,9.647604
0.33005464,0.114903234,0.06800689,0.7759879,-14.897147,9.34367
0.31966442,0.111286044,0.065866,0.75155956,-14.42818,9.049528
0.30960822,0.10778514,0.06379396,0.7279166,-13.97429,8.764843
0.29987472,0.10439658,0.06178839,0.7050322,-13.534965,8.489292
0.29045296,0.101116545,0.059847064,0.6828809,-13.10971,8.222568
0.28133246,0.09794139,0.057967808,0.66143775,-12.698052,7.9643707
0.2725031,0.09486759,0.05614854,0.6406791,-12.299536,7.7144165
0.26395515,0.09189176,0.05438726,0.6205821,-11.91372,7.4724283
0.25567925,0.08901063,0.052682035,0.60112476,-11.540185,7.2381425
0.2476664,0.08622109,0.051031005,0.5822858,-11.178521,7.011303
0.2399079,0.08352009,0.04943239,0.5640449,-10.828339,6.791664
0.2323954,0.08090474,0.047884457,0.5463823,-10.489259,6.578989
0.22512083,0.0783722,0.04638555,0.5292792,-10.160917,6.3730497
0.2180764,0.0759198,0.04493406,0.51271707,-9.842964,6.1736255
0.2112546,0.073544905,0.04352845,0.4966784,-9.53506,5.980504
0.20464821,0.07124499,0.04216722,0.48114622,-9.236878,5.793481
0.19825025,0.06901765,0.04084894,0.46610403,-8.948104,5.612358
0.19205397,0.06686051,0.039572213,0.45153603,-8.668432,5.436945
0.18605287,0.064771324,0.038335703,0.43742692,-8.397571,5.267057
0.18024066,0.062747896,0.037138112,0.42376187,-8.135234,5.102516
0.17461127,0.060788114,0.035978187,0.41052666,-7.881149,4.943151
0.16915883,0.058889937,0.03485473,0.3977075,-7.635051,4.7887955
0.16387768,0.057051387,0.03376656,0.38529107,-7.396684,4.639289
0.15876235,0.055270568,0.03271256,0.37326446,-7.1658015,4.494477
0.15380755,0.05354563,0.031691637,0.36161527,-6.9421644,4.354209
0.14900815,0.051874798,0.030702734,0.35033146,-6.725542,4.218341
0.14435922,0.05025635,0.029744834,0.3394014,-6.515711,4.086732
0.13985597,0.048688617,0.028816953,0.32881388,-6.3124547,3.9592474
0.13549379,0.04716999,0.027918136,0.31855798,-6.115566,3.8357563
0.13126819,0.04569892,0.027047463,0.30862322,-5.924842,3.716132
0.12717485,0.04427389,0.026204044,0.29899946,-5.740088,3.600252
0.12320961,0.04289345,0.025387013,0.2896768,-5.561115,3.487998
0.1193684,0.041556194,0.024595542,0.28064576,-5.3877397,3.379255
0.11564729,0.04026075,0.02382882,0.2718971,-5.2197866,3.273913
0.112042524,0.03900581,0.023086065,0.26342198,-5.0570836,3.1718638
0.108550414,0.037790086,0.022366526,0.2552117,-4.899466,3.073004
0.10516742,0.03661235,0.021669468,0.247258,-4.7467732,2.9772332
0.1018901,0.035471406,0.020994186,0.23955274,-4.5988503,2.8844543
0.09871515,0.034366097,0.020339994,0.23208812,-4.4555473,2.7945728
0.095639326,0.0332953,0.01970623,0.22485659,-4.316719,2.7074978
0.09265953,0.03225793,0.01909225,0.21785083,-4.1822248,2.6231415
0.089772746,0.031252943,0.018497435,0.21106374,-4.0519285,2.541418
0.08697605,0.030279318,0.017921185,0.20448846,-3.9256985,2.4622452
0.084266625,0.029336074,0.017362915,0.19811834,-3.8034074,2.3855429
0.081641726,0.028422257,0.01682206,0.19194698,-3.6849315,2.3112333
0.07909871,0.027536947,0.01629808,0.18596812,-3.5701516,2.2392418
0.07663501,0.02667925,0.01579044,0.18017574,-3.4589515,2.1694958
0.07424814,0.0258483,0.015298633,0.174564,-3.3512192,2.101925
0.0719357,0.025043262,0.014822161,0.16912726,-3.2468464,2.036461
0.06969536,0.024263324,0.014360545,0.16386002,-3.1457279,1.9730383
0.067524865,0.023507701,0.01391332,0.158757,-3.0477617,1.9115927
0.065422036,0.022775633,0.0134800365,0.15381305,-2.9528496,1.8520627
0.06338475,0.022066385,0.013060259,0.14902319,-2.8608956,1.7943882
0.061410956,0.02137924,0.012653564,0.14438264,-2.771808,1.7385112
0.059498675,0.02071351,0.012259545,0.13988669,-2.6854963,1.6843755
0.057645988,0.020068528,0.011877803,0.13553086,-2.6018746,1.631927
0.05585103,0.019443642,0.011507957,0.13131076,-2.5208585,1.5811127
0.054112002,0.018838227,0.011149635,0.12722215,-2.4423668,1.5318818
0.052427158,0.018251674,0.010802477,0.12326092,-2.3663206,1.4841846
0.0507948,0.017683396,0.010466134,0.11942311,-2.2926435,1.4379735
0.049213294,0.01713282,0.010140269,0.11570485,-2.2212617,1.393202
0.047681056,0.016599396,0.009824555,0.11210242,-2.1521034,1.3498251
0.046196546,0.016082589,0.009518676,0.10861221,-2.0850995,1.3077995
0.04475828,0.015581877,0.009222325,0.10523071,-2.0201826,1.2670828
0.043364808,0.015096762,0.008935204,0.101954535,-1.9572878,1.2276344
0.042014737,0.014626757,0.008657025,0.09878039,-1.8963518,1.1894146
0.040706713,0.01417139,0.008387511,0.095705114,-1.8373137,1.1523851
0.039439425,0.013730204,0.008126389,0.09272561,-1.780114,1.116509
0.038211603,0.013302757,0.0078734,0.08983889,-1.7246959,1.08175
0.03702202,0.012888623,0.007628289,0.08704207,-1.6710036,1.0480735
0.03586948,0.0124873845,0.007390811,0.08433235,-1.6189833,1.0154457
0.03475283,0.012098641,0.0071607283,0.08170701,-1.5685828,0.98383397
0.03367095,0.011722002,0.00693781,0.07916341,-1.5197517,0.95320654
0.03262276,0.01135709,0.0067218333,0.07669902,-1.4724412,0.9235328
0.031607207,0.011003543,0.006512581,0.07431136,-1.4266038,0.894783
0.030623274,0.010661002,0.0063098446,0.07199805,-1.3821937,0.86692846
0.029669978,0.010329127,0.0061134202,0.06975677,-1.3391663,0.83994114
0.028746363,0.010007585,0.005923112,0.06758527,-1.2974786,0.8137941
0.027851505,0.009696055,0.0057387287,0.06548137,-1.2570888,0.78846115
0.02698451,0.009394224,0.0055600866,0.06344299,-1.2179565,0.76391697
0.026144505,0.00910179,0.005387006,0.061468065,-1.1800426,0.74013686
0.025330653,0.008818461,0.0052193142,0.05955463,-1.1433091,0.7170972
0.02454214,0.008543952,0.0050568427,0.05770076,-1.1077192,0.6947748
0.023778176,0.008277991,0.00489943,0.055904612,-1.0732374,0.6731474
0.023037994,0.008020309,0.0047469176,0.05416438,-1.039829,0.65219325
0.022320857,0.0077706487,0.0045991535,0.05247833,-1.0074607,0.6318915
0.021626046,0.007528761,0.004455989,0.050844762,-0.97610015,0.6122217
0.020952864,0.007294404,0.0043172822,0.049262054,-0.94571584,0.5931643
0.02030064,0.0070673428,0.0041828933,0.047728617,-0.91627747,0.57470024
0.01966872,0.00684735,0.004052688,0.04624292,-0.8877555,0.5568109
0.019056473,0.0066342056,0.0039265356,0.044803467,-0.8601214,0.5394785
0.018463284,0.0064276964,0.0038043107,0.04340883,-0.8333477,0.52268565
0.017888563,0.006227616,0.003685891,0.042057607,-0.8074073,0.5064156
0.01733173,0.006033764,0.0035711573,0.040748447,-0.78227454,0.490652
0.016792234,0.005845947,0.0034599954,0.03948004,-0.75792414,0.4753791
0.016269531,0.0056639765,0.0033522937,0.03825112,-0.7343317,0.4605817
0.0157631,0.0054876707,0.0032479449,0.037060454,-0.71147376,0.4462449
0.015272433,0.005316853,0.0031468445,0.035906855,-0.68932736,0.4323544
0.01479704,0.0051513524,0.003048891,0.034789164,-0.6678703,0.4188963
0.014336446,0.0049910042,0.0029539869,0.033706266,-0.6470812,0.40585712
