ax,ay,az,gx,gy,gz
-0.760916,7.3737035,-1.0572823,-33.347576,-37.564888,10.598278
-0.5236755,7.7817,-0.9251664,-32.5516,-42.669807,5.7229357
-0.18736462,8.186401,-0.4591074,-40.43504,-40.162746,-8.099174
0.2063753,8.287409,0.011683968,-45.866577,-34.29012,-19.62394
0.49792227,8.444187,0.29725078,-50.79837,-28.536007,-31.347393
0.69106185,8.563309,0.4641886,-55.12868,-24.470085,-42.35108
0.8970085,8.677018,0.5904753,-61.02436,-21.787657,-51.83016
1.1763622,8.690085,0.6967287,-68.80315,-19.134018,-60.22737
1.48684,8.47703,0.70980054,-76.47289,-15.672217,-67.633
1.7384766,8.099495,0.65847814,-83.604965,-11.911949,-74.415855
1.9173341,7.5797186,0.5756051,-88.792564,-7.9885154,-81.17795
2.072467,6.9518585,0.4777691,-92.458855,-4.271479,-87.77186
2.2447073,6.21963,0.3627488,-95.028435,-1.560854,-93.57953
2.4422464,5.2699094,0.26614872,-97.521355,-0.18815498,-97.37255
2.642013,4.1842523,0.22937678,-99.60203,0.7960013,-98.29876
2.8151462,3.0268874,0.22426727,-100.329346,2.4372942,-96.87156
2.9224625,1.8602358,0.21490379,-99.169785,4.851342,-93.94492
2.9500973,0.7302362,0.19489056,-95.49751,8.211552,-89.21224
2.8835292,-0.28691414,0.16661085,-90.22733,11.83626,-83.19043
2.7838097,-1.133141,0.12685694,-84.11453,15.483162,-76.081
2.6856463,-1.8032612,0.066036746,-77.3841,18.947601,-68.12604
2.5805266,-2.290277,-0.012896613,-69.77964,22.066114,-59.795265
2.4693754,-2.6055014,-0.08916184,-61.653294,25.213518,-51.698326
2.3536973,-2.7283013,-0.15480657,-54.004578,28.429058,-43.88925
2.2253983,-2.745961,-0.23318732,-46.662262,31.657215,-36.482513
2.0884526,-2.6907673,-0.32709426,-39.325897,34.925606,-29.877937
1.950469,-2.5696096,-0.42655495,-32.017456,38.327335,-24.11897
1.8134706,-2.3809469,-0.5305509,-25.414562,41.53413,-18.577993
1.6659133,-2.081612,-0.65855616,-20.169828,43.953583,-12.8260355
1.4934285,-1.7364823,-0.80443263,-15.9028635,45.37774,-7.825763
1.3033576,-1.3764011,-0.95620036,-12.491523,46.06412,-4.245909
1.1023389,-1.0349625,-1.1156934,-9.4973135,46.275944,-1.6964566
0.8833723,-0.6991907,-1.3012415,-7.216843,45.61352,0.11305616
0.64188826,-0.37559524,-1.5311166,-5.7612157,43.816154,1.4073268
0.41385248,-0.07743452,-1.7944534,-5.2340975,40.500362,2.2415323
0.20863618,0.18565086,-2.0833633,-5.138819,36.070515,2.4643178
0.029523263,0.4093833,-2.3848317,-5.1614437,30.730999,1.8955711
-0.11695523,0.58793,-2.6844826,-5.1692753,24.46858,0.4994998
-0.2189117,0.7127986,-2.9764347,-5.1068134,17.585148,-0.9962872
-0.27738357,0.81237453,-3.2369497,-5.4958797,10.090518,-2.1561055
-0.29384324,0.9106593,-3.4499857,-6.3929515,2.0814111,-3.213886
-0.2764514,0.9794363,-3.599138,-7.764088,-6.0940094,-4.4691615
-0.2145611,0.9912267,-3.6702528,-9.304611,-14.211662,-5.725345
-0.075364195,0.9562657,-3.6022425,-11.114104,-22.08241,-6.5179653
0.10563838,0.88677955,-3.4302745,-13.241632,-29.465843,-6.8132343
0.32130882,0.78361475,-3.1627603,-15.222702,-35.886486,-7.083372
0.5863808,0.64722097,-2.8078408,-16.831364,-40.997383,-7.576213
0.8895949,0.47339192,-2.3844395,-17.466135,-44.17366,-8.046944
1.2064478,0.28187042,-1.9003184,-17.748808,-45.91804,-8.043127
1.4961807,0.09838353,-1.4132692,-17.815435,-46.356087,-7.590395
1.745082,-0.069726214,-0.9500158,-17.515114,-45.58103,-6.8341484
1.9572903,-0.22156888,-0.5237135,-16.775677,-43.69073,-5.8427625
2.1303966,-0.3474949,-0.15614402,-15.132523,-40.383797,-4.703519
2.251027,-0.42920488,0.112457015,-13.039516,-36.305862,-3.7045233
2.176456,-0.4149863,0.108731575,-12.607549,-35.103138,-3.5818012
2.1046298,-0.4012912,0.10514329,-12.191482,-33.944683,-3.4635966
2.0354226,-0.3880954,0.10168582,-11.7905855,-32.828472,-3.3497021
1.968716,-0.37537643,0.09835329,-11.404174,-31.752588,-3.2399228
1.904399,-0.36311305,0.09514014,-11.031606,-30.715246,-3.134076
1.8423674,-0.35128543,0.09204116,-10.672275,-29.714764,-3.0319905
1.7825232,-0.3398749,0.08905145,-10.325615,-28.749561,-2.9335046
1.7247738,-0.32886377,0.0861664,-9.991091,-27.818146,-2.8384662
1.6690322,-0.3182355,0.08338166,-9.668197,-26.919113,-2.746732
1.6152161,-0.30797434,0.08069311,-9.356457,-26.051136,-2.6581666
1.5632477,-0.29806548,0.07809687,-9.055419,-25.21296,-2.572642
1.5130532,-0.28849488,0.07558925,-8.764658,-24.403395,-2.490037
1.4645629,-0.2792492,0.07316676,-8.4837675,-23.621315,-2.4102361
1.4177104,-0.2703158,0.0708261,-8.212366,-22.86565,-2.3331308
1.3724327,-0.2616827,0.06856412,-7.950086,-22.135387,-2.2586174
1.3286701,-0.25333843,0.06637782,-7.696583,-21.429558,-2.186597
1.2863656,-0.24527219,0.064264365,-7.451525,-20.747246,-2.1169763
1.2454648,-0.23747362,0.06222104,-7.2145996,-20.087574,-2.0496657
1.205916,-0.22993283,0.06024526,-6.9855056,-19.449709,-1.9845803
1.1676699,-0.22264041,0.05833456,-6.7639575,-18.832853,-1.9216385
1.1306794,-0.21558739,0.056486577,-6.5496817,-18.236248,-1.8607628
1.094899,-0.20876515,0.054699067,-6.342418,-17.659164,-1.8018793
1.0602862,-0.20216548,0.05296987,-6.141916,-17.100906,-1.7449167
1.0267993,-0.19578052,0.05129693,-5.9479365,-16.56081,-1.6898072
0.9943989,-0.18960272,0.04967827,-5.760251,-16.038239,-1.6364857
0.96304715,-0.18362485,0.048111994,-5.57864,-15.53258,-1.58489
0.9327077,-0.17784001,0.046596296,-5.4028926,-15.043248,-1.5349604
0.90334576,-0.17224155,0.045129426,-5.2328076,-14.569681,-1.4866393
0.8749278,-0.16682307,0.04370972,-5.068191,-14.11134,-1.4398717
0.8474217,-0.16157848,0.04233557,-4.9088564,-13.667706,-1.3946048
0.8207966,-0.15650184,0.04100543,-4.7546253,-13.238281,-1.3507878
0.7950228,-0.15158753,0.03971782,-4.6053257,-12.822586,-1.3083718
0.77007174,-0.1468301,0.03847131,-4.4607916,-12.42016,-1.2673097
0.7459159,-0.14222428,0.037264533,-4.320864,-12.030561,-1.2275563
0.7225289,-0.13776508,0.036096163,-4.1853905,-11.653362,-1.1890683
0.69988525,-0.13344759,0.034964927,-4.0542226,-11.288153,-1.1518035
0.67796034,-0.12926716,0.0338696,-3.9272184,-10.934535,-1.1157217
0.6567306,-0.12521927,0.032809004,-3.804241,-10.59213,-1.0807838
0.63617325,-0.12129958,0.031781998,-3.6851583,-10.260569,-1.0469525
0.61626625,-0.1175039,0.030787483,-3.569843,-9.939497,-1.0141915
0.5969884,-0.11382818,0.029824398,-3.4581726,-9.628573,-0.98246586
0.5783193,-0.11026853,0.028891727,-3.350028,-9.327467,-0.95174205
0.5602392,-0.10682119,0.027988479,-3.2452955,-9.035861,-0.92198753
0.542729,-0.10348251,0.027113704,-3.1438644,-8.753447,-0.893171
0.52577037,-0.10024899,0.026266482,-3.045628,-8.479928,-0.8652621
0.50934553,-0.09711725,0.025445929,-2.950484,-8.215018,-0.8382317
0.49343732,-0.094084024,0.024651185,-2.8583324,-7.9584417,-0.8120515
0.47802916,-0.09114614,0.023881422,-2.7690778,-7.70993,-0.7866942
0.46310508,-0.088300556,0.023135845,-2.682627,-7.4692254,-0.7621336
0.44864956,-0.08554432,0.022413675,-2.5988905,-7.2360787,-0.73834413
0.43464768,-0.08287457,0.021714168,-2.517782,-7.010248,-0.7153012
0.42108497,-0.08028856,0.0210366,-2.4392173,-6.7915015,-0.692981
0.40794748,-0.07778362,0.020380275,-2.3631158,-6.5796123,-0.67136055
0.39522168,-0.075357184,0.01974452,-2.2893991,-6.374363,-0.6504177
0.3828945,-0.07300675,0.019128677,-2.2179916,-6.175543,-0.63013077
0.3709533,-0.07072992,0.018532118,-2.1488197,-5.982949,-0.6104791
0.35938588,-0.068524346,0.01795423,-2.081813,-5.7963824,-0.5914426
0.34818038,-0.066387795,0.017394427,-2.0169034,-5.615654,-0.5730017
0.33732542,-0.06431807,0.016852133,-1.9540237,-5.440579,-0.55513763
0.3268099,-0.062313065,0.016326798,-1.8931105,-5.2709785,-0.5378322
0.31662312,-0.060370743,0.015817884,-1.8341016,-5.10668,-0.52106774
0.3067547,-0.058489125,0.0153248785,-1.7769368,-4.9475164,-0.50482726
0.29719463,-0.0566663,0.014847275,-1.7215582,-4.7933264,-0.48909423
0.2879332,-0.05490042,0.014384592,-1.6679096,-4.643953,-0.47385266
0.27896103,-0.053189687,0.013936359,-1.6159365,-4.499244,-0.4590871
0.270269,-0.051532373,0.013502123,-1.5655862,-4.359054,-0.4447826
0.26184833,-0.0499268,0.013081443,-1.5168079,-4.223241,-0.4309247
0.2536905,-0.04837134,0.012673893,-1.4695522,-4.0916667,-0.41749936
0.2457873,-0.046864428,0.0122790625,-1.4237711,-3.964199,-0.40449297
0.23813066,-0.045404535,0.0118965525,-1.3794186,-3.8407085,-0.39189246
0.2307129,-0.043990187,0.011525976,-1.3364499,-3.7210708,-0.37968504
0.22352655,-0.04261996,0.011166959,-1.2948214,-3.605165,-0.3678584
0.21656433,-0.041292466,0.01081914,-1.2544914,-3.4928744,-0.35640067
0.20981924,-0.040006377,0.010482168,-1.2154192,-3.3840857,-0.34530026
0.20328447,-0.03876039,0.010155704,-1.1775652,-3.2786891,-0.33454597
0.19695346,-0.03755325,0.009839418,-1.1408916,-3.176579,-0.324127
0.19081981,-0.036383744,0.009532994,-1.1053612,-3.077652,-0.31403282
0.18487738,-0.035250694,0.009236121,-1.0709385,-2.981809,-0.30425334
0.17912017,-0.034152962,0.008948501,-1.0375887,-2.8889534,-0.29477867
0.1735424,-0.033089444,0.008669846,-1.0052783,-2.7989917,-0.28559932
0.16813844,-0.03205907,0.008399875,-0.97397494,-2.7118337,-0.276706
0.1629029,-0.031060807,0.008138318,-0.943647,-2.627392,-0.26808986
0.1578305,-0.030093648,0.00788491,-0.91426414,-2.5455813,-0.2597422
0.15291615,-0.029156625,0.0076393983,-0.8857968,-2.4663198,-0.25165462
0.1481549,-0.028248796,0.0074015358,-0.85821635,-2.3895278,-0.24381904
0.14354199,-0.02736925,0.0071710837,-0.83149517,-2.315128,-0.23622756
0.13907279,-0.026517104,0.0069478108,-0.8056065,-2.2430463,-0.22887258
0.13474281,-0.025691504,0.0067314934,-0.7805242,-2.1732097,-0.22174671
0.1305477,-0.02489162,0.006521914,-0.7562232,-2.1055486,-0.21484281
0.12648328,-0.024116652,0.0063188625,-0.7326792,-2.0399952,-0.20815396
0.122545436,-0.023365822,0.0061221356,-0.7098685,-1.9764835,-0.20167345
0.11873025,-0.022638377,0.005931536,-0.6877683,-1.9149499,-0.19539477
0.11503388,-0.021933587,0.0057468726,-0.6663563,-1.8553327,-0.18931165
0.111452624,-0.021250747,0.00556796,-0.6456112,-1.7975723,-0.18341798
0.1079829,-0.020589173,0.0053946194,-0.6255122,-1.7416105,-0.17770784
0.10462123,-0.019948201,0.005226677,-0.60603905,-1.6873916,-0.17217553
0.10136425,-0.01932719,0.005063964,-0.5871723,-1.6348611,-0.16681549
0.09820869,-0.018725516,0.004906318,-0.5688931,-1.5839663,-0.16162238
0.09515139,-0.01814258,0.0047535812,-0.55118304,-1.5346564,-0.15659095
0.09218928,-0.017577792,0.0046056,-0.5340245,-1.4868819,-0.15171622
0.08931941,-0.017030591,0.0044622268,-0.5174002,-1.4405949,-0.14699326
0.086538896,-0.01650043,0.0043233177,-0.50129354,-1.3957492,-0.14241736
0.08384496,-0.015986774,0.0041887336,-0.4856884,-1.3522998,-0.13798393
0.081234895,-0.015489113,0.00405834,-0.4705691,-1.3102033,-0.13368855
0.0787061,-0.0150069455,0.003932006,-0.45592055,-1.2694174,-0.1295269
0.07625604,-0.01453979,0.003809606,-0.4417281,-1.2299013,-0.12549482
0.07388226,-0.01408718,0.0036910162,-0.42797747,-1.1916156,-0.12158828
0.07158238,-0.013648661,0.0035761187,-0.41465497,-1.1545218,-0.117803365
0.0693541,-0.013223793,0.0034647984,-0.40174726,-1.118583,-0.114136286
0.0671952,-0.012812154,0.0033569436,-0.3892414,-1.0837629,-0.11058337
0.06510351,-0.01241333,0.003252447,-0.37712485,-1.0500269,-0.10714107
0.063076936,-0.012026922,0.0031512033,-0.36538553,-1.0173413,-0.10380594
0.061113454,-0.011652544,0.0030531115,-0.35401168,-0.98567307,-0.10057463
0.0592111,-0.01128982,0.0029580733,-0.34299192,-0.95499074,-0.097443916
0.05736797,-0.010938389,0.0028659939,-0.3323152,-0.92526364,-0.094410665
0.055582214,-0.010597898,0.002776781,-0.32197088,-0.89646196,-0.09147184
0.05385205,-0.0102680065,0.0026903455,-0.31194857,-0.8685569,-0.08862451
0.05217575,-0.009948385,0.0026066005,-0.30223826,-0.84152055,-0.08586581
0.05055163,-0.009638714,0.0025254628,-0.29283023,-0.81532586,-0.08319299
0.04897807,-0.009338682,0.0024468508,-0.2837151,-0.78994656,-0.080603376
0.047453497,-0.00904799,0.0023706858,-0.2748837,-0.7653573,-0.07809438
0.045976378,-0.008766348,0.002296892,-0.2663272,-0.7415336,-0.075663485
0.044545244,-0.008493472,0.0022253953,-0.2580371,-0.7184514,-0.07330827
0.04315866,-0.008229091,0.0021561242,-0.250005,-0.6960878,-0.071026355
0.04181524,-0.00797294,0.0020890094,-0.242223,-0.6744203,-0.068815485
0.04051364,-0.007724763,0.002023984,-0.2346832,-0.6534273,-0.066673435
