ax,ay,az,gx,gy,gz
-0.60455096,6.820971,-1.6881971,1.6645606,-52.15775,20.973825
0.12565894,7.9463997,-0.7790042,-8.172844,-51.356453,15.487868
0.46380073,8.632029,-0.2286513,-18.332907,-47.580757,7.4452806
0.5916391,9.209767,0.1717686,-27.232912,-42.581844,-2.236685
0.6542569,9.732285,0.47487912,-33.950474,-38.47945,-12.694063
0.7210723,10.143479,0.69400775,-40.48311,-34.788124,-25.239346
0.88591194,10.409312,0.8544321,-47.345276,-30.990276,-37.152027
1.0680126,10.538457,0.97250354,-54.971516,-26.436243,-48.559704
1.197525,10.477471,1.0020148,-62.322945,-21.632061,-59.898273
1.3032132,10.257383,0.9472069,-68.63332,-17.270874,-71.094025
1.4195076,9.902248,0.84327894,-73.95921,-14.293632,-82.39022
1.5824656,9.328619,0.75822175,-79.3504,-12.3102455,-92.371216
1.7579126,8.5431795,0.7032098,-84.77635,-10.863462,-100.61383
1.9546105,7.54004,0.6493667,-88.97366,-9.809628,-107.3337
2.2443461,6.3297386,0.60006636,-91.360916,-8.999631,-112.21578
2.6582253,4.953917,0.5945093,-92.05158,-7.429877,-113.12408
3.0876412,3.4362295,0.61240697,-91.15059,-4.733834,-110.743576
3.3998997,1.9925982,0.60716516,-88.37209,-0.8032521,-105.49909
3.547899,0.7306682,0.5641166,-83.99791,3.7881656,-97.733665
3.5424378,-0.28685513,0.47819924,-78.31776,8.5412035,-88.35556
3.4408016,-1.064944,0.3455171,-71.13138,13.178943,-77.97325
3.2974794,-1.5502638,0.19499639,-63.693012,17.946125,-67.77899
3.1370983,-1.8387625,0.02775701,-56.387573,22.496351,-58.170982
2.9697206,-1.9805098,-0.14223586,-49.65296,26.537455,-48.96363
2.8027086,-1.9943688,-0.31232986,-43.297665,29.92461,-39.8444
2.622552,-1.8886218,-0.4794244,-37.327785,32.520897,-31.386116
2.4238672,-1.6607114,-0.64681613,-32.01662,34.456123,-23.98446
2.2247648,-1.3806523,-0.80553895,-27.436043,35.80561,-17.667887
2.0315042,-1.0580326,-0.9501243,-23.802223,36.692314,-12.317848
1.8417748,-0.7086225,-1.0937822,-20.811625,36.95979,-7.802679
1.6438209,-0.33623523,-1.241891,-18.69596,36.31381,-4.4866414
1.4244733,0.038439482,-1.4162482,-17.05859,35.049812,-2.2428153
1.1968168,0.38984337,-1.6234652,-15.652881,32.99736,-0.907293
0.97241664,0.7157623,-1.8619215,-14.807625,30.06409,-0.5492542
0.75923425,0.98734593,-2.1261592,-14.315519,26.253658,-0.8834598
0.5596731,1.2123988,-2.404737,-14.232408,21.30103,-1.9064872
0.37723038,1.3989235,-2.699837,-14.192754,15.545979,-3.4872541
0.2180939,1.5503184,-2.9911165,-14.218924,8.924982,-5.612824
0.096882805,1.6576567,-3.2572148,-14.338545,1.4318013,-7.870618
0.028253194,1.7433062,-3.4651196,-14.771683,-6.809013,-9.9507475
0.023066618,1.8121943,-3.586875,-15.914127,-15.761947,-11.906368
0.12472278,1.8038294,-3.5905383,-17.377232,-24.55839,-13.76939
0.3162939,1.6900083,-3.4997702,-18.912344,-32.5425,-15.065997
0.56388193,1.5158073,-3.3170774,-20.182774,-39.42872,-15.781034
0.8519788,1.3103585,-3.0411975,-21.264414,-45.00441,-16.076792
1.1685859,1.076931,-2.6766293,-22.008049,-48.55629,-15.562674
1.4884596,0.84239745,-2.224345,-22.65781,-50.55437,-14.505151
1.7694117,0.62263757,-1.7505428,-23.191147,-51.28017,-13.191229
1.9988188,0.41654938,-1.2751464,-23.26615,-50.88443,-11.852915
2.1886902,0.23192063,-0.80878466,-22.721502,-49.43239,-10.627439
2.3514686,0.0701335,-0.37124786,-21.582582,-46.54444,-9.142984
2.4755309,-0.053781066,-0.01736412,-20.165854,-42.694218,-7.332562
2.5560577,-0.1512705,0.24425958,-18.409443,-38.02793,-5.521641
2.5880213,-0.22423984,0.41186166,-16.473406,-32.90159,-3.8843634
2.5022862,-0.2168113,0.39821765,-15.927681,-31.811636,-3.7556837
2.4197073,-0.20965622,0.3850759,-15.402045,-30.761808,-3.6317408
2.3401392,-0.20276204,0.37241334,-14.895576,-29.750257,-3.5123172
2.263446,-0.19611695,0.36020827,-14.407405,-28.775257,-3.3972085
2.1895006,-0.1897099,0.34844047,-13.936722,-27.835182,-3.2862232
2.1181824,-0.18353052,0.33709076,-13.482763,-26.928513,-3.1791818
2.0493789,-0.17756903,0.3261413,-13.044813,-26.053814,-3.0759146
1.9829841,-0.17181623,0.31557512,-12.622193,-25.209734,-2.9762626
1.9188976,-0.16626343,0.3053763,-12.214267,-24.395,-2.8800752
1.8570249,-0.16090246,0.29552978,-11.820431,-23.608412,-2.7872105
1.7972765,-0.15572554,0.28602132,-11.440117,-22.848827,-2.6975338
1.7395675,-0.15072533,0.27683744,-11.072785,-22.115173,-2.6109185
1.6838179,-0.14589489,0.26796535,-10.717925,-21.406425,-2.5272439
1.6299512,-0.14122759,0.25939292,-10.37505,-20.721617,-2.4463952
1.5778953,-0.13671719,0.25110865,-10.0437,-20.059828,-2.3682644
1.5275811,-0.1323577,0.24310158,-9.723438,-19.420183,-2.2927477
1.4789432,-0.12814346,0.2353613,-9.413846,-18.801847,-2.2197473
1.4319193,-0.124069065,0.22787783,-9.114527,-18.204031,-2.149169
1.3864499,-0.12012935,0.22064175,-8.825103,-17.625977,-2.0809238
1.342478,-0.116319396,0.21364401,-8.545211,-17.066961,-2.0149264
1.2999496,-0.11263452,0.20687598,-8.274507,-16.526299,-1.9510957
1.2588129,-0.10907021,0.20032941,-8.012661,-16.003325,-1.8893534
1.2190182,-0.10562219,0.19399641,-7.759358,-15.497414,-1.8296255
1.1805182,-0.10228633,0.18786946,-7.514295,-15.00796,-1.7718407
1.1432672,-0.09905871,0.18194129,-7.2771835,-14.534389,-1.7159307
1.1072218,-0.09593555,0.17620498,-7.0477457,-14.076143,-1.6618303
1.0723404,-0.09291324,0.1706539,-6.8257165,-13.632694,-1.6094767
1.0385828,-0.0899883,0.16528165,-6.610841,-13.203532,-1.5588098
1.0059104,-0.0871574,0.16008212,-6.402873,-12.788168,-1.5097718
0.9742865,-0.084417336,0.15504944,-6.2015786,-12.386132,-1.4623075
0.9436754,-0.081765026,0.15017796,-6.0067315,-11.996973,-1.4163632
0.91404307,-0.079197526,0.14546221,-5.8181143,-11.620256,-1.371888
0.88535666,-0.07671198,0.14089702,-5.635518,-11.255565,-1.3288326
0.8575846,-0.07430566,0.13647732,-5.4587417,-10.902497,-1.2871494
0.8306964,-0.071975924,0.13219829,-5.2875915,-10.560667,-1.2467929
0.8046628,-0.06972024,0.12805526,-5.121881,-10.229701,-1.2077191
0.7794556,-0.06753615,0.124043755,-4.961431,-9.909242,-1.1698856
0.7550476,-0.06542132,0.12015944,-4.8060684,-9.598943,-1.1332517
0.7314127,-0.06337346,0.11639813,-4.655626,-9.2984705,-1.097778
0.7085255,-0.061390392,0.11275583,-4.509943,-9.007504,-1.0634265
0.6863616,-0.05947,0.10922864,-4.3688645,-8.725735,-1.0301608
0.6648976,-0.057610247,0.105812825,-4.2322407,-8.452863,-0.9979454
0.6441108,-0.055809166,0.102504775,-4.0999274,-8.188599,-0.96674645
0.6239792,-0.05406486,0.09930101,-3.9717848,-7.932666,-0.93653095
0.60448176,-0.052375495,0.09619815,-3.8476787,-7.684794,-0.9072672
0.585598,-0.050739307,0.093192965,-3.7274787,-7.4447246,-0.87892455
0.56730825,-0.049154583,0.0902823,-3.6110597,-7.212206,-0.85147345
0.5495934,-0.047619678,0.08746313,-3.4983,-6.9869967,-0.8248852
0.53243506,-0.04613299,0.084732525,-3.3890831,-6.7688622,-0.7991322
0.51581544,-0.04469298,0.08208766,-3.2832952,-6.5575767,-0.77418786
0.49971738,-0.043298155,0.07952579,-3.180827,-6.3529215,-0.7500263
0.48412427,-0.041947085,0.07704427,-3.0815728,-6.1546855,-0.7266225
0.46901998,-0.040638372,0.07464056,-2.9854302,-5.9626646,-0.7039525
0.45438904,-0.039370667,0.07231217,-2.8923006,-5.776661,-0.6819929
0.4402164,-0.038142677,0.07005671,-2.802088,-5.5964837,-0.6607212
0.42648754,-0.036953133,0.067871876,-2.7147005,-5.421948,-0.6401155
0.41318837,-0.035800826,0.06575543,-2.630048,-5.252876,-0.6201548
0.40030536,-0.034684572,0.063705206,-2.5480444,-5.0890937,-0.6008187
0.38782534,-0.033603236,0.061719116,-2.4686058,-4.9304347,-0.5820874
0.37573555,-0.032555714,0.05979513,-2.3916514,-4.776737,-0.56394184
0.36402375,-0.03154094,0.057931293,-2.3171027,-4.6278443,-0.54636353
0.35267797,-0.030557882,0.056125708,-2.244884,-4.483605,-0.52933466
0.34168667,-0.029605541,0.05437654,-2.1749218,-4.3438725,-0.5128378
0.33103874,-0.028682947,0.052682012,-2.107145,-4.208505,-0.49685636
0.32072338,-0.02778917,0.051040407,-2.041485,-4.0773654,-0.481374
0.3107301,-0.026923299,0.049450062,-1.9778754,-3.9503207,-0.46637508
0.30104882,-0.02608446,0.047909368,-1.9162514,-3.8272421,-0.45184442
0.2916697,-0.025271805,0.046416763,-1.8565512,-3.7080054,-0.43776733
0.2825833,-0.024484511,0.04497074,-1.7987139,-3.5924897,-0.42412955
0.27378044,-0.023721784,0.043569837,-1.7426814,-3.4805787,-0.4109173
0.2652522,-0.022982853,0.04221264,-1.688397,-3.3721588,-0.39811727
0.25699,-0.022266971,0.04089778,-1.635806,-3.267121,-0.3857165
0.24898548,-0.021573419,0.03962393,-1.5848553,-3.1653595,-0.37370253
0.2412306,-0.020901496,0.038389806,-1.5354935,-3.0667715,-0.36206323
0.23371755,-0.020250523,0.037194166,-1.487671,-2.971258,-0.35078686
0.22643873,-0.019619849,0.036035806,-1.4413395,-2.8787222,-0.33986208
0.21938685,-0.019008836,0.03491356,-1.3964524,-2.7890713,-0.3292779
0.21255478,-0.01841687,0.03382629,-1.3529646,-2.702215,-0.31902367
0.20593567,-0.017843356,0.032772917,-1.3108324,-2.618066,-0.30908903
0.19952287,-0.017287716,0.031752374,-1.2700132,-2.53654,-0.29946405
0.19330992,-0.016749393,0.030763635,-1.2304662,-2.4575546,-0.29013902
0.18729058,-0.016227845,0.029805709,-1.1921517,-2.3810306,-0.2811046
0.1814588,-0.01572255,0.02887763,-1.155031,-2.306891,-0.27235168
0.17580873,-0.015232998,0.02797847,-1.1190668,-2.2350614,-0.2638715
0.1703347,-0.014758699,0.027107324,-1.0842233,-2.16547,-0.2556555
0.16503121,-0.014299177,0.026263319,-1.0504652,-2.0980465,-0.24769549
0.15989293,-0.013853969,0.025445607,-1.0177587,-2.0327234,-0.23998345
0.15491472,-0.013422631,0.024653366,-0.9860712,-1.9694353,-0.23251165
0.15009159,-0.013004729,0.023885805,-0.9553707,-1.9081186,-0.2252726
0.14541867,-0.012599844,0.023142152,-0.9256265,-1.8487118,-0.21825902
0.14089133,-0.012207569,0.02242166,-0.89680874,-1.7911555,-0.21146391
0.13650496,-0.011827513,0.02172361,-0.8688885,-1.7353916,-0.20488043
0.13225523,-0.011459293,0.0210473,-0.8418378,-1.6813645,-0.19850199
0.12813784,-0.01110254,0.020392051,-0.8156296,-1.6290201,-0.1923222
0.12414868,-0.010756898,0.019757211,-0.7902376,-1.5783057,-0.18633486
0.120283745,-0.010422019,0.01914214,-0.7656363,-1.5291708,-0.18053398
0.116539165,-0.01009757,0.018546222,-0.74180114,-1.4815657,-0.17491373
0.112911195,-0.009783222,0.01796886,-0.71870816,-1.4354433,-0.1694685
0.10939619,-0.009478664,0.017409477,-0.6963343,-1.390757,-0.16419284
0.10599064,-0.009183589,0.016867513,-0.6746571,-1.347462,-0.15908144
0.10269113,-0.008897702,0.016342424,-0.6536549,-1.3055153,-0.1541292
0.09949435,-0.008620717,0.015833683,-0.6333066,-1.2648746,-0.14933117
0.09639712,-0.008352356,0.015340785,-0.6135919,-1.2254993,-0.14468253
0.09339631,-0.00809235,0.014863232,-0.59449106,-1.18735,-0.1401786
0.09048894,-0.007840441,0.014400548,-0.5759849,-1.1503885,-0.13581493
0.087672085,-0.007596373,0.013952269,-0.55805486,-1.1145778,-0.13158712
0.08494293,-0.0073599047,0.013517948,-0.54068315,-1.0798819,-0.12749092
0.08229875,-0.0071307984,0.013097148,-0.5238522,-1.0462663,-0.12352226
0.07973688,-0.006908825,0.01268945,-0.50754535,-1.0136973,-0.119677156
0.07725478,-0.0066937623,0.012294443,-0.4917461,-0.9821422,-0.11595176
0.07484995,-0.006485395,0.011911735,-0.47643876,-0.9515695,-0.11234235
0.07251998,-0.0062835147,0.011540941,-0.46160793,-0.9219486,-0.10884531
0.07026255,-0.006087919,0.011181691,-0.44723886,-0.89324987,-0.105457135
0.0680754,-0.005898413,0.010833624,-0.4333171,-0.86544454,-0.10217443
0.06595634,-0.0057148063,0.010496393,-0.4198287,-0.83850485,-0.098993935
0.06390325,-0.0055369153,0.010169661,-0.40676025,-0.8124038,-0.09591244
0.061914068,-0.0053645624,0.0098530995,-0.39409864,-0.78711534,-0.09292688
0.05998681,-0.0051975744,0.009546393,-0.38183117,-0.7626141,-0.09003426
0.05811955,-0.0050357855,0.009249235,-0.3699456,-0.7388755,-0.08723169
0.05631042,-0.0048790327,0.008961326,-0.35843,-0.715876,-0.08451636
0.054557607,-0.004727159,0.00868238,-0.3472729,-0.6935924,-0.08188556
0.052859355,-0.004580014,0.008412119,-0.3364631,-0.6720025,-0.07933665
0.051213972,-0.0044374494,0.008150269,-0.3259898,-0.65108466,-0.076867096
0.049619805,-0.004299322,0.007896571,-0.31584254,-0.630818,-0.07447441
0.048075266,-0.0041654953,0.007650771,-0.30601117,-0.6111822,-0.072156206
0.046578806,-0.0040358338,0.007412622,-0.2964858,-0.5921577,-0.06991017
