ax,ay,az,gx,gy,gz
2.310021,4.8154984,0.5172774,-82.12075,67.08424,-66.02969
2.062248,4.413599,-0.24424897,-86.14939,72.86844,-70.45479
1.6850333,3.8717794,-0.8581838,-85.03564,73.975464,-72.81526
1.3650615,3.4874854,-1.3100537,-82.28311,72.95915,-75.459854
1.1401185,3.249831,-1.5963367,-80.46312,71.69023,-78.55071
1.0012528,3.0199935,-1.8072807,-79.42978,70.613846,-81.419525
0.87404674,2.7849226,-2.0144806,-78.66865,69.33389,-83.658554
0.71846676,2.5510685,-2.247153,-78.101814,67.585396,-85.23345
0.53381205,2.3239617,-2.4969447,-77.50745,64.54335,-86.19093
0.33854532,2.1125844,-2.7763813,-76.64394,60.6543,-87.309166
0.1386988,1.9267254,-3.0494556,-75.48976,55.81655,-88.95173
-0.04185229,1.7318707,-3.3049467,-74.1656,50.198025,-90.77958
-0.19273733,1.520883,-3.527974,-72.90751,43.839863,-92.26542
-0.32090667,1.2942464,-3.699968,-71.74129,37.025047,-93.10545
-0.45212322,1.038313,-3.8443296,-70.376,30.243694,-93.573845
-0.5909298,0.76875716,-3.9972382,-68.38731,23.214466,-93.487625
-0.7261723,0.48894992,-4.1550326,-65.95618,15.556478,-92.926094
-0.80490357,0.21050596,-4.282667,-63.391663,7.366709,-91.71348
-0.82820016,-0.07325529,-4.357961,-60.77682,-1.1793817,-89.58776
-0.81803584,-0.405281,-4.3783255,-57.931114,-9.278581,-86.99047
-0.7941219,-0.77227515,-4.3716445,-54.598473,-16.985851,-83.8936
-0.74891555,-1.1476653,-4.3272934,-50.469673,-24.225548,-80.29064
-0.6749706,-1.477037,-4.2394643,-45.827724,-30.983778,-76.226425
-0.5688166,-1.7670375,-4.1151547,-40.89292,-37.2707,-71.356895
-0.43620014,-2.0370243,-3.9596362,-35.47908,-43.076035,-66.14514
-0.27692667,-2.2645435,-3.7636533,-29.470049,-48.273697,-60.46728
-0.09339938,-2.4097316,-3.5355613,-23.094564,-52.811275,-54.639095
0.10568258,-2.4778142,-3.2999947,-16.613024,-56.640347,-49.119495
0.30740756,-2.5122733,-3.056081,-10.036261,-59.418602,-43.266617
0.49739373,-2.4324958,-2.782299,-3.7601454,-61.32089,-37.383495
0.6642795,-2.2338493,-2.4966478,1.7493699,-62.416233,-31.9804
0.8037097,-1.964982,-2.216518,6.2030606,-62.774776,-27.507757
0.91441846,-1.6890802,-1.9537214,9.704307,-62.519493,-23.85428
0.99963343,-1.4205763,-1.7070222,12.277709,-61.657703,-20.915735
1.0831044,-1.1418339,-1.4665928,14.031362,-60.29429,-18.37076
1.1635113,-0.86838984,-1.2454115,15.123579,-58.459118,-16.228983
1.2304375,-0.60369426,-1.048455,15.798156,-56.25498,-14.684848
1.2951486,-0.343301,-0.86763465,15.933099,-53.664497,-13.647906
1.3544536,-0.090823285,-0.7086001,15.168379,-50.58525,-13.030786
1.3940011,0.14187464,-0.5873261,13.904031,-47.334,-12.80873
1.4228932,0.3503513,-0.4931072,12.22941,-43.987186,-12.961528
1.438465,0.53381914,-0.42340592,10.266926,-40.605255,-13.470878
1.442289,0.694343,-0.3719363,7.9549656,-37.24921,-14.239829
1.435789,0.8306864,-0.33804366,5.459231,-33.933357,-15.365068
1.420221,0.94011027,-0.31966662,2.7708364,-30.735416,-16.626043
1.4041241,1.0294832,-0.31005248,-0.14634278,-27.60579,-17.93806
1.3832377,1.1004659,-0.31802386,-3.2339215,-24.546268,-19.339233
1.3594269,1.1533028,-0.3441923,-6.5268254,-21.57123,-20.756756
1.3267839,1.1851026,-0.38516718,-9.862728,-18.750662,-22.198683
1.2844106,1.1963553,-0.43700156,-12.862102,-16.057976,-23.935488
1.2415631,1.1944209,-0.4915048,-15.7384615,-13.486643,-25.847538
1.1920406,1.174404,-0.54713327,-18.526691,-11.075677,-27.731108
1.1349463,1.1476314,-0.60271835,-21.335342,-8.79919,-29.494133
1.0671256,1.1185387,-0.67101604,-24.030308,-6.862064,-30.943218
0.9701236,1.0849626,-0.76102334,-26.39051,-5.296217,-32.43144
0.86421806,1.0539095,-0.8589377,-28.534924,-4.2130055,-33.840683
0.75556445,1.0269482,-0.96271944,-30.342226,-3.6730611,-35.260757
0.6537862,1.0022391,-1.0661925,-31.792189,-3.5946994,-36.997597
0.5725441,0.9660662,-1.1639335,-33.098473,-4.119316,-38.94739
0.52552384,0.8964234,-1.245107,-34.344433,-4.836038,-40.71657
0.48344225,0.8093246,-1.3207873,-35.334316,-5.62266,-42.37776
0.43428084,0.7161388,-1.4010752,-36.232204,-6.5834203,-43.798885
0.37138057,0.611488,-1.4926627,-37.13242,-7.8776855,-44.825413
0.29536948,0.49010628,-1.5954348,-37.621708,-9.818004,-45.611797
0.22534634,0.35532477,-1.6939063,-37.442215,-12.196391,-46.553802
0.18153842,0.20947486,-1.7667327,-36.700523,-14.850291,-47.49306
0.16774052,0.052937157,-1.8082434,-35.70234,-17.53536,-47.927055
0.16144663,-0.102152124,-1.8353639,-34.325893,-20.149252,-47.92856
0.15338421,-0.24484244,-1.8666186,-32.28227,-22.753271,-47.80718
0.13535587,-0.40287888,-1.9259723,-29.898333,-25.569862,-47.551693
0.121144004,-0.58752155,-1.9943013,-27.139057,-28.599676,-46.993774
0.11319052,-0.7894389,-2.0617301,-23.739721,-31.845255,-46.08179
0.11658217,-0.9650893,-2.109783,-19.896519,-35.223896,-44.663082
0.13565637,-1.0941365,-2.128914,-15.291394,-38.58221,-43.17496
0.19215094,-1.1752937,-2.1017997,-10.383068,-41.56345,-41.82268
0.2643598,-1.2507575,-2.0613322,-4.9728665,-44.08598,-40.75803
0.34116772,-1.3293548,-2.009192,0.7007889,-46.258003,-39.513935
0.42289892,-1.3874245,-1.9351557,6.482862,-48.156956,-37.743557
0.5209742,-1.3742843,-1.8268235,11.721015,-49.62646,-35.362328
0.6318917,-1.2954861,-1.6965224,16.196966,-50.609657,-32.998512
0.7303123,-1.222855,-1.5772018,20.151518,-51.16114,-30.757172
0.8162438,-1.1461104,-1.4600571,24.18615,-51.420094,-28.741764
0.90796936,-0.98780745,-1.3099664,27.931728,-51.309765,-27.26734
1.0137596,-0.7440423,-1.116403,29.912653,-50.548656,-26.045517
1.1140565,-0.48822775,-0.91160154,30.238478,-49.192497,-24.68066
1.188004,-0.28929543,-0.743085,29.633932,-47.358414,-23.17355
1.2293996,-0.14821467,-0.6221594,29.027624,-45.272552,-21.883114
1.2540424,-0.038481742,-0.531657,28.693377,-42.97939,-20.896076
1.273825,0.06804089,-0.4587397,28.13819,-40.527664,-19.97491
1.2894063,0.1723687,-0.39487803,27.023,-38.02951,-18.891758
1.2996687,0.25512147,-0.33858833,25.350483,-35.48639,-17.628843
1.3078207,0.30468792,-0.29156741,23.29714,-32.815563,-16.098246
1.3064177,0.32210195,-0.26491114,21.272514,-30.179647,-14.339093
1.2972674,0.32250553,-0.25183395,19.592691,-27.743654,-12.5133705
1.2993549,0.29505572,-0.24035877,17.878153,-25.705385,-10.563949
1.3272698,0.21862487,-0.2289645,15.73485,-24.357544,-8.015677
1.2857751,0.21178995,-0.22180633,15.2429285,-23.596048,-7.765082
1.2455884,0.2051705,-0.2148738,14.766513,-22.858559,-7.5223856
1.2066675,0.19875954,-0.20815966,14.305104,-22.144297,-7.287334
1.1689718,0.19255038,-0.20165683,13.858219,-21.452518,-7.0596805
1.1324617,0.18653652,-0.19535856,13.42539,-20.7825,-6.839188
1.0970993,0.1807117,-0.18925826,13.006167,-20.133543,-6.6256266
1.0628477,0.17506987,-0.18334961,12.600114,-19.504972,-6.418774
1.0296717,0.16960518,-0.17762648,12.20681,-18.896137,-6.2184167
0.9975367,0.16431199,-0.17208295,11.825848,-18.30641,-6.0243464
0.9664097,0.15918481,-0.16671328,11.456836,-17.735178,-5.8363633
0.93625855,0.15421838,-0.16151197,11.099392,-17.181854,-5.6542735
0.9070522,0.14940758,-0.15647365,10.753149,-16.645872,-5.47789
0.87876076,0.14474748,-0.15159315,10.417752,-16.126678,-5.3070316
0.85135514,0.1402333,-0.14686547,10.092858,-15.623741,-5.141523
0.82480735,0.1358604,-0.14228576,9.778132,-15.136546,-4.981195
0.79909027,0.13162434,-0.13784936,9.473255,-14.664597,-4.825884
0.7741776,0.12752078,-0.13355173,9.177915,-14.207409,-4.675431
0.750044,0.12354554,-0.1293885,8.891809,-13.764518,-4.5296826
0.72666484,0.11969458,-0.12535541,8.614648,-13.335472,-4.3884907
0.7040164,0.11596397,-0.12144837,8.346149,-12.919836,-4.2517114
0.68207556,0.112349935,-0.117663406,8.08604,-12.517187,-4.119206
0.6608201,0.108848795,-0.11399668,7.834056,-12.127116,-3.99084
0.64022857,0.105457,-0.11044447,7.589942,-11.749228,-3.8664827
0.62027997,0.10217111,-0.10700318,7.3534503,-11.383139,-3.7460089
0.6009542,0.09898781,-0.10366933,7.124342,-11.028479,-3.629296
0.5822316,0.095903866,-0.10043953,6.9023848,-10.68489,-3.516226
0.5640933,0.09291617,-0.097310536,6.6873546,-10.352022,-3.4066849
0.546521,0.0900217,-0.09427918,6.479034,-10.029542,-3.300562
0.5294969,0.08721753,-0.09134238,6.2772126,-9.717123,-3.1977496
0.5130039,0.084500834,-0.08849721,6.0816865,-9.414449,-3.0981445
0.49702525,0.08186887,-0.085740775,5.8922596,-9.121216,-3.001646
0.48154497,0.07931899,-0.0830703,5.7087398,-8.837127,-2.908157
0.46654737,0.076848626,-0.080483094,5.5309424,-8.561897,-2.8175833
0.4520174,0.074455276,-0.07797656,5.358689,-8.295249,-2.7298336
0.4379404,0.07213655,-0.075548165,5.1918054,-8.036913,-2.6448195
0.42430222,0.0698901,-0.07319547,5.030124,-7.7866306,-2.5624557
0.41108915,0.06771367,-0.070916116,4.8734827,-7.5441494,-2.4826589
0.3982879,0.06560508,-0.0687078,4.721723,-7.3092256,-2.4053493
0.3858856,0.0635622,-0.0665683,4.574693,-7.0816236,-2.3304489
0.37386978,0.061582983,-0.06449548,4.432245,-6.8611135,-2.2578828
0.36222836,0.059665434,-0.06248725,4.2942357,-6.6474752,-2.1875777
0.3509497,0.05780764,-0.060541585,4.1605263,-6.4404936,-2.1194632
0.34002241,0.05600772,-0.058656547,4.030983,-6.23996,-2.053471
0.3294356,0.054263882,-0.056830235,3.9054754,-6.045675,-1.9895349
0.31917855,0.052574366,-0.055060815,3.7838778,-5.857442,-1.9275904
0.30924106,0.050937485,-0.053346515,3.666068,-5.675072,-1.8675755
0.2996131,0.049351588,-0.051685616,3.5519283,-5.498384,-1.8094301
0.29028502,0.047815092,-0.050076455,3.4413435,-5.327199,-1.7530959
0.2812475,0.04632645,-0.04851741,3.3342032,-5.1613455,-1.6985162
0.27249146,0.044884175,-0.047006924,3.2303998,-5.000658,-1.6456366
0.26400813,0.04348682,-0.04554348,3.1298296,-4.844975,-1.5944037
0.25578898,0.04213298,-0.044125613,3.0323913,-4.694141,-1.5447665
0.24782582,0.040821306,-0.042751905,2.9379873,-4.5480037,-1.4966753
0.24011062,0.039550476,-0.041420974,2.8465235,-4.4064174,-1.4500815
0.23263569,0.038319223,-0.040131487,2.7579079,-4.2692404,-1.4049387
0.22539352,0.03712631,-0.03888216,2.6720514,-4.136335,-1.3612016
0.21837687,0.035970543,-0.03767173,2.5888689,-4.007568,-1.3188266
0.21157871,0.034850765,-0.036498994,2.5082762,-3.8828106,-1.2777709
0.20499222,0.033765852,-0.035362773,2.430193,-3.761938,-1.2379936
0.19861081,0.03271472,-0.034261927,2.354541,-3.6448288,-1.1994549
0.1924281,0.03169632,-0.03319536,2.2812448,-3.531366,-1.162116
0.18643789,0.030709626,-0.032162003,2.2102306,-3.421436,-1.1259398
0.18063419,0.029753651,-0.031160818,2.1414273,-3.3149288,-1.09089
0.17501117,0.028827444,-0.030190805,2.0747662,-3.2117374,-1.0569314
0.16956323,0.02793007,-0.029250992,2.0101807,-3.111759,-1.0240301
0.1642849,0.027060635,-0.02834044,1.9476057,-3.014893,-0.99215305
0.15917091,0.02621827,-0.027458236,1.8869791,-2.921043,-0.96126854
0.15421613,0.02540213,-0.026603496,1.8282399,-2.8301148,-0.93134546
0.1494156,0.024611399,-0.025775367,1.7713294,-2.7420173,-0.902354
0.14476451,0.023845283,-0.02497302,1.7161906,-2.6566625,-0.87426513
0.14025824,0.023103017,-0.02419565,1.6627685,-2.573965,-0.84705067
0.13589224,0.022383861,-0.023442483,1.6110094,-2.493842,-0.8206835
0.13166216,0.021687092,-0.02271276,1.5608616,-2.4162133,-0.7951371
0.12756377,0.021012016,-0.022005755,1.512275,-2.3410013,-0.77038604
0.12359297,0.020357953,-0.02132076,1.4652009,-2.2681305,-0.7464055
0.11974578,0.019724254,-0.02065709,1.4195923,-2.1975284,-0.7231714
0.116018355,0.01911028,-0.02001408,1.3754034,-2.129124,-0.70066065
0.11240696,0.01851542,-0.019391086,1.3325901,-2.062849,-0.67885065
0.10890799,0.017939076,-0.018787485,1.2911097,-1.9986373,-0.65771955
0.10551794,0.017380675,-0.018202676,1.2509204,-1.9364245,-0.6372463
0.10223342,0.016839657,-0.01763607,1.2119823,-1.8761482,-0.61741036
0.09905115,0.016315479,-0.017087102,1.1742563,-1.8177483,-0.5981919
0.09596793,0.01580762,-0.016555224,1.1377046,-1.7611665,-0.57957166
0.0929807,0.015315569,-0.016039902,1.1022907,-1.7063458,-0.56153107
