ax,ay,az,gx,gy,gz
-0.2218202,1.6745607,-1.2091019,35.01214,26.245693,-30.29573
-0.07515404,2.0373614,-1.0432428,34.848167,31.247314,-33.10606
0.06514975,2.4382935,-0.9720679,34.060234,33.891357,-35.662285
0.100855,2.73297,-0.90742207,32.68485,34.75397,-39.18426
0.064973585,2.9253511,-0.86708796,28.632372,34.146862,-41.821625
0.08185793,3.0613258,-0.83596134,22.762714,33.051342,-44.364933
0.2143291,3.1790292,-0.81769776,15.7418585,32.5242,-46.874947
0.3678512,3.2329361,-0.8045408,8.080166,32.49452,-48.922802
0.4862517,3.2084346,-0.8141486,1.7508302,32.99273,-51.409893
0.5609991,3.1584737,-0.8618089,-3.0161853,33.635967,-54.65988
0.5961639,3.13082,-0.9550087,-7.0502305,33.73223,-58.38568
0.6004575,3.1405709,-1.1097391,-11.496144,33.07667,-62.21065
0.58759415,3.1036487,-1.2805144,-16.431417,31.94675,-65.86931
0.5535415,2.9852097,-1.4624528,-21.117893,30.368586,-69.103355
0.5181557,2.8259192,-1.6537215,-25.247269,28.359745,-72.25668
0.50429726,2.6573398,-1.8350357,-29.152195,25.911268,-74.98075
0.48564893,2.447944,-2.011663,-32.80927,23.324625,-77.27238
0.43356,2.2091744,-2.1927044,-35.79155,20.38791,-79.20505
0.3541871,1.964696,-2.3683043,-37.764687,16.771832,-80.88647
0.2898551,1.7437993,-2.5204723,-39.066254,12.530019,-82.28506
0.26578963,1.5526214,-2.6362455,-40.44352,7.898125,-83.088066
0.258691,1.34963,-2.7053044,-41.958706,3.440334,-83.39746
0.2449918,1.1080078,-2.7677338,-43.48126,-0.9117796,-83.03754
0.23353831,0.8333581,-2.820581,-44.723576,-5.1838408,-81.79557
0.2349343,0.55941975,-2.8563275,-45.07423,-9.30518,-80.340454
0.24329051,0.29066795,-2.8640656,-44.016552,-13.1966915,-78.85519
0.25282317,0.0399268,-2.8385322,-42.587006,-16.848495,-76.90955
0.2680116,-0.18522747,-2.7925708,-41.07299,-20.253777,-74.4412
0.28717455,-0.39239806,-2.7366064,-39.393585,-23.418812,-71.72438
0.29527038,-0.59314674,-2.6705735,-37.463097,-26.430891,-68.7823
0.30188558,-0.77665013,-2.5873055,-35.378223,-29.34278,-65.44077
0.32113618,-0.945402,-2.473852,-33.10923,-32.04788,-61.84179
0.3534674,-1.0844978,-2.3457518,-30.804668,-34.490387,-58.06977
0.39533573,-1.2150639,-2.2184463,-28.554264,-36.62104,-54.235115
0.42883745,-1.3711789,-2.1110885,-26.141697,-38.479378,-50.341652
0.44669574,-1.5621046,-2.0283759,-22.79035,-40.278744,-46.149727
0.4706866,-1.7397523,-1.9339192,-18.65953,-41.973347,-41.68946
0.5135261,-1.8487369,-1.8217703,-14.196306,-43.429325,-37.157063
0.56653494,-1.9017379,-1.7120268,-9.801336,-44.596416,-32.83383
0.61617166,-1.9474913,-1.6130424,-5.7359447,-45.601486,-28.339102
0.65570205,-1.9852722,-1.522418,-1.7959031,-46.712727,-23.355282
0.7094117,-1.9782676,-1.4188793,1.9532634,-47.843895,-18.151854
0.79189605,-1.9358351,-1.2913301,6.2115893,-48.490948,-13.506311
0.89323163,-1.8501691,-1.1408195,10.976075,-48.358616,-9.632937
0.9951113,-1.7065192,-0.9777915,15.293858,-47.505585,-5.9759717
1.0762484,-1.5163498,-0.82309216,18.446512,-46.069004,-2.4383981
1.1172103,-1.3047894,-0.70186895,20.917181,-44.493626,0.57406497
1.1363412,-1.1046001,-0.6073829,22.730673,-42.844086,3.1606343
1.1367388,-0.9223793,-0.54016984,23.992928,-41.218937,5.4480386
1.1254574,-0.7549798,-0.48679835,25.151583,-39.622784,7.35754
1.1170439,-0.5728194,-0.43294266,26.180683,-37.946747,8.723309
1.1203315,-0.35363346,-0.37360737,26.65603,-36.1365,9.649368
1.1183828,-0.13305819,-0.32548076,26.440453,-34.23194,10.1568775
1.1069609,0.06362606,-0.29665926,25.7518,-32.35227,10.340792
1.088212,0.23603474,-0.28603658,24.77739,-30.637539,10.293426
1.0706153,0.39011708,-0.28339526,23.564905,-29.046358,9.915447
1.0576061,0.5299331,-0.28256017,22.314356,-27.513195,9.244185
1.0467712,0.6643695,-0.27864185,21.044987,-26.017435,8.203116
1.0369451,0.79212797,-0.27094355,19.691456,-24.531384,6.9560843
1.027794,0.9134575,-0.26009864,18.175308,-23.016605,5.526722
1.0146129,1.0252142,-0.2542811,16.363663,-21.521557,3.7849333
0.99554324,1.1163415,-0.2648012,14.368277,-20.177721,1.8786967
0.9817582,1.1909856,-0.2802234,12.252913,-18.941753,-0.15653174
0.9757041,1.2520882,-0.2961769,10.094479,-17.681541,-2.3359754
0.9677022,1.3004755,-0.31682712,7.8000503,-16.391945,-4.591812
0.94706565,1.3303217,-0.34968027,5.3134885,-15.203204,-6.85294
0.9150155,1.3337084,-0.39782664,2.9641616,-14.183911,-9.1233835
0.884048,1.3311584,-0.44831362,0.84844625,-13.327937,-11.506524
0.8548878,1.3285346,-0.49834913,-1.2487845,-12.580642,-13.914824
0.8171054,1.3192703,-0.55187607,-3.4159834,-11.938164,-16.31454
0.76609474,1.2979927,-0.6127577,-5.806355,-11.585247,-18.632362
0.71375614,1.2577715,-0.6777238,-8.212508,-11.467245,-20.915976
0.6711815,1.2043047,-0.737494,-10.517817,-11.482987,-23.135723
0.63578135,1.1400079,-0.79301196,-12.632954,-11.593072,-25.321081
0.603349,1.066449,-0.8433812,-14.665132,-11.757547,-27.334154
0.56761086,0.98725927,-0.893463,-16.740906,-12.020942,-29.059238
0.5171374,0.8972176,-0.95705354,-18.833872,-12.55359,-30.606491
0.4639159,0.78591263,-1.0230917,-20.847189,-13.412025,-32.060993
0.41712287,0.6480212,-1.0821592,-22.596798,-14.496844,-33.356598
0.37591147,0.493311,-1.1331354,-23.841417,-15.723585,-34.567932
0.3375429,0.33335754,-1.175976,-24.37476,-17.106827,-35.617096
0.301166,0.18202022,-1.2079608,-24.756435,-18.610743,-36.23666
0.26957637,0.04004707,-1.2322795,-25.154655,-20.20073,-36.398525
0.2412325,-0.097370476,-1.2511652,-25.497877,-21.85866,-36.3019
0.21561874,-0.23924686,-1.2632877,-25.582712,-23.584293,-36.056866
0.19757515,-0.3840918,-1.2610492,-25.036219,-25.214497,-35.50154
0.17756544,-0.5005867,-1.2415894,-24.112545,-26.790749,-34.81453
0.16133031,-0.5884622,-1.2102968,-23.164705,-28.345493,-33.94263
0.14743039,-0.6580836,-1.1731024,-22.294876,-29.900513,-32.924347
0.13829711,-0.72759193,-1.1349903,-21.506254,-31.476871,-31.827484
0.13515517,-0.8116847,-1.0985267,-20.69104,-33.064373,-30.505402
0.14185153,-0.9179747,-1.0633758,-19.593979,-34.59963,-29.030275
0.16063774,-1.0244982,-1.023954,-18.298553,-36.0194,-27.31529
0.18361725,-1.131532,-0.98606116,-16.730911,-37.29875,-25.433018
0.20705919,-1.2416267,-0.9559663,-14.766019,-38.44605,-23.474691
0.22947946,-1.3512472,-0.9348899,-12.174152,-39.499855,-21.410208
0.2541624,-1.4393079,-0.9180737,-9.339669,-40.566185,-19.14565
0.28091148,-1.5085903,-0.9000061,-6.514399,-41.663784,-16.561388
0.3153484,-1.5556611,-0.8775706,-3.8334284,-42.730625,-13.688561
0.35513672,-1.5886918,-0.8522487,-1.1987314,-43.685696,-10.683047
0.39576614,-1.6090027,-0.8284729,1.8697121,-44.416298,-7.918862
0.43733546,-1.6125624,-0.7994803,5.2971973,-44.92381,-5.3635364
0.47731787,-1.5894108,-0.7669028,8.689437,-45.280064,-2.831324
0.516794,-1.5441372,-0.7299793,11.702729,-45.581345,-0.12144246
0.5559365,-1.4869894,-0.6894395,14.411923,-45.84839,2.6748617
0.600404,-1.4138477,-0.63790816,17.041853,-45.874714,5.2901273
0.65645635,-1.296294,-0.5681497,19.505531,-45.5822,7.602512
0.7051059,-1.1531634,-0.49309048,21.43126,-45.034195,9.720555
0.7429679,-1.0003246,-0.42384464,22.74459,-44.337734,11.682798
0.775902,-0.8482485,-0.36375284,23.533314,-43.531754,13.551228
0.80930203,-0.6969098,-0.30750647,24.112715,-42.49025,15.028108
0.8464274,-0.5394249,-0.25167936,24.769146,-41.18064,15.998255
0.88298386,-0.36819154,-0.19638264,25.266123,-39.556183,16.622177
0.9100427,-0.17921342,-0.14967321,25.340405,-37.81509,17.043915
0.92880595,0.008033743,-0.110689245,24.921524,-36.10748,17.302195
0.9487905,0.17705518,-0.07264315,24.04585,-34.32389,17.36596
0.97170347,0.32097432,-0.037125953,22.94454,-32.44766,17.245132
0.99807644,0.4503944,-0.00091081363,21.529575,-30.46646,17.02727
1.0264614,0.56505316,0.037445135,19.555906,-28.391178,16.875166
0.99447834,0.54744697,0.036278397,18.946571,-27.50655,16.34936
0.9634938,0.5303904,0.035148088,18.35626,-26.64954,15.83997
0.9334764,0.5138662,0.034053057,17.784376,-25.81928,15.346478
0.90439576,0.4978577,0.0329922,17.23034,-25.01493,14.868389
0.87622255,0.4823487,0.031964447,16.693588,-24.23568,14.405218
0.8489283,0.4673236,0.030968755,16.173586,-23.480742,13.956496
0.82248545,0.45276716,0.030004125,15.669803,-22.749352,13.521772
0.7968674,0.43866476,0.029069582,15.181732,-22.040773,13.100608
0.7720482,0.42500213,0.028164184,14.708883,-21.354294,12.692577
0.74800295,0.41176558,0.027287018,14.250779,-20.68922,12.297271
0.7247074,0.3989417,0.0264372,13.806958,-20.044882,11.9142885
0.7021382,0.3865176,0.025613878,13.376974,-19.420633,11.543247
0.68027246,0.3744808,0.02481622,12.960393,-18.815844,11.183772
0.65908825,0.36281922,0.024043426,12.556798,-18.229904,10.835501
0.63856435,0.3515211,0.023294717,12.165781,-17.662228,10.498085
0.61868006,0.34057507,0.022569342,11.78695,-17.112242,10.171185
0.5994154,0.32997015,0.021866571,11.419925,-16.579397,9.854471
0.58075106,0.31969565,0.0211857,11.064336,-16.063154,9.547627
0.56266826,0.30974132,0.020526042,10.719827,-15.562997,9.250343
0.5451489,0.30009714,0.019886937,10.38605,-15.0784235,8.962322
0.5281753,0.2907534,0.019267743,10.062674,-14.608946,8.683273
0.5117305,0.28170073,0.01866784,9.749371,-14.154094,8.412919
0.49579793,0.2729301,0.018086622,9.4458275,-13.713411,8.150986
0.48036167,0.26443264,0.01752351,9.15174,-13.286456,7.8972116
0.46540624,0.25619987,0.01697794,8.866812,-12.8728,7.651342
0.45091662,0.24822353,0.01644936,8.590759,-12.472027,7.4131308
0.4368783,0.24049562,0.015937245,8.323304,-12.083737,7.1823387
0.42327717,0.2330084,0.015441078,8.064179,-11.7075405,6.9587345
0.41009966,0.22575435,0.014960364,7.8131237,-11.34306,6.742094
0.39733252,0.2187262,0.014494621,7.569887,-10.989929,6.532201
0.38496295,0.21191692,0.014043381,7.334225,-10.647797,6.3288436
0.3729786,0.2053197,0.013606194,7.105902,-10.316318,6.131819
0.36136743,0.19892791,0.0131826205,6.884689,-9.995161,5.94093
0.3501178,0.19273515,0.012772237,6.6703634,-9.684005,5.7559843
0.3392185,0.18673521,0.012374632,6.4627123,-9.382538,5.5767984
0.32865855,0.1809221,0.011989407,6.2615266,-9.090457,5.4031916
0.3184274,0.17529,0.011616177,6.0666056,-8.807471,5.23499
0.30851483,0.16983327,0.011254568,5.8777533,-8.533297,5.072026
0.2989109,0.16454643,0.010904217,5.6947813,-8.267658,4.914136
0.28960598,0.15942419,0.010564775,5.517506,-8.010291,4.7611613
0.28059074,0.15446143,0.010235902,5.34575,-7.7609367,4.61295
0.2718562,0.14965318,0.009917268,5.179342,-7.5193458,4.469353
0.2633936,0.14499463,0.009608553,5.018114,-7.2852764,4.330227
0.25519446,0.14048113,0.00930945,4.861906,-7.058494,4.1954317
0.2472506,0.13610813,0.009019659,4.7105613,-6.8387723,4.0648336
0.23955403,0.13187128,0.008738889,4.563928,-6.625891,3.938301
0.23209709,0.12776633,0.008466861,4.42186,-6.419637,3.8157077
0.22487229,0.12378917,0.0082033025,4.284215,-6.219805,3.6969311
0.21787241,0.119935825,0.007947948,4.1508546,-6.0261927,3.581852
0.21109045,0.116202444,0.0077005425,4.021646,-5.8386087,3.4703555
0.2045196,0.11258529,0.0074608396,3.89646,-5.6568637,3.3623302
0.19815332,0.10908073,0.0072285985,3.7751713,-5.4807773,3.2576675
0.19198522,0.10568528,0.007003587,3.6576579,-5.310172,3.156263
0.18600912,0.10239553,0.006785581,3.543803,-5.144878,3.0580153
0.18021908,0.099208176,0.0065743607,3.4334922,-4.9847293,2.9628263
0.17460927,0.09612005,0.006369716,3.3266156,-4.829566,2.8706002
0.16917409,0.09312806,0.0061714416,3.2230659,-4.679233,2.7812452
0.16390811,0.09022921,0.0059793396,3.1227396,-4.53358,2.6946716
0.15880606,0.0874206,0.0057932176,3.0255363,-4.3924603,2.610793
0.15386282,0.084699415,0.0056128893,2.931359,-4.255734,2.5295258
0.14907347,0.08206294,0.005438174,2.8401132,-4.123264,2.450788
