ax,ay,az,gx,gy,gz
1.0700097,1.3227394,2.0145638,-11.818289,-64.14331,11.651924
1.7847055,1.3423986,3.0906339,-10.782312,-46.551525,-4.6308217
2.1619353,1.4993285,3.4943864,-10.513014,-38.35199,-15.9158325
2.681188,1.7741671,3.7976086,-18.787264,-33.74447,-19.191645
3.4210556,1.6356239,4.2927313,-24.293087,-25.135439,-17.608713
4.274809,1.4963437,4.8557725,-29.949352,-13.218439,-12.310933
5.0327177,1.4760274,5.2650037,-35.788704,2.162056,-7.5048876
5.5115395,1.4108034,5.3363814,-35.525093,21.341522,-7.6049314
5.873713,1.2139689,5.2625875,-33.00653,40.948315,-8.787878
6.1562295,1.0313182,5.118381,-32.93955,58.43304,-8.458441
6.344344,0.85303944,4.9154716,-35.440582,73.79081,-5.5402827
6.466049,0.76800287,4.6845407,-39.922478,87.857056,-1.2559476
6.469813,0.71982265,4.317415,-43.12204,100.73803,2.0545201
6.415174,0.6747921,3.885489,-43.857376,112.62171,3.5910754
6.4003863,0.67883646,3.5079432,-44.528107,123.45984,4.843079
6.3598866,0.7387217,3.1192653,-46.208126,132.53767,6.903688
6.252441,0.8587815,2.7143607,-48.361626,139.75002,9.724569
6.1155567,1.0635959,2.3459275,-51.52976,145.81985,12.463325
5.934598,1.3686674,1.930353,-54.084812,151.23633,13.451692
5.6804023,1.6507972,1.4521333,-55.439537,155.17291,13.123463
5.409127,1.9717128,1.0020428,-56.369926,157.5889,11.923055
5.1495442,2.3434477,0.59939164,-58.186234,158.52663,9.936013
4.878588,2.7076948,0.21400256,-59.825665,158.06578,6.02108
4.6044464,3.0603917,-0.1374121,-60.479572,157.1116,0.1884717
4.3551903,3.3774605,-0.4342948,-60.902107,156.02963,-6.732414
4.1095705,3.6559553,-0.740626,-61.86032,154.3131,-13.663643
3.8040805,3.8666844,-1.1097753,-63.54905,151.07767,-20.99358
3.4596305,3.9517539,-1.5450075,-65.10891,145.46397,-29.005016
3.0936463,3.8528898,-2.0651329,-66.25295,137.85135,-37.37595
2.7508364,3.634361,-2.5925112,-66.8493,128.25194,-45.85499
2.4948163,3.3013287,-3.0283406,-66.186356,118.400536,-53.986103
2.369542,2.8356287,-3.348672,-63.771446,109.408226,-60.05195
2.297483,2.2784357,-3.6137419,-59.80254,101.3583,-63.09332
2.2286248,1.6116588,-3.906329,-54.04051,93.83132,-64.08728
2.1279397,1.0060765,-4.221813,-47.10876,85.61977,-64.0517
2.0511706,0.47223595,-4.50389,-40.012695,76.19497,-63.5784
2.1114907,-0.122264765,-4.6747003,-32.423347,66.64849,-61.96322
2.3206782,-0.6827901,-4.679009,-24.443995,59.098534,-56.47472
2.5496912,-1.1312661,-4.6396165,-16.492369,52.451054,-48.719807
2.8088439,-1.5474476,-4.573739,-7.0201454,47.109562,-38.569088
3.0692406,-1.7374387,-4.470345,2.5970216,42.23507,-26.565538
3.3316286,-1.7111653,-4.291623,11.524176,37.75997,-15.337773
3.6176147,-1.5573984,-4.0003295,20.466635,35.321167,-5.103674
3.8483322,-0.9154625,-3.5286112,25.819782,34.06892,0.9791235
3.9697387,-0.2731092,-3.0580723,28.214483,33.780132,3.6622207
3.9799643,0.29092026,-2.670782,28.644463,33.64766,5.806525
3.8952634,0.89975005,-2.345235,27.371359,33.04875,7.3483353
3.74575,1.4917394,-2.0872045,24.569489,31.929895,7.106764
3.538908,2.0654204,-1.9106567,21.426105,30.716412,4.23207
3.3149378,2.5765166,-1.8082428,18.352997,29.494953,-1.2007251
3.061277,2.9847682,-1.8127878,15.506649,27.573814,-8.173717
2.7932768,3.3080766,-1.9061302,12.421561,24.411495,-16.130049
2.5484264,3.5682824,-2.0459683,8.450566,19.065296,-25.455925
2.4206836,3.6375592,-2.1846747,4.6410046,13.101885,-34.99567
2.404859,3.5604858,-2.2944374,1.7171911,7.564437,-43.93196
2.457501,3.3436506,-2.4165943,-0.4604778,2.3275306,-51.59459
2.5228565,3.013415,-2.5818133,-1.509078,-3.1057963,-57.548817
2.5590425,2.6588645,-2.7452905,-1.8656769,-9.160916,-61.67368
2.632384,2.256054,-2.8530576,-1.561469,-15.003111,-64.64979
2.7221422,1.8226709,-2.931589,-0.045384962,-20.321627,-66.79449
2.8569067,1.3893355,-2.9349153,2.144843,-24.479145,-67.75331
3.0508413,0.94946325,-2.870674,4.705291,-27.193956,-67.04526
3.2719028,0.54220676,-2.75812,7.565312,-27.972052,-63.598286
3.4632735,0.19470774,-2.6536138,10.672903,-27.672342,-58.473595
3.6100438,-0.09884104,-2.575314,14.119576,-26.878239,-52.25625
3.7620788,-0.40002942,-2.4947743,19.04384,-25.148962,-44.847935
3.9292066,-0.65083617,-2.405015,25.109539,-22.525803,-35.83485
4.102334,-0.6987636,-2.2567372,29.242348,-19.194609,-25.042797
4.3249574,-0.59178174,-1.9910287,30.873686,-14.706399,-14.315276
4.5756855,-0.41634706,-1.6818844,30.288189,-7.8791494,-3.3745275
4.733334,-0.20167224,-1.4997327,29.444302,0.5648588,6.540968
4.813798,-0.03793526,-1.4211743,30.017916,10.801302,15.378368
4.6609397,-0.03673066,-1.376046,29.06472,10.458315,14.89004
4.5131164,-0.03556573,-1.3324041,28.142921,10.126625,14.417797
4.3701453,-0.034439042,-1.2901949,27.25138,9.805824,13.961055
4.2318525,-0.033349223,-1.2493669,26.389015,9.49552,13.519259
4.098071,-0.03229496,-1.2098707,25.554783,9.195339,13.091876
3.9686425,-0.03127499,-1.1716596,24.747688,8.904923,12.678397
3.8434129,-0.030288117,-1.1346881,23.966782,8.623931,12.278334
3.7222366,-0.029333184,-1.0989133,23.21115,8.352033,11.891218
3.6049728,-0.028409082,-1.0642936,22.479916,8.088914,11.5166025
3.491487,-0.027514754,-1.0307893,21.77224,7.8342724,11.154056
3.3816497,-0.026649179,-0.9983621,21.087317,7.587817,10.803165
3.275337,-0.02581138,-0.96697545,20.42437,7.3492703,10.463533
3.1724293,-0.025000412,-0.9365941,19.782658,7.118364,10.13478
3.072812,-0.024215376,-0.9071841,19.161463,6.8948407,9.816539
2.9763746,-0.023455398,-0.878713,18.560097,6.678452,9.508455
2.8830109,-0.022719642,-0.85114926,17.9779,6.468961,9.210192
2.7926185,-0.022007305,-0.82446283,17.41423,6.2661366,8.921421
2.7050993,-0.021317607,-0.79862463,16.868479,6.0697594,8.641828
2.6203585,-0.020649804,-0.7736066,16.34005,5.879616,8.371111
2.5383043,-0.020003174,-0.7493818,15.828376,5.695501,8.108976
2.4588487,-0.019377021,-0.7259242,15.332906,5.5172167,7.8551445
2.381907,-0.01877068,-0.70320874,14.853112,5.344573,7.609343
2.307397,-0.018183501,-0.6812112,14.388482,5.177386,7.37131
2.2352397,-0.017614866,-0.65990824,13.938523,5.015478,7.140794
2.165359,-0.017064167,-0.6392774,13.50276,4.858678,6.9175496
2.097681,-0.01653083,-0.6192969,13.080734,4.706821,6.7013426
2.0321348,-0.016014291,-0.5999458,12.672001,4.559747,6.491946
1.9686518,-0.015514012,-0.5812037,12.276133,4.4173026,6.28914
1.9071655,-0.015029469,-0.56305116,11.892716,4.2793384,6.092714
1.8476121,-0.014560156,-0.5454692,11.521353,4.145711,5.902462
1.7899296,-0.014105587,-0.52843964,11.161655,4.016282,5.718187
1.7340581,-0.013665291,-0.5119448,10.813252,3.8909163,5.539697
1.67994,-0.013238812,-0.49596754,10.475781,3.769485,5.3668094
1.6275194,-0.012825709,-0.4804914,10.148896,3.6518624,5.1993437
1.576742,-0.012425558,-0.46550047,9.832259,3.5379272,5.0371284
1.5275561,-0.012037946,-0.45097932,9.525545,3.4275625,4.879997
1.4799107,-0.011662476,-0.436913,9.228437,3.320655,4.727787
1.4337573,-0.011298762,-0.42328718,8.940634,3.217095,4.5803432
1.3890485,-0.010946433,-0.41008782,8.661839,3.1167765,4.437515
1.3457386,-0.0106051285,-0.3973015,8.391767,3.0195968,4.299155
1.3037835,-0.010274501,-0.3849151,8.130142,2.925457,4.1651235
1.2631403,-0.009954211,-0.37291604,7.8766994,2.8342612,4.035283
1.2237678,-0.009643935,-0.36129212,7.63118,2.7459161,3.9095018
1.1856258,-0.009343355,-0.35003147,7.3933334,2.6603322,3.7876515
1.1486756,-0.009052168,-0.33912268,7.162919,2.5774224,3.6696086
1.1128795,-0.008770077,-0.32855466,6.939702,2.4971025,3.5552533
1.0782015,-0.008496795,-0.31831667,6.7234564,2.4192913,3.4444692
1.0446063,-0.008232048,-0.3083984,6.513963,2.3439097,3.3371446
1.0120599,-0.007975565,-0.29878974,6.3110104,2.2708814,3.2331705
0.9805294,-0.007727088,-0.28948104,6.1143923,2.2001326,3.132442
0.949983,-0.0074863657,-0.2804628,5.9239106,2.1315918,3.0348568
0.92038965,-0.0072531546,-0.27172598,5.7393723,2.0651898,2.9403167
0.8917196,-0.0070272195,-0.26326177,5.560591,2.0008593,2.848726
0.8639439,-0.006808332,-0.25506154,5.3873873,1.9385355,2.7599926
0.83703446,-0.006596272,-0.2471171,5.2195854,1.8781556,2.6740267
0.8109643,-0.0063908254,-0.23942041,5.057017,1.8196588,2.5907416
0.785707,-0.0061917845,-0.23196374,4.899517,1.762986,2.5100536
0.76123726,-0.00599895,-0.22473954,4.7469287,1.7080802,2.4318814
0.73753035,-0.005812127,-0.21774057,4.599097,1.6548861,2.3561463
0.7145624,-0.0056311283,-0.21095978,4.4558735,1.6033503,2.282772
0.69231045,-0.005455771,-0.20439033,4.3171144,1.5534209,2.211685
0.67075205,-0.005285879,-0.19802566,4.18268,1.5050476,2.1428134
0.64986545,-0.005121282,-0.19185932,4.0524354,1.4581819,2.0760884
0.62962973,-0.004961814,-0.18588515,3.9262495,1.4127766,2.0114424
0.6100246,-0.004807315,-0.18009713,3.8039956,1.3687861,1.948811
0.5910303,-0.00465763,-0.17448947,3.685551,1.3261663,1.888131
0.57262784,-0.0045126085,-0.16905652,3.5707965,1.2848744,1.8293417
0.55479866,-0.0043721055,-0.16379282,3.4596174,1.2448689,1.7723838
0.5375249,-0.004235979,-0.1586931,3.3519015,1.2061098,1.7172004
0.52078927,-0.0041040936,-0.15375225,3.2475414,1.168558,1.663736
0.50457495,-0.0039763157,-0.1489653,3.146432,1.1321759,1.6119369
0.48886564,-0.0038525185,-0.14432746,3.048472,1.096927,1.5617514
0.47364566,-0.003732577,-0.13983408,2.953563,1.0627761,1.513129
0.4588997,-0.0036163712,-0.13548064,2.86161,1.0296888,1.466021
0.444613,-0.0035037845,-0.1312628,2.772521,0.9976321,1.42038
0.43077126,-0.0033947043,-0.1271763,2.6862063,0.96657366,1.3761605
0.41736057,-0.0032890209,-0.12321707,2.60258,0.9364825,1.3333181
0.4043675,-0.0031866287,-0.11938114,2.5215578,0.90732837,1.29181
0.39177907,-0.0030874251,-0.11566466,2.4430587,0.87908214,1.2515944
0.3795826,-0.0029913108,-0.112063915,2.367004,0.8517155,1.2126311
0.36776596,-0.0028981892,-0.108575284,2.2933176,0.82520103,1.1748811
0.35631722,-0.0028079674,-0.10519529,2.2219255,0.79951215,1.1383065
0.345225,-0.0027205548,-0.10192054,2.1527565,0.77462316,1.1028708
0.33447817,-0.0026358638,-0.09874775,2.0857413,0.75050914,1.0685384
0.32406592,-0.00255381,-0.095673755,2.0208125,0.72714597,1.0352751
0.31397787,-0.0024743108,-0.09269547,1.9579054,0.7045102,1.0030473
0.30420393,-0.002397287,-0.08980992,1.896957,0.6825792,0.97182304
0.29473427,-0.0023226612,-0.0870142,1.8379061,0.661331,0.94157094
0.28555948,-0.002250359,-0.084305525,1.7806938,0.6407444,0.91226065
0.2766703,-0.0021803076,-0.08168118,1.7252626,0.62079865,0.8838629
0.26805788,-0.002112437,-0.07913854,1.6715572,0.6014739,0.8563493
0.2597136,-0.0020466796,-0.07667506,1.6195238,0.5827508,0.82969224
0.25162905,-0.0019829695,-0.07428827,1.5691103,0.5646106,0.80386513
0.24379624,-0.0019212427,-0.0719758,1.5202663,0.54703516,0.77884203
0.23620726,-0.0018614376,-0.0697353,1.472943,0.5300069,0.75459796
0.22885455,-0.0018034943,-0.06756457,1.4270928,0.5135087,0.73110867
0.22173072,-0.0017473547,-0.065461405,1.38267,0.49752408,0.7083506
0.21482867,-0.001692963,-0.06342372,1.3396301,0.48203713,0.686301
0.20814149,-0.0016402644,-0.061449468,1.2979301,0.46703228,0.6649378
0.20166248,-0.0015892064,-0.059536673,1.2575283,0.45249453,0.6442397
0.19538516,-0.0015397379,-0.057683423,1.2183841,0.43840936,0.6241859
0.18930325,-0.0014918093,-0.055887867,1.1804585,0.42476264,0.60475636
0.18341067,-0.0014453727,-0.05414821,1.1437136,0.41154075,0.5859317
0.17770153,-0.0014003816,-0.0524627,1.1081125,0.39873046,0.56769305
0.17217012,-0.0013567911,-0.050829664,1.0736196,0.38631895,0.5500221
0.16681089,-0.0013145575,-0.04924746,1.0402005,0.37429377,0.5329013
0.16161847,-0.0012736387,-0.04771451,1.0078217,0.36264294,0.5163134
0.1565877,-0.0012339936,-0.04622928,0.97645074,0.3513548,0.5002419
