ax,ay,az,gx,gy,gz
0.27818435,0.90909916,1.5527413,-2.7745707,-14.870135,-23.803852
0.58589417,1.2878431,1.9778731,-21.198801,-12.816022,-17.318731
1.1078414,1.436227,2.4397182,-34.861675,-5.242298,-16.159945
1.5487787,1.3974918,2.6530147,-39.834774,2.376433,-16.865738
2.061823,1.359709,2.9584444,-39.610085,10.048466,-18.764484
2.7231498,1.4514385,3.3406525,-35.82267,19.759005,-20.37611
3.476443,1.6336386,3.6855311,-31.920696,30.380482,-21.448975
4.3859553,1.9394287,4.143013,-31.031021,41.097443,-20.625114
5.3168416,2.186716,4.5874286,-33.93766,53.103397,-17.65449
6.126423,2.1911254,4.8098702,-38.339523,65.79958,-13.58033
6.7708225,1.990292,4.7584877,-43.280266,79.115326,-8.875027
7.24244,1.7425765,4.4986076,-47.517944,93.47479,-4.1087728
7.4593353,1.5787503,4.046661,-50.338604,106.526855,0.086076446
7.544518,1.466685,3.5632162,-52.2322,118.003426,4.166814
7.5649123,1.3400218,3.0477636,-53.872807,128.26697,8.428747
7.5092583,1.2513127,2.4972029,-55.299232,137.56221,12.703459
7.3713336,1.2256058,1.9301057,-54.457016,146.17032,15.737671
7.1653595,1.2505625,1.3787256,-53.40832,153.4169,18.293034
6.903736,1.3797048,0.86843085,-53.29475,159.18622,20.718895
6.582924,1.5133295,0.3661629,-53.893406,163.63951,23.09735
6.203452,1.6639307,-0.14051202,-54.57888,166.85999,25.070314
5.74271,1.8311381,-0.6616613,-53.916195,167.92476,25.270662
5.2741623,2.0398667,-1.114265,-52.81122,167.74301,24.543848
4.791337,2.2597387,-1.5422858,-52.114326,166.09702,23.091747
4.2811003,2.4560592,-1.9689091,-51.495865,162.99,20.806097
3.760245,2.6134746,-2.3978791,-50.696735,158.37772,17.614992
3.2684026,2.7226892,-2.8022733,-49.99149,152.14508,13.881207
2.8314905,2.796186,-3.1461797,-49.384373,145.20602,10.243653
2.4494927,2.8894544,-3.4178622,-49.06603,137.94623,6.637928
2.1161008,3.0102658,-3.6219676,-48.994152,130.62256,2.586622
1.833854,3.0978472,-3.7902377,-49.136406,123.25383,-1.8025565
1.5756469,3.1314628,-3.9537575,-49.411938,115.59883,-6.452768
1.3088433,3.0580463,-4.146947,-49.64018,106.68072,-11.277709
1.07928,2.8809617,-4.3376656,-49.75728,96.866066,-15.588115
0.9357344,2.5893886,-4.497563,-49.628765,86.74473,-18.919819
0.88395065,2.1796577,-4.596034,-48.83585,77.26277,-20.622053
0.88489807,1.7140775,-4.6361246,-46.884865,69.05639,-20.989382
0.9762752,1.1739815,-4.608951,-43.74133,62.118988,-20.677128
1.1378999,0.6029392,-4.5557027,-39.583008,55.91249,-19.369486
1.3755443,0.0113442205,-4.456145,-34.580376,50.20116,-17.188248
1.7269728,-0.5547436,-4.244735,-28.493288,45.67657,-13.335197
2.139993,-0.9690992,-3.9117177,-21.48759,43.729397,-8.375157
2.4986506,-1.1546474,-3.5110743,-14.377222,43.39199,-3.4673853
2.7723615,-1.1363544,-3.0751643,-8.150326,43.71073,1.4641399
2.9520085,-0.92658144,-2.645137,-4.2077394,43.996662,5.8392863
3.030856,-0.6554425,-2.2821696,-1.999948,44.16667,9.657735
3.036901,-0.35831383,-2.0042067,-1.1893771,43.96732,13.247025
2.972939,0.016503725,-1.7849679,-1.1255702,43.42856,15.982996
2.8337338,0.48010197,-1.6273506,-1.7780831,42.376556,17.371286
2.664661,0.9583218,-1.5002985,-2.6862469,41.13224,17.183784
2.4768114,1.4445573,-1.4043343,-3.6660836,39.691437,14.977959
2.3024642,1.8932931,-1.3377701,-5.095779,37.980343,10.855668
2.1681519,2.2779667,-1.31466,-7.339746,35.89185,6.12342
2.079635,2.5706797,-1.3263133,-10.366261,33.500164,1.3071343
2.0388005,2.7448754,-1.3687725,-13.973753,31.136766,-3.1480753
2.010063,2.7973518,-1.4581478,-17.456497,28.699226,-7.2922225
1.9823731,2.7755387,-1.5678746,-19.983334,26.27631,-11.560239
1.9379536,2.7233138,-1.6781594,-21.992823,23.580896,-16.142107
1.8799667,2.6452887,-1.7891978,-23.97221,20.316038,-20.89284
1.8098385,2.5123496,-1.9132937,-25.966734,16.385868,-25.37535
1.7558583,2.3188415,-2.0301878,-27.809658,11.997548,-29.45596
1.725474,2.049623,-2.1399124,-29.123356,7.46424,-32.764915
1.6717135,1.7306869,-2.2708685,-29.487959,2.788727,-36.090977
1.5815365,1.3807863,-2.4321566,-28.633595,-2.290095,-39.735115
1.5288179,1.0324422,-2.5534487,-26.913086,-7.475364,-43.05579
1.5428874,0.66371936,-2.6146662,-24.151863,-11.944681,-46.186687
1.6006416,0.28020978,-2.6351557,-17.284716,-14.006948,-50.22843
1.5953746,-0.043479633,-2.6713321,-8.7926445,-16.44084,-54.362106
1.6857767,-0.34131014,-2.642706,-2.31114,-20.1087,-56.191177
1.9208539,-0.6543657,-2.5005956,2.203824,-23.223707,-55.0008
2.2052515,-0.9068753,-2.2789717,5.623899,-24.517015,-50.775703
2.4890192,-1.0618193,-2.0468965,7.804922,-23.298893,-43.29468
2.6707163,-1.0581733,-1.9156595,10.694907,-20.75078,-36.091946
2.8352013,-1.0044419,-1.8166549,14.145926,-17.343887,-29.203901
3.0093029,-0.9529178,-1.7287883,17.667336,-13.259959,-21.681534
3.1633089,-0.87915623,-1.6593977,20.619635,-8.878948,-13.211669
3.2980964,-0.6993372,-1.5710903,22.618908,-3.9443047,-4.4296513
3.334477,-0.34717745,-1.5036265,23.373426,1.3598914,2.3394957
3.2775686,-0.014616491,-1.4895648,23.985985,5.991246,7.0670733
3.1597607,0.28804344,-1.4999199,23.99948,9.323878,10.533201
3.0174036,0.5629738,-1.5265429,23.945246,11.145262,13.662446
2.8713536,0.8469904,-1.5324126,23.639124,11.718605,15.674467
2.7494092,1.1659806,-1.4936742,23.09709,12.467425,16.035816
2.6158786,1.4228307,-1.4834355,22.618504,13.251731,15.186301
2.4645371,1.6210897,-1.4998226,21.884855,13.581356,13.967016
2.3357449,1.7793478,-1.5021518,20.411871,13.6800375,13.129803
2.2358572,1.85582,-1.5053169,18.51276,13.957535,13.026148
2.1334445,1.8541944,-1.5504144,17.041784,14.530616,13.346977
2.0665536,1.7960591,-1.5018038,16.507467,14.075032,12.928504
2.001789,1.7397716,-1.454738,15.990131,13.633927,12.523332
1.9390801,1.6852708,-1.4091663,15.489219,13.206826,12.131021
1.8783596,1.632498,-1.3650395,15.004188,12.793266,11.751149
1.8195621,1.5813966,-1.3223102,14.534517,12.392803,11.383307
1.7626246,1.5319118,-1.2809328,14.079706,12.005011,11.027103
1.7074869,1.4839911,-1.2408631,13.63927,11.629474,10.682157
1.65409,1.4375836,-1.2020586,13.21274,11.265795,10.348104
1.6023779,1.39264,-1.1644784,12.799667,10.91359,10.024589
1.5522959,1.3491133,-1.1280829,12.399616,10.572488,9.711271
1.5037913,1.3069576,-1.0928336,12.012166,10.242129,9.407824
1.4568136,1.2661288,-1.058694,11.636911,9.92217,9.113927
1.4113134,1.2265843,-1.0256282,11.273459,9.612274,8.829275
1.3672435,1.1882827,-0.99360174,10.9214325,9.3121195,8.553571
1.3245581,1.1511846,-0.96258146,10.580465,9.021395,8.286528
1.2832129,1.1152511,-0.9325351,10.250203,8.739799,8.027869
1.2431651,1.0804453,-0.90343165,9.930305,8.467038,7.777328
1.2043736,1.0467311,-0.8752411,9.6204405,8.202834,7.534645
1.1667981,1.014074,-0.8479343,9.320291,7.9469123,7.2995706
1.1304002,0.98244023,-0.8214832,9.029547,7.6990104,7.0718627
1.0951424,0.9517974,-0.7958607,8.7479105,7.458874,6.8512874
1.0609885,0.922114,-0.7710405,8.475093,7.226257,6.6376185
1.0279038,0.8933598,-0.7469972,8.210814,7.000921,6.430638
0.99585426,0.8655053,-0.7237061,7.954805,6.7826357,6.230134
0.9648072,0.838522,-0.7011437,7.706804,6.571178,6.0359015
0.93473107,0.8123826,-0.6792868,7.4665575,6.3663335,5.847743
0.9055951,0.7870603,-0.6581131,7.2338223,6.1678925,5.6654663
0.8773698,0.76252943,-0.63760126,7.0083604,5.975653,5.488887
0.8500264,0.73876506,-0.6177303,6.7899437,5.7894206,5.317825
0.8235372,0.71574306,-0.59848005,6.5783496,5.609006,5.1521063
0.7978752,0.6934401,-0.57983106,6.373364,5.434226,4.9915633
0.7730146,0.67183346,-0.56176436,6.1747794,5.2649035,4.8360333
0.7489301,0.65090144,-0.5442617,5.982394,5.100867,4.685359
0.7255974,0.63062274,-0.52730536,5.7960143,4.941951,4.5393877
0.7029928,0.61097693,-0.5108782,5.615451,4.787994,4.397972
0.6810936,0.5919441,-0.49496362,5.4405212,4.638841,4.260969
0.6598776,0.5735051,-0.47954553,5.2710495,4.4943414,4.12824
0.63932335,0.5556413,-0.4646084,5.1068645,4.3543496,3.9996517
0.6194103,0.53833467,-0.45013717,4.9478,4.218724,3.875074
0.60011816,0.5215677,-0.43611723,4.7936964,4.087328,3.7543812
0.58142763,0.50532365,-0.4225345,4.644398,3.9600291,3.6374521
0.56331986,0.48958603,-0.40937522,4.4997544,3.8366995,3.5241685
0.54577667,0.47433904,-0.39662623,4.3596206,3.7172146,3.4144168
0.5287803,0.45956737,-0.38427463,4.223855,3.6014545,3.3080864
0.51231366,0.4452561,-0.37230805,4.092321,3.4893026,3.2050703
0.4963603,0.4313909,-0.36071444,3.964887,3.3806465,3.105265
0.48090413,0.4179578,-0.34948215,3.841424,3.2753763,3.0085697
0.4659296,0.40494332,-0.33859986,3.7218087,3.1733866,2.9148881
0.45142168,0.39233434,-0.3280567,3.6059206,3.074575,2.8241255
0.4373658,0.38011828,-0.317842,3.4936433,2.9788423,2.736191
0.42374784,0.3682828,-0.30794558,3.384864,2.8860922,2.6509962
0.41055417,0.35681605,-0.2983575,3.279474,2.7962317,2.5684555
0.39777148,0.34570652,-0.28906807,3.1773672,2.7091706,2.4884863
0.385387,0.3349431,-0.28006804,3.078441,2.6248214,2.4110081
0.37338832,0.3245149,-0.27134836,2.9825962,2.5430999,2.3359435
0.36176336,0.31441155,-0.2629003,2.889737,2.4639237,2.2632167
0.3505005,0.3046229,-0.25471532,2.79977,2.3872137,2.1927555
0.3395884,0.2951391,-0.24678531,2.7126052,2.312893,2.1244888
0.32901615,0.2859507,-0.23910227,2.628155,2.240887,2.0583482
0.31877318,0.27704844,-0.2316585,2.546335,2.1711233,1.9942673
0.3088492,0.2684234,-0.22444656,2.467063,2.1035323,1.9321822
0.29923427,0.260067,-0.2174592,2.3902595,2.0380461,1.8720304
0.28991872,0.2519708,-0.21068944,2.3158479,1.9745992,1.8137518
0.2808933,0.2441267,-0.20413047,2.2437534,1.9131281,1.7572881
0.2721489,0.23652688,-0.19777575,2.1739037,1.8535712,1.7025825
0.2636768,0.22916369,-0.19161892,2.1062293,1.7958688,1.6495804
0.25546846,0.22202979,-0.18565378,2.0406618,1.7399629,1.5982286
0.24751574,0.215118,-0.17987438,1.9771361,1.6857979,1.5484757
0.23981063,0.20842142,-0.17427492,1.9155883,1.6333194,1.500272
0.23234542,0.20193334,-0.16884981,1.8559568,1.5824748,1.4535692
0.22511263,0.19564727,-0.16359362,1.7981819,1.5332133,1.4083204
0.21810505,0.18955693,-0.15850107,1.7422059,1.4854854,1.3644804
0.21131563,0.18365619,-0.15356708,1.6879725,1.4392437,1.3220054
0.20473759,0.17793916,-0.1487867,1.6354277,1.3944415,1.2808527
0.19836435,0.17240012,-0.14415513,1.5845187,1.3510342,1.2409812
0.19218953,0.16703352,-0.13966776,1.5351948,1.3089782,1.2023511
0.18620694,0.16183402,-0.13532011,1.4874063,1.2682316,1.1649237
0.18041061,0.15679637,-0.1311078,1.4411056,1.2287534,1.1286614
0.17479472,0.15191555,-0.12702663,1.3962463,1.1905044,1.093528
0.16935366,0.14718668,-0.12307252,1.3527837,1.1534461,1.0594884
0.16408199,0.14260504,-0.1192415,1.310674,1.1175414,1.0265085
0.15897444,0.13816601,-0.11552974,1.2698752,1.0827545,0.99455523
0.15402588,0.13386519,-0.11193353,1.2303466,1.0490506,0.9635967
0.14923137,0.12969825,-0.10844927,1.1920484,1.0163958,0.9336019
0.14458613,0.12566102,-0.10507348,1.1549425,0.98475754,0.90454096
0.14008549,0.12174947,-0.101802774,1.1189917,0.95410424,0.87638456
0.13572495,0.117959686,-0.098633885,1.0841601,0.92440516,0.84910476
0.13150014,0.114287876,-0.09556365,1.0504128,0.8956306,0.8226741
0.12740687,0.11073037,-0.09258898,1.0177159,0.8677518,0.7970662
0.123441,0.10728361,-0.08970691,0.9860369,0.8407408,0.77225554
0.11959859,0.10394414,-0.08691456,0.9553441,0.81457067,0.74821717
0.115875795,0.10070862,-0.08420914,0.92560667,0.78921515,0.72492707
