ax,ay,az,gx,gy,gz
0.37000337,0.13091028,-0.85728055,-15.03741,-4.161856,6.491877
0.22563227,-0.10918633,-1.0691746,-17.760223,-5.523191,3.456841
0.02732723,-0.27652606,-1.3176328,-14.505871,-9.142911,3.2077315
-0.10127688,-0.31532168,-1.46118,-9.430551,-12.343548,3.6477165
-0.17758039,-0.22568044,-1.4589741,-6.1608534,-16.037832,3.3012998
-0.17434004,-0.0933414,-1.3735856,-5.666559,-18.070406,2.9974108
-0.107780606,-0.015791778,-1.2403375,-6.4170823,-18.50538,3.2317102
-0.028638795,-0.009031998,-1.0982928,-7.206001,-17.890326,3.868746
0.004710897,-0.055347607,-1.0291184,-8.303496,-17.4778,4.463054
0.0086114295,-0.12427856,-1.0179006,-7.6503534,-17.761633,4.6923594
0.012751786,-0.17023729,-1.0309684,-5.223111,-18.917253,4.630391
0.027763821,-0.16918302,-1.0295066,-2.9642518,-20.347805,4.6521544
0.032031573,-0.10495504,-1.0067788,-2.5798337,-21.221796,4.5874476
0.024596978,-0.078382574,-0.98870283,-3.3850791,-21.557688,4.5913177
0.03197775,-0.09822083,-0.9861081,-4.0216823,-21.785488,4.680937
0.028567405,-0.12590213,-1.008512,-4.2344413,-22.304323,4.8945484
0.022173168,-0.121266894,-1.0314324,-4.6598377,-23.098183,5.134407
0.013851716,-0.1054781,-1.0449342,-5.258357,-24.259155,5.2080283
0.011943614,-0.08018455,-1.0534761,-5.93848,-25.501816,5.3238425
0.009659522,-0.051165387,-1.0510507,-6.5775967,-26.57839,5.2549553
0.015588654,-0.02090376,-1.040086,-6.9981475,-27.554249,4.9102483
0.0324238,0.0047789942,-1.0352554,-7.0562615,-28.38901,4.506549
0.044007298,0.014887769,-1.041673,-7.223036,-29.446451,4.234135
0.04561536,-0.015228007,-1.0692756,-7.4421687,-30.658834,4.328245
0.025069337,-0.06350054,-1.1000142,-7.6274757,-32.080807,4.5367193
0.0018064533,-0.098782316,-1.1187967,-7.8585277,-33.63677,4.606188
-0.0034530063,-0.12018,-1.1199315,-7.936176,-35.101288,4.637879
0.01205558,-0.117003955,-1.1091981,-7.8770294,-36.39282,4.584202
0.015842808,-0.10826181,-1.108845,-8.126583,-37.779957,4.5891886
-0.0017919195,-0.11724026,-1.1179677,-8.623344,-39.338432,4.769013
-0.032033425,-0.15599467,-1.1293167,-9.186325,-41.03829,5.1958756
-0.061287522,-0.19542262,-1.1225088,-9.416042,-42.85773,5.652494
-0.07168139,-0.20232928,-1.0825478,-9.400712,-44.659992,5.9441047
-0.059636235,-0.18076216,-1.0057666,-9.201023,-46.250427,6.0874925
-0.03537838,-0.15424699,-0.89870715,-9.1802845,-47.438496,6.280096
-0.0021115693,-0.13642378,-0.7619931,-9.357032,-48.209564,6.5001397
0.038702972,-0.13001578,-0.59886557,-9.580257,-48.519196,6.6883006
0.097536825,-0.12033596,-0.412312,-9.559806,-47.86242,6.766807
0.14947367,-0.11093735,-0.22431779,-9.249403,-46.565113,6.8167386
0.18704593,-0.09254707,-0.05182556,-9.330784,-44.773167,7.0272202
0.21647947,-0.06685746,0.107364364,-10.482385,-42.738876,7.4379654
0.23307057,-0.047276977,0.25234208,-11.973925,-40.60588,7.479864
0.25287494,-0.025006624,0.376434,-13.399489,-38.302456,6.840573
0.24395593,-0.024124628,0.363157,-12.926884,-36.95151,6.599303
0.23541723,-0.023280244,0.3504462,-12.47443,-35.658173,6.368321
0.22723651,-0.022471258,0.33826822,-12.040945,-34.419056,6.1470227
0.21939322,-0.021695642,0.32659256,-11.62534,-33.23105,5.934852
0.21186851,-0.020951528,0.31539115,-11.226616,-32.091297,5.7312994
0.20464498,-0.020237198,0.3046381,-10.843852,-30.997162,5.5358944
0.1977066,-0.019551065,0.29430947,-10.476196,-29.946218,5.3482027
0.19103849,-0.01889166,0.2843832,-10.122863,-28.936214,5.1678224
0.18462689,-0.018257624,0.2748388,-9.783121,-27.965063,4.994381
0.17845903,-0.017647687,0.26565722,-9.456295,-27.03083,4.827533
0.172523,-0.017060678,0.25682074,-9.141753,-26.131712,4.666956
0.16680773,-0.016495498,0.24831288,-8.838908,-25.26603,4.5123506
0.16130283,-0.015951123,0.2401182,-8.547212,-24.432215,4.363437
0.15599866,-0.015426598,0.23222232,-8.266151,-23.628803,4.2199526
0.15088615,-0.014921024,0.22461173,-7.995246,-22.85442,4.0816526
0.14595677,-0.014433562,0.21727377,-7.734045,-22.107777,3.948307
0.14120254,-0.01396342,0.21019655,-7.4821258,-21.387665,3.8196998
0.13661596,-0.013509857,0.20336889,-7.239089,-20.692944,3.6956272
0.13218994,-0.01307217,0.19678023,-7.0045605,-20.022543,3.575898
0.1279178,-0.012649701,0.19042066,-6.7781854,-19.375452,3.4603314
0.12379324,-0.012241825,0.18428075,-6.5596304,-18.750711,3.3487568
0.119810276,-0.011847953,0.17835166,-6.348579,-18.14742,3.241013
0.11596328,-0.011467527,0.17262495,-6.144732,-17.564724,3.136947
0.112246886,-0.011100016,0.16709267,-5.9478054,-17.001808,3.0364141
0.10865602,-0.010744917,0.16174723,-5.7575307,-16.457909,2.939277
0.10518586,-0.010401756,0.15658149,-5.573652,-15.932289,2.8454046
0.10183181,-0.010070075,0.15158859,-5.395925,-15.424258,2.7546737
0.0985895,-0.009749447,0.14676204,-5.22412,-14.933153,2.6669655
0.09545479,-0.009439457,0.14209566,-5.0580163,-14.458344,2.5821676
0.0924237,-0.009139715,0.13758352,-4.897403,-13.999231,2.5001729
0.08949245,-0.008849844,0.13322,-4.7420797,-13.55524,2.420879
0.08665741,-0.00856949,0.12899972,-4.591855,-13.125823,2.344188
0.08391515,-0.0082983095,0.12491755,-4.4465466,-12.710459,2.2700064
0.08126235,-0.008035976,0.12096854,-4.3059783,-12.308644,2.1982448
0.07869585,-0.007782177,0.11714801,-4.1699834,-11.919902,2.128818
0.07621262,-0.0075366125,0.113451436,-4.0384007,-11.543773,2.0616436
0.073809765,-0.0072989957,0.1098745,-3.9110763,-11.179816,1.9966435
0.07148449,-0.0070690513,0.10641306,-3.7878635,-10.827612,1.933742
0.06923414,-0.006846515,0.10306314,-3.6686203,-10.486755,1.8728672
0.067056134,-0.0066311336,0.09982092,-3.5532107,-10.156857,1.8139495
0.064948015,-0.006422663,0.096682735,-3.4415045,-9.837544,1.7569224
0.06290741,-0.0062208697,0.093645066,-3.333376,-9.528459,1.7017217
0.06093206,-0.006025528,0.09070452,-3.2287047,-9.229256,1.648286
0.05901976,-0.0058364226,0.08785784,-3.1273746,-8.939604,1.596556
0.057168413,-0.005653344,0.085101895,-3.0292745,-8.659184,1.5464748
0.05537599,-0.0054760925,0.082433656,-2.9342964,-8.38769,1.4979875
0.053640533,-0.005304475,0.079850234,-2.842337,-8.124824,1.4510413
0.05196017,-0.0051383046,0.07734881,-2.7532969,-7.870302,1.4055855
0.050333083,-0.004977403,0.074926704,-2.6670797,-7.6238503,1.3615708
0.048757527,-0.0048215976,0.0725813,-2.5835931,-7.3852043,1.31895
0.047231816,-0.004670721,0.0703101,-2.502748,-7.154108,1.2776778
0.04575433,-0.0045246133,0.06811068,-2.4244578,-6.9303155,1.2377099
0.044323493,-0.004383119,0.06598072,-2.34864,-6.7135897,1.199004
0.042937797,-0.004246088,0.06391795,-2.275214,-6.503701,1.1615194
0.041595783,-0.0041133775,0.061920203,-2.2041025,-6.3004293,1.1252162
0.04029604,-0.003984847,0.059985388,-2.135231,-6.10356,1.0900567
0.03903721,-0.003860362,0.05811147,-2.0685272,-5.9128876,1.0560038
0.037817974,-0.0037397929,0.056296494,-2.0039215,-5.7282124,1.0230219
0.036637064,-0.0036230134,0.05453857,-1.9413469,-5.549342,0.99107695
0.035493255,-0.0035099029,0.052835874,-1.8807379,-5.3760915,0.96013546
0.034385357,-0.0034003435,0.051186636,-1.822032,-5.2082806,0.93016547
0.033312224,-0.0032942225,0.049589157,-1.7651683,-5.0457354,0.901136
0.032272752,-0.00319143,0.04804178,-1.7100881,-4.888289,0.8730171
0.03126587,-0.0030918599,0.046542916,-1.6567348,-4.7357783,0.84577966
0.03029054,-0.0029954102,0.045091026,-1.6050534,-4.588047,0.8193958
0.029345762,-0.0029019816,0.04368461,-1.5549909,-4.4449434,0.7938384
0.028430566,-0.0028114787,0.042322233,-1.506496,-4.3063207,0.76908123
0.027544016,-0.0027238084,0.0410025,-1.459519,-4.1720366,0.745099
0.026685208,-0.0026388813,0.039724063,-1.4140118,-4.0419545,0.72186714
0.025853263,-0.0025566109,0.038485616,-1.3699282,-3.9159415,0.69936204
0.025047332,-0.0024769132,0.037285894,-1.3272232,-3.7938688,0.6775607
0.024266597,-0.0023997067,0.036123678,-1.2858531,-3.6756124,0.65644085
0.023510262,-0.0023249134,0.034997787,-1.245776,-3.561052,0.6359811
0.022777561,-0.002252457,0.033907074,-1.2069511,-3.4500713,0.61616063
0.022067748,-0.002182264,0.032850433,-1.1693392,-3.3425572,0.5969593
0.021380102,-0.0021142634,0.031826794,-1.1329018,-3.2384012,0.5783577
0.020713931,-0.002048386,0.030835116,-1.0976022,-3.1374972,0.5603369
0.020068554,-0.0019845653,0.0298744,-1.0634047,-3.0397434,0.5428787
0.019443324,-0.0019227365,0.028943669,-1.0302745,-2.945041,0.52596545
0.018837605,-0.0018628375,0.028041987,-0.99817836,-2.853294,0.50958
0.018250786,-0.0018048075,0.027168438,-0.9670837,-2.7644098,0.49370587
0.017682277,-0.0017485878,0.026322143,-0.9369591,-2.6782987,0.47832698
0.0171315,-0.001694122,0.025502248,-0.90777427,-2.5948737,0.4634278
0.016597902,-0.0016413549,0.024707926,-0.8794997,-2.5140507,0.44899336
0.016080946,-0.0015902334,0.023938375,-0.85210687,-2.4357483,0.43500903
0.015580108,-0.001540706,0.023192821,-0.8255682,-2.3598876,0.4214608
0.015094887,-0.0014927228,0.022470511,-0.799857,-2.2863922,0.40833497
0.014624794,-0.0014462356,0.021770721,-0.7749474,-2.215188,0.39561838
0.014169354,-0.0014011974,0.021092746,-0.75081426,-2.1462035,0.3832982
0.01372811,-0.0013575632,0.020435903,-0.7274334,-2.079369,0.371362
0.013300619,-0.0013152888,0.019799532,-0.70478123,-2.014618,0.35979784
0.012886451,-0.0012743319,0.019182993,-0.682835,-1.9518846,0.34859407
0.012485188,-0.0012346514,0.018585669,-0.6615727,-1.8911062,0.33773947
0.01209643,-0.0011962074,0.018006956,-0.6409729,-1.8322219,0.32722306
0.011719785,-0.0011589612,0.017446274,-0.621015,-1.7751721,0.31703436
0.011354874,-0.0011228755,0.016903061,-0.6016789,-1.7198998,0.3071631
0.011001332,-0.0010879139,0.016376773,-0.58294517,-1.6663495,0.29759935
0.010658803,-0.0010540416,0.01586688,-0.5647951,-1.6144675,0.28833354
0.010326945,-0.0010212243,0.0153728705,-0.5472104,-1.5642016,0.27935636
0.010005425,-0.0009894294,0.014894249,-0.5301735,-1.5155015,0.27065885
0.009693919,-0.0009586248,0.014430536,-0.5136672,-1.4683183,0.26223224
0.009392115,-0.00092877966,0.013981266,-0.49767506,-1.4226048,0.25406808
0.009099712,-0.00089986407,0.013545989,-0.482181,-1.378315,0.24615823
0.008816415,-0.0008718491,0.0131242685,-0.46716952,-1.3354046,0.2384947
0.008541942,-0.00084470655,0.012715682,-0.45262554,-1.2938306,0.23106985
0.0082760155,-0.0008184093,0.01231982,-0.43853447,-1.2535514,0.22387622
0.008018371,-0.000792931,0.0119362855,-0.42488223,-1.2145264,0.21690662
0.007768749,-0.0007682461,0.011564694,-0.41165516,-1.1767167,0.21015406
0.0075269006,-0.0007443299,0.011204675,-0.39883995,-1.1400844,0.20361176
0.007292583,-0.0007211584,0.010855866,-0.3864238,-1.1045928,0.1972732
0.0070655616,-0.0006987084,0.010517918,-0.37439424,-1.0702064,0.191132
0.0068456093,-0.0006769575,0.0101904925,-0.36273926,-1.0368906,0.18518202
0.0066325055,-0.0006558838,0.009873263,-0.3514472,-1.0046122,0.1794173
0.006426037,-0.00063546625,0.00956591,-0.34050673,-0.97333884,0.17383207
0.006225997,-0.00061568443,0.009268127,-0.32990688,-0.9430392,0.16842076
0.006032185,-0.00059651857,0.008979616,-0.31963706,-0.91368294,0.16317791
0.0058444077,-0.0005779494,0.008700087,-0.30968702,-0.8852407,0.15809831
0.0056624766,-0.00055995834,0.008429261,-0.3000467,-0.8576839,0.15317684
0.0054862094,-0.0005425274,0.008166867,-0.29070657,-0.83098507,0.1484086
0.0053154305,-0.00052563916,0.007912642,-0.28165722,-0.8051175,0.14378883
0.005149968,-0.0005092767,0.0076663317,-0.2728896,-0.7800552,0.13931286
0.0049896566,-0.00049342366,0.0074276896,-0.26439494,-0.75577325,0.13497625
0.004834336,-0.00047806412,0.007196477,-0.25616473,-0.7322472,0.13077465
0.0046838513,-0.00046318278,0.0069724624,-0.24819075,-0.7094535,0.12670386
0.0045380513,-0.0004487647,0.006755422,-0.240465,-0.68736947,0.12275978
0.00439679,-0.00043479548,0.006545138,-0.23297977,-0.66597295,0.1189385
0.0042599267,-0.00042126112,0.0063414006,-0.22572756,-0.64524245,0.11523617
0.0041273236,-0.0004081481,0.0061440053,-0.21870111,-0.62515736,0.111649096
0.0039988486,-0.00039544332,0.0059527555,-0.2118934,-0.6056975,0.10817369
0.0038743732,-0.00038313403,0.005767459,-0.20529762,-0.5868435,0.10480648
0.0037537725,-0.00037120792,0.005587931,-0.19890715,-0.56857634,0.10154409
0.0036369262,-0.00035965306,0.0054139914,-0.19271563,-0.55087787,0.098383255
0.0035237172,-0.0003484579,0.0052454667,-0.18671685,-0.5337303,0.09532081
0.0034140323,-0.00033761124,0.0050821877,-0.1809048,-0.5171166,0.09235371
0.0033077619,-0.00032710223,0.004923992,-0.17527369,-0.50102,0.08947896
0.0032047995,-0.00031692037,0.0047707204,-0.16981785,-0.48542452,0.086693704
0.0031050423,-0.00030705545,0.00462222,-0.16453186,-0.4703145,0.083995156
