ax,ay,az,gx,gy,gz
1.4745588,-0.20000182,-1.5700142,-2.1636562,-19.364721,-3.8836715
1.401393,-0.4329933,-1.9940631,3.9273338,-22.963133,-5.49381
1.2328967,-0.4724217,-2.3656836,10.685918,-28.580038,-4.625848
1.0916679,-0.4152783,-2.5924528,13.986924,-34.53791,-2.283076
1.0149807,-0.35504448,-2.7069993,13.430925,-38.86292,0.31094536
0.9491189,-0.33352345,-2.7586324,13.026315,-42.11812,1.4715351
0.8970065,-0.30847147,-2.7631094,13.649845,-43.676968,1.5489596
0.8456084,-0.2955943,-2.7453768,14.166476,-44.70014,1.3389773
0.79146343,-0.3280184,-2.7094707,14.145175,-46.056313,1.860858
0.71032727,-0.36723667,-2.6854832,14.364281,-48.471325,2.6349869
0.6387546,-0.37579593,-2.6385207,14.527392,-50.946915,3.2431428
0.6014714,-0.32937697,-2.5369012,13.806946,-53.241093,3.6209984
0.6065643,-0.28036505,-2.3803442,12.225508,-55.04515,4.1527424
0.62709194,-0.27515763,-2.2016447,10.61125,-56.22799,5.0185785
0.6108256,-0.3020813,-2.0923753,9.494322,-57.387672,6.087729
0.56996214,-0.35265127,-2.032409,9.018382,-59.00363,7.1953225
0.5258389,-0.38319263,-1.9558306,8.68945,-60.72392,8.220238
0.49539542,-0.34835988,-1.8354231,8.76586,-62.057255,8.417684
0.5172114,-0.2425131,-1.6484898,8.41627,-62.568657,8.184037
0.5478821,-0.17130117,-1.4766966,7.572209,-62.49671,8.064541
0.5680927,-0.1515643,-1.3551645,6.830764,-62.254166,8.241246
0.5607189,-0.15584224,-1.268181,6.0930448,-62.34295,8.773307
0.5231556,-0.15137906,-1.1869383,5.005056,-62.88742,9.347503
0.48015943,-0.12791671,-1.0899003,3.8537686,-63.35345,9.573143
0.4712439,-0.11256854,-0.98177683,2.9047918,-63.535713,9.475244
0.48793897,-0.112680756,-0.8706575,2.494711,-63.38371,9.254865
0.50689816,-0.11039875,-0.76251775,2.4483461,-62.89869,8.849132
0.50584656,-0.1103812,-0.6731712,2.7810729,-62.392372,8.819645
0.47355527,-0.07595673,-0.5900075,2.79274,-62.021145,8.915564
0.43559024,-0.03193956,-0.5041216,2.211219,-61.72968,9.023582
0.40326217,-0.014961948,-0.41565427,1.3689134,-61.407692,8.930457
0.3921027,-0.019602053,-0.3173635,0.6451801,-60.838707,8.601833
0.3953803,-0.023019735,-0.20489088,0.045343153,-59.874382,7.944941
0.4011183,-0.018723892,-0.09275061,-0.08872372,-58.57812,7.3552976
0.39354086,-0.005375316,0.015861675,-0.049705107,-57.32483,6.941653
0.3966232,0.015900623,0.12489473,-0.11093438,-55.947124,6.820686
0.41165292,0.035382897,0.23167121,-0.17599131,-54.281235,6.821265
0.43293026,0.036041275,0.3263829,-0.07591074,-52.083855,7.2552133
0.47262096,0.02728176,0.41368997,-0.0009352987,-49.198345,8.076498
0.49069828,0.02346862,0.4853336,-0.2664781,-45.87282,9.051066
0.46913064,0.033878878,0.5424178,-1.1761278,-42.656246,9.342121
0.4351202,0.054114494,0.57239103,-2.765031,-39.60232,8.996069
0.40247193,0.065276235,0.58350736,-4.897878,-37.03506,8.326722
0.38827658,0.06297392,0.5629268,-4.7251277,-35.728817,8.033035
0.37468654,0.06076977,0.54322386,-4.559744,-34.478275,7.7518716
0.3616662,0.058658026,0.5243469,-4.4012933,-33.28016,7.4824944
0.34918296,0.056633387,0.50624853,-4.2493787,-32.131462,7.224229
0.33720672,0.054690983,0.4888853,-4.103634,-31.029423,6.976454
0.32570988,0.05282633,0.47221708,-3.9637232,-29.971495,6.738596
0.31466684,0.051035278,0.45620677,-3.829335,-28.955326,6.510127
0.304054,0.049313996,0.44082016,-3.700182,-27.97874,6.290558
0.29384938,0.04765893,0.42602545,-3.575997,-27.039724,6.079436
0.2840327,0.04606678,0.41179314,-3.4565332,-26.136404,5.876339
0.274585,0.044534475,0.39809582,-3.3415596,-25.267036,5.6808763
0.26548865,0.04305915,0.3849078,-3.2308617,-24.429998,5.492682
0.25672716,0.04163814,0.37220532,-3.1242387,-23.623775,5.3114157
0.24828513,0.040268943,0.35996598,-3.0215034,-22.846947,5.136759
0.24014811,0.038949214,0.34816888,-2.92248,-22.098186,4.9684124
0.23230259,0.03767676,0.33679438,-2.8270042,-21.376251,4.806097
0.22473584,0.03644952,0.32582402,-2.7349207,-20.679966,4.649549
0.21743591,0.035265557,0.31524053,-2.646084,-20.008234,4.498521
0.21039152,0.03412304,0.3050275,-2.5603576,-19.360016,4.35278
0.20359205,0.033020247,0.29516956,-2.4776115,-18.734335,4.2121058
0.19702744,0.031955548,0.28565216,-2.3977237,-18.130268,4.076291
0.19068824,0.0309274,0.27646148,-2.3205786,-17.54694,3.9451396
0.18456541,0.029934349,0.26758456,-2.2460668,-16.983522,3.8184648
0.17865045,0.028975012,0.259009,-2.174085,-16.439234,3.6960905
0.17293529,0.02804808,0.25072312,-2.1045341,-15.913331,3.5778496
0.16741222,0.027152304,0.24271573,-2.0373213,-15.405105,3.4635835
0.16207397,0.026286501,0.23497629,-1.9723576,-14.913883,3.3531406
0.15691358,0.025449544,0.2274947,-1.9095582,-14.439029,3.2463772
0.15192442,0.02464036,0.22026137,-1.8488426,-13.979931,3.1431568
0.14710017,0.023857925,0.21326713,-1.7901341,-13.53601,3.0433483
0.14243484,0.023101263,0.20650329,-1.7333592,-13.1067095,2.9468272
0.13792263,0.022369437,0.19996147,-1.6784482,-12.691502,2.8534746
0.1335581,0.02166156,0.1936337,-1.6253339,-12.289881,2.763177
0.12933592,0.020976774,0.18751238,-1.5739523,-11.901362,2.6758249
0.12525113,0.020314267,0.1815902,-1.5242424,-11.525483,2.5913146
0.121298864,0.019673256,0.17586018,-1.4761454,-11.161799,2.5095463
0.11747451,0.019052992,0.1703156,-1.4296049,-10.809886,2.4304245
0.113773644,0.018452754,0.16495004,-1.3845673,-10.4693365,2.3538575
0.11019201,0.017871855,0.15975736,-1.3409806,-10.139758,2.2797573
0.10672553,0.017309632,0.15473162,-1.2987952,-9.820776,2.2080393
0.10337028,0.01676545,0.14986715,-1.2579635,-9.512029,2.1386225
0.10012249,0.016238697,0.14515848,-1.2184397,-9.213171,2.0714293
0.096978545,0.015728785,0.14060037,-1.1801795,-8.923868,2.0063844
0.09393496,0.015235151,0.13618775,-1.1431406,-8.643801,1.9434159
0.09098839,0.014757251,0.13191578,-1.1072823,-8.37266,1.8824543
0.08813559,0.014294561,0.12777977,-1.0725652,-8.110148,1.8234329
0.08537347,0.013846577,0.123775214,-1.0389516,-7.8559804,1.7662876
0.08269902,0.013412814,0.11989778,-1.006405,-7.609881,1.7109561
0.08010938,0.012992803,0.116143286,-0.9748903,-7.3715844,1.657379
0.077601746,0.012586094,0.1125077,-0.94437367,-7.1408343,1.6054988
0.075173445,0.012192253,0.10898714,-0.9148225,-6.917385,1.5552598
0.0728219,0.01181086,0.105577834,-0.8862054,-6.700998,1.5066087
0.0705446,0.011441508,0.10227619,-0.85849184,-6.491443,1.4594939
0.068339154,0.011083811,0.09907871,-0.83165264,-6.2885,1.4138653
0.06620322,0.010737387,0.09598202,-0.8056595,-6.0919538,1.3696753
0.064134575,0.010401877,0.09298287,-0.78048503,-5.901599,1.3268771
0.062131036,0.010076927,0.09007813,-0.75610304,-5.717235,1.285426
0.060190517,0.009762198,0.08726475,-0.7324879,-5.538671,1.2452787
0.058311,0.009457362,0.08453981,-0.7096152,-5.3657193,1.2063935
0.05649053,0.009162103,0.08190047,-0.6874609,-5.1982017,1.1687298
0.054727215,0.008876113,0.079344004,-0.6660023,-5.035943,1.1322486
0.053019237,0.0085991,0.07686776,-0.64521706,-4.8787766,1.0969124
0.051364828,0.008330774,0.07446919,-0.6250838,-4.7265396,1.0626844
0.04976229,0.008070861,0.07214581,-0.6055817,-4.579076,1.0295296
0.04820997,0.007819093,0.06989524,-0.5866907,-4.4362326,0.9974137
0.046706274,0.0075752106,0.06771517,-0.5683915,-4.297864,0.9663038
0.04524966,0.0073389653,0.06560336,-0.5506653,-4.1638284,0.936168
0.043838643,0.0071101147,0.063557655,-0.53349394,-4.0339875,0.90697557
0.042471774,0.0068884245,0.061575957,-0.5168598,-3.90821,0.8786965
0.041147664,0.0066736694,0.059656247,-0.5007461,-3.7863665,0.851302
0.039864957,0.006465629,0.05779657,-0.4851362,-3.6683333,0.8247642
0.038622353,0.0062640933,0.05599503,-0.47001433,-3.55399,0.79905593
0.03741858,0.006068856,0.054249793,-0.45536506,-3.4432201,0.7741512
0.036252424,0.005879719,0.052559085,-0.44117352,-3.3359115,0.7500246
0.035122696,0.00569649,0.050921198,-0.4274253,-3.231955,0.7266517
0.03402825,0.005518984,0.04933446,-0.41410646,-3.1312454,0.7040088
0.03296798,0.0053470205,0.04779727,-0.4012035,-3.0336802,0.68207294
0.03194081,0.0051804255,0.04630807,-0.38870338,-2.939161,0.66082186
0.030945702,0.0050190305,0.044865355,-0.3765934,-2.8475924,0.6402341
0.029981649,0.0048626726,0.04346766,-0.36486137,-2.758881,0.62028885
0.029047677,0.004711193,0.04211358,-0.35349542,-2.672938,0.600966
0.028142845,0.00456444,0.04080175,-0.3424841,-2.5896761,0.58224595
0.027266238,0.0044222646,0.039530832,-0.3318162,-2.5090117,0.56410986
0.026416972,0.0042845234,0.03829956,-0.32148108,-2.4308631,0.5465394
0.025594192,0.004151078,0.037106685,-0.31146824,-2.3551517,0.529517
0.024797067,0.004021794,0.035951007,-0.30176765,-2.281801,0.5130253
0.024024796,0.0038965407,0.034831364,-0.2923695,-2.2107375,0.49704784
0.023276601,0.0037751924,0.033746626,-0.28326437,-2.1418893,0.4815685
0.02255173,0.0036576267,0.0326957,-0.27444306,-2.0751874,0.46657166
0.021849453,0.0035437257,0.031677533,-0.2658967,-2.0105648,0.45204228
0.021169065,0.0034333745,0.030691098,-0.25761673,-1.9479561,0.43796575
0.02050988,0.0033264626,0.029735407,-0.2495948,-1.8872986,0.4243279
0.019871239,0.0032228823,0.028809497,-0.24182284,-1.8285313,0.41111508
0.019252496,0.0031225295,0.02791244,-0.23429306,-1.7715952,0.39831394
0.018653031,0.0030253034,0.027043331,-0.2269979,-1.7164333,0.38591167
0.018072246,0.0029311068,0.026201304,-0.21993002,-1.6629899,0.37389582
0.017509554,0.0028398447,0.025385506,-0.21308234,-1.6112115,0.36225432
0.01696439,0.0027514256,0.024595125,-0.20644799,-1.5610461,0.35097545
0.016436212,0.002665761,0.023829365,-0.20002031,-1.5124435,0.34004796
0.015924484,0.0025827647,0.023087459,-0.19379285,-1.4653549,0.32946086
0.015428695,0.0025023539,0.02236866,-0.18775935,-1.419733,0.31920353
0.014948349,0.0024244473,0.02167225,-0.1819138,-1.375532,0.30926567
0.014482965,0.0023489674,0.020997532,-0.1762503,-1.3327078,0.29963735
0.014032073,0.002275838,0.020343825,-0.17076318,-1.2912173,0.2903089
0.013595225,0.0022049863,0.01971048,-0.16544695,-1.2510189,0.28127095
0.013171981,0.002136341,0.019096855,-0.16029629,-1.2120725,0.2725145
0.012761918,0.0020698337,0.018502342,-0.15530603,-1.1743388,0.2640307
0.012364624,0.0020053973,0.01792634,-0.15047117,-1.1377802,0.2558111
0.011979702,0.0019429673,0.017368278,-0.14578687,-1.10236,0.24784747
0.011606765,0.0018824815,0.016827593,-0.14124842,-1.0680429,0.24013181
0.011245442,0.001823879,0.016303742,-0.1368513,-1.0347942,0.23265639
0.010895369,0.0017671012,0.015796203,-0.13259108,-1.0025809,0.22541375
0.010556196,0.0017120914,0.015304467,-0.12846352,-0.9713705,0.21839662
0.010227584,0.0016587944,0.014828042,-0.12446448,-0.94113195,0.21159798
0.009909203,0.0016071567,0.014366451,-0.12058995,-0.9118349,0.20501103
0.009600735,0.0015571269,0.0139192315,-0.116836056,-0.88345,0.19862914
0.009301872,0.0015086547,0.013485936,-0.11319903,-0.85594887,0.19244596
0.009012313,0.0014616916,0.013066131,-0.10967525,-0.8293039,0.1864553
0.0087317685,0.0014161906,0.012659396,-0.10626117,-0.80348855,0.18065114
0.008459959,0.0013721063,0.012265324,-0.10295339,-0.7784769,0.17502768
0.008196612,0.0013293944,0.0118835205,-0.09974858,-0.7542439,0.1695793
0.007941463,0.0012880123,0.011513603,-0.09664355,-0.7307654,0.16430053
0.007694257,0.0012479185,0.011155202,-0.09363519,-0.70801777,0.15918611
0.0074547473,0.0012090728,0.010807959,-0.090720475,-0.68597835,0.15423091
0.0072226943,0.0011714365,0.0104715265,-0.0878965,-0.66462505,0.14942996
0.006997865,0.0011349717,0.010145567,-0.08516045,-0.6439365,0.14477849
0.006780035,0.0010996422,0.009829755,-0.08250957,-0.623892,0.14027181
0.006568986,0.0010654127,0.0095237745,-0.07994121,-0.6044715,0.13590543
0.006364507,0.0010322486,0.00922732,-0.07745281,-0.58565557,0.13167498
0.006166394,0.0010001169,0.008940092,-0.07504187,-0.5674254,0.12757622
0.005974448,0.0009689855,0.0086618075,-0.072705984,-0.54976267,0.12360506
0.0057884767,0.00093882316,0.008392185,-0.07044281,-0.5326498,0.11975752
0.005608295,0.0009095998,0.008130956,-0.06825009,-0.51606965,0.11602975
0.0054337224,0.00088128616,0.007877859,-0.06612563,-0.50000566,0.11241802
0.005264584,0.0008538539,0.0076326407,-0.064067304,-0.48444173,0.10891872
0.005100711,0.00082727557,0.0073950556,-0.06207305,-0.46936226,0.105528355
0.0049419384,0.0008015246,0.0071648667,-0.060140874,-0.4547522,0.10224353
