ax,ay,az,gx,gy,gz
-2.6445694,0.9400086,-2.80548,73.631584,1.11001,-12.540113
-2.2826598,1.4998531,-2.166309,52.158367,-15.529651,-19.68087
-1.3594847,1.3754817,-0.92977643,31.199968,-12.365,-26.615084
-0.64942384,0.7868463,0.06506708,17.914022,-2.210624,-29.303785
-0.4476916,0.34826124,0.5007096,10.272877,6.583116,-30.000917
-0.4892806,0.10296198,0.6950428,6.9667397,11.372209,-30.167248
-0.5574642,-0.11183711,0.84718394,4.395688,13.076771,-29.137007
-0.5318957,-0.38279277,0.9626476,1.2814804,12.814033,-26.472643
-0.23757814,-0.75134605,1.1105264,-1.4632113,14.495574,-22.1035
0.06595317,-1.1471798,1.1470443,-4.223984,17.0107,-16.885944
0.29457524,-1.5525374,1.0203724,-4.1431155,19.756472,-11.7356615
0.43038923,-1.9159713,0.75765926,-1.4356562,21.745794,-7.338175
0.48374885,-2.2181208,0.40687838,1.6494404,21.436129,-2.0086176
0.52505785,-2.4133766,0.012453944,3.7662408,19.46943,4.098918
0.6141295,-2.5302796,-0.32465202,5.942217,16.940992,10.829443
0.71901804,-2.5284545,-0.6336135,8.945954,14.190721,17.242325
0.7901647,-2.386575,-0.9602568,12.808922,11.18123,22.029173
0.8179994,-2.1730034,-1.2912838,16.915625,7.1483445,25.198908
0.80162024,-1.8800364,-1.5675646,19.72282,2.3479416,28.067364
0.78652334,-1.4649844,-1.7112944,21.029848,-2.4613905,29.760122
0.7831099,-0.9907749,-1.7136966,21.23464,-6.868274,30.555178
0.7911479,-0.44096497,-1.5912415,20.610939,-10.344409,30.242815
0.77426076,0.15429358,-1.3783745,19.137033,-12.323733,27.828175
0.68661374,0.69953233,-1.1402131,17.356466,-13.70133,24.074123
0.56997496,1.1703999,-0.9073153,15.238422,-14.764212,19.194042
0.46304616,1.5560584,-0.67728835,12.360617,-15.471499,14.023929
0.38014913,1.8130707,-0.47096103,8.459438,-15.975825,8.85788
0.36091375,1.8895427,-0.28558296,4.7193933,-15.673013,3.5076993
0.4240922,1.7216133,-0.13810706,2.0007527,-14.808805,-1.7608541
0.5142365,1.4370887,-0.045253266,0.08224384,-13.776794,-6.1789665
0.59063727,1.0688237,-0.0035379573,-1.554111,-12.776508,-9.257173
0.63532865,0.65656894,-0.014298677,-3.1697075,-11.968565,-10.700896
0.64688146,0.23885049,-0.06083076,-4.7966795,-11.775363,-10.174949
0.6689131,-0.16539212,-0.11501831,-6.038676,-11.794775,-8.441635
0.7042565,-0.52561194,-0.16760042,-6.375389,-11.791832,-5.9260235
0.7346641,-0.8281156,-0.21929473,-5.969834,-11.690817,-2.9048507
0.7589966,-1.0395004,-0.27779478,-5.116114,-11.412527,0.85014707
0.7451319,-1.1708798,-0.37418357,-4.190455,-11.91437,5.599313
0.72236365,-1.2229149,-0.49438664,-3.7469215,-13.17473,10.893488
0.7130992,-1.232096,-0.62853223,-3.228276,-14.969423,16.204096
0.7290261,-1.1973714,-0.7528794,-1.8009667,-16.796381,20.753042
0.75865465,-1.1099762,-0.86472964,1.1952327,-18.405184,23.772163
0.7828832,-0.9355556,-0.9670451,4.929229,-20.062162,25.3273
0.78549737,-0.6433205,-1.062062,7.3235893,-22.114367,26.974207
0.77791977,-0.31045043,-1.1327618,7.970911,-24.474293,28.783747
0.7573853,0.053535692,-1.1815242,7.634535,-27.150963,29.495121
0.71605647,0.44824174,-1.1825416,7.0718718,-29.504469,28.07047
0.6516089,0.8858396,-1.1213013,6.94446,-31.511185,23.454788
0.5815923,1.2806239,-0.96118385,5.8045664,-33.189953,18.24347
0.562857,1.5796746,-0.7674811,3.1472802,-34.415466,13.132346
0.6287649,1.7094007,-0.5700253,-0.57163477,-35.20828,7.967102
0.78157955,1.6168574,-0.34982562,-4.2929096,-34.95867,3.053822
0.926681,1.3759631,-0.14631498,-6.2191033,-33.289192,-1.962225
0.99883837,1.0548463,-0.011889956,-7.350131,-31.286572,-6.261886
1.0451561,0.7123777,0.054461084,-8.408787,-29.378664,-9.275413
1.0749513,0.35565323,0.0788669,-9.507014,-27.831043,-10.792209
1.0800498,0.023904901,0.07722711,-10.3303795,-26.675028,-11.280289
1.0698886,-0.26403433,0.0645038,-10.241847,-25.744802,-11.018621
1.0447693,-0.47145197,0.037861682,-9.041868,-24.712322,-10.712487
1.0155591,-0.55788547,0.020114008,-7.7195144,-23.597246,-10.142871
0.9626922,-0.55298436,0.0037717153,-6.9433985,-22.541304,-9.416896
0.8935334,-0.5012784,-0.015108655,-6.894433,-21.751701,-8.51858
0.8343416,-0.44671628,-0.032395378,-7.1253,-20.969837,-7.6673007
0.7972501,-0.39420015,-0.035510283,-7.2950544,-19.915823,-6.961537
0.77623224,-0.34055915,-0.030828595,-7.5434384,-18.501318,-6.234831
0.75361997,-0.28736857,-0.031668935,-8.053798,-17.011639,-5.5035195
0.73145497,-0.24104738,-0.037544332,-8.499881,-15.615575,-5.065022
0.71525306,-0.21449351,-0.03755891,-8.768831,-14.44239,-4.9908667
0.69240993,-0.20764321,-0.036359385,-8.48878,-13.981142,-4.831473
0.6703311,-0.2010221,-0.035199996,-8.218099,-13.535327,-4.677412
0.64898795,-0.19462161,-0.034079235,-7.9564366,-13.104364,-4.5284843
0.62835294,-0.1884335,-0.032995667,-7.703457,-12.687703,-4.3844986
0.6084001,-0.18244994,-0.031947915,-7.4588394,-12.284816,-4.245272
0.5891045,-0.17666347,-0.030934675,-7.2222795,-11.895198,-4.110632
0.5704422,-0.17106694,-0.029954694,-6.993485,-11.51837,-3.980411
0.55239064,-0.16565356,-0.029006781,-6.7721767,-11.1538725,-3.8544514
0.53492796,-0.16041677,-0.028089793,-6.558089,-10.801266,-3.732601
0.5180334,-0.15535034,-0.027202636,-6.3509655,-10.460131,-3.6147146
0.501687,-0.1504483,-0.026344264,-6.1505623,-10.130064,-3.5006533
0.48586965,-0.14570491,-0.025513673,-5.9566455,-9.81068,-3.3902836
0.47056302,-0.1411147,-0.024709903,-5.7689896,-9.501609,-3.2834775
0.4557495,-0.13667235,-0.023932025,-5.58738,-9.202495,-3.1801126
0.4414123,-0.13237284,-0.023179159,-5.411609,-8.912997,-3.0800707
0.42753512,-0.12821127,-0.022450449,-5.241478,-8.63279,-2.983239
0.4141024,-0.124183014,-0.021745078,-5.0767965,-8.361556,-2.8895087
0.40109918,-0.120283544,-0.021062262,-4.91738,-8.098995,-2.7987754
0.38851106,-0.11650856,-0.020401243,-4.7630525,-7.8448157,-2.7109385
0.37632415,-0.112853885,-0.01976129,-4.6136436,-7.5987372,-2.625901
0.36452508,-0.10931553,-0.019141708,-4.4689903,-7.360491,-2.54357
0.35310107,-0.10588964,-0.018541817,-4.3289347,-7.129817,-2.4638557
0.34203967,-0.1025725,-0.017960967,-4.1933246,-6.9064655,-2.386672
0.33132902,-0.09936053,-0.017398536,-4.062014,-6.6901956,-2.3119357
0.32095754,-0.09625029,-0.016853916,-3.9348626,-6.4807754,-2.239566
0.31091422,-0.09323844,-0.016326526,-3.8117337,-6.2779803,-2.169486
0.3011883,-0.090321794,-0.015815806,-3.6924965,-6.0815945,-2.101621
0.2917695,-0.087497234,-0.015321212,-3.5770242,-5.89141,-2.0358987
0.28264785,-0.08476179,-0.0148422215,-3.465195,-5.707226,-1.97225
0.27381375,-0.08211258,-0.014378331,-3.356891,-5.528847,-1.9106076
0.2652579,-0.07954681,-0.013929051,-3.2519982,-5.3560877,-1.850907
0.25697136,-0.0770618,-0.013493914,-3.150407,-5.1887655,-1.7930853
0.24894544,-0.07465495,-0.013072464,-3.0520115,-5.0267067,-1.7370826
0.24117184,-0.07232377,-0.01266426,-2.956709,-4.869742,-1.6828401
0.23364244,-0.07006582,-0.012268881,-2.8644004,-4.7177086,-1.6303018
0.22634946,-0.06787876,-0.011885917,-2.77499,-4.5704484,-1.579413
0.21928532,-0.06576034,-0.01151497,-2.6883855,-4.4278097,-1.5301212
0.21244277,-0.06370836,-0.0111556575,-2.6044974,-4.2896447,-1.4823755
0.20581473,-0.061720707,-0.010807611,-2.5232394,-4.1558113,-1.4361266
0.1993944,-0.059795346,-0.01047047,-2.4445276,-4.0261717,-1.391327
0.19317518,-0.0579303,-0.010143891,-2.3682814,-3.9005933,-1.3479308
0.18715069,-0.056123648,-0.0098275365,-2.2944226,-3.7789469,-1.3058933
0.18131478,-0.054373544,-0.009521085,-2.2228758,-3.6611083,-1.2651716
0.17566147,-0.052678205,-0.009224222,-2.1535676,-3.5469565,-1.2257242
0.170185,-0.051035896,-0.008936645,-2.0864275,-3.4363756,-1.1875107
0.16487978,-0.04944494,-0.008658061,-2.0213866,-3.3292527,-1.1504922
0.15974042,-0.047903724,-0.008388186,-1.9583793,-3.2254786,-1.1146309
0.15476167,-0.046410672,-0.008126746,-1.8973411,-3.1249478,-1.0798904
0.1499385,-0.044964276,-0.007873474,-1.8382101,-3.0275583,-1.0462354
0.145266,-0.04356306,-0.007628114,-1.7809262,-2.933211,-1.0136318
0.14073941,-0.04220561,-0.007390417,-1.7254314,-2.8418102,-0.98204637
0.13635418,-0.040890545,-0.0071601425,-1.6716695,-2.7532637,-0.95144725
0.13210584,-0.039616533,-0.0069370572,-1.619586,-2.6674814,-0.92180336
0.12799011,-0.03838229,-0.0067209345,-1.5691282,-2.5843766,-0.8930848
0.12400284,-0.037186563,-0.006511557,-1.5202451,-2.5038655,-0.8652625
0.12013997,-0.03602815,-0.006308713,-1.4728873,-2.4258664,-0.83830833
0.11639762,-0.034905877,-0.006112197,-1.427007,-2.3503008,-0.8121951
0.11277201,-0.03381861,-0.0059218113,-1.3825579,-2.2770925,-0.78689647
0.10925948,-0.032765258,-0.0057373634,-1.3394951,-2.2061675,-0.76238686
0.10585649,-0.031744752,-0.005558668,-1.2977753,-2.1374545,-0.7386416
0.102559626,-0.030756071,-0.005385545,-1.2573564,-2.070884,-0.71563685
0.09936555,-0.029798215,-0.0052178195,-1.2181978,-2.0063891,-0.6933493
0.096271046,-0.028870223,-0.0050553232,-1.18026,-1.943905,-0.6717566
0.09327301,-0.027971156,-0.004897892,-1.1435047,-1.8833686,-0.650837
0.09036842,-0.027100116,-0.0047453684,-1.1078951,-1.8247192,-0.6305695
0.08755436,-0.026256222,-0.004597598,-1.0733955,-1.7678977,-0.61093366
0.084828004,-0.025438627,-0.0044544335,-1.039971,-1.7128471,-0.59190977
0.0821866,-0.024646513,-0.00431573,-1.007588,-1.6595119,-0.5734787
0.079627514,-0.02387908,-0.0041813487,-0.97621423,-1.6078387,-0.555622
0.077148154,-0.02313556,-0.0040511545,-0.9458179,-1.5577756,-0.5383216
0.07474605,-0.022415204,-0.003925016,-0.91636866,-1.5092722,-0.52156025
0.07241878,-0.02171729,-0.0038028082,-0.8878369,-1.46228,-0.50532115
0.07016401,-0.02104112,-0.003684407,-0.8601939,-1.4167517,-0.48958787
0.06797948,-0.02038601,-0.0035696945,-0.8334121,-1.3726417,-0.47434473
0.06586299,-0.01975131,-0.003458555,-0.80746454,-1.3299056,-0.4595764
0.063812435,-0.019136379,-0.0033508774,-0.78232515,-1.2885007,-0.4452681
0.061825745,-0.0185406,-0.0032465537,-0.75796884,-1.2483854,-0.43140543
0.059900932,-0.017963378,-0.0031454791,-0.73437107,-1.2095196,-0.41797456
0.058036067,-0.017404133,-0.0030475524,-0.7115083,-1.1718643,-0.40496197
0.05622928,-0.016862305,-0.0029526758,-0.68935746,-1.1353817,-0.39235464
0.05447876,-0.016337352,-0.0028607536,-0.66789657,-1.1000352,-0.38013992
0.052782755,-0.015828745,-0.002771694,-0.6471039,-1.0657895,-0.3683056
0.051139563,-0.015335977,-0.0026854079,-0.6269588,-1.03261,-0.3568398
0.049547542,-0.014858554,-0.0026018086,-0.607441,-1.000464,-0.34573105
0.048005093,-0.014395997,-0.0025208124,-0.58853096,-0.96931887,-0.3349682
0.046510674,-0.013947844,-0.0024423385,-0.57020974,-0.93914354,-0.3245405
0.045062788,-0.013513644,-0.0023663081,-0.55245894,-0.9099078,-0.31443748
0.04365998,-0.013092965,-0.002292645,-0.5352609,-0.8815824,-0.30464906
0.042300858,-0.012685384,-0.0022212754,-0.5185984,-0.8541389,-0.2951654
0.040984046,-0.012290493,-0.002152128,-0.5024546,-0.82754993,-0.285977
0.039708238,-0.011907897,-0.0020851335,-0.4868135,-0.80178875,-0.2770747
0.03847215,-0.011537213,-0.0020202247,-0.47165933,-0.77682966,-0.26844957
0.037274547,-0.01117807,-0.001957337,-0.456977,-0.75264764,-0.26009297
0.036114227,-0.010830108,-0.0018964071,-0.44275177,-0.72921854,-0.25199655
0.034990035,-0.01049298,-0.0018373742,-0.42896944,-0.70651877,-0.24415219
0.03390084,-0.010166346,-0.0017801791,-0.41561618,-0.6845258,-0.23655206
0.032845557,-0.009849883,-0.0017247646,-0.40267864,-0.6632175,-0.22918853
0.031823125,-0.009543271,-0.0016710754,-0.39014387,-0.6425725,-0.22205424
0.030832522,-0.009246204,-0.0016190575,-0.37799934,-0.62257034,-0.21514206
0.029872758,-0.008958386,-0.0015686591,-0.36623287,-0.6031908,-0.20844506
0.028942876,-0.008679528,-0.0015198296,-0.3548327,-0.58441454,-0.20195654
0.028041938,-0.008409351,-0.0014725203,-0.34378746,-0.56622285,-0.19567002
0.02716905,-0.008147585,-0.0014266836,-0.33308604,-0.54859746,-0.18957922
0.026323333,-0.007893967,-0.001382274,-0.32271776,-0.5315208,-0.183678
0.025503945,-0.0076482454,-0.0013392468,-0.31267226,-0.51497567,-0.1779605
0.024710065,-0.0074101724,-0.001297559,-0.30293947,-0.49894562,-0.172421
0.023940897,-0.007179511,-0.001257169,-0.29350966,-0.4834146,-0.16705392
0.023195673,-0.0069560297,-0.0012180363,-0.2843734,-0.46836704,-0.16185392
0.022473646,-0.006739505,-0.0011801217,-0.27552152,-0.4537879,-0.1568158
0.021774098,-0.006529721,-0.0011433874,-0.2669452,-0.4396626,-0.1519345
0.021096325,-0.006326467,-0.0011077967,-0.25863588,-0.42597702,-0.14720517
0.02043965,-0.00612954,-0.0010733138,-0.25058523,-0.41271743,-0.14262305
