ax,ay,az,gx,gy,gz
0.28272983,-0.048182257,0.051818654,34.901226,-4.4391313,0.38818532
0.17088883,0.15726185,0.6312889,39.96644,2.1833458,2.3554292
-0.2307705,0.15136024,0.7381635,29.042967,1.9906272,-6.3743906
-0.5679268,-0.100145385,0.77778226,19.81128,-2.6655226,-16.005272
-0.26980907,-0.6884887,0.9415908,16.01068,-3.0549052,-19.073355
0.13825746,-1.389423,0.98931956,14.007478,-0.3271506,-15.068441
0.3144889,-2.049619,0.83998126,15.5363035,3.0909033,-10.617999
0.32787368,-2.6327555,0.53712934,22.12831,5.1645246,-7.6653585
0.35723087,-3.0242476,0.17173271,25.603563,5.6337285,-3.228568
0.39836305,-3.2275562,-0.13487045,25.047192,4.1955476,2.3356595
0.45401454,-3.3215258,-0.40034398,24.048756,1.6408732,8.084153
0.56291085,-3.3045945,-0.6032912,24.03818,-0.48813283,14.170948
0.6793197,-3.2061827,-0.813865,24.728878,-2.3719525,20.638617
0.7313963,-2.999643,-1.0969003,26.762615,-4.736981,25.655325
0.77067477,-2.6025743,-1.3464608,29.310633,-7.366413,29.09716
0.759123,-2.012021,-1.5492669,30.906258,-10.417836,31.331766
0.70901287,-1.2908134,-1.6759045,31.060045,-14.000925,32.242397
0.69269353,-0.5399278,-1.6755463,29.627527,-17.309595,31.497179
0.667736,0.24905746,-1.5039977,27.151625,-19.944986,29.36642
0.60248077,1.0269382,-1.19907,23.937853,-21.590292,25.474133
0.48654878,1.7213036,-0.8345825,19.909733,-22.56852,20.054855
0.37141842,2.2396095,-0.47092792,15.275209,-23.174255,13.436349
0.3119166,2.5028217,-0.15926011,9.880882,-23.497168,6.7361994
0.43128464,2.3906312,0.113939606,4.7287903,-22.783266,0.7884133
0.6396144,1.9909726,0.33185712,1.057419,-20.812971,-4.382282
0.8114954,1.4278034,0.4450701,-0.8166664,-18.060993,-8.546029
0.8990509,0.8259346,0.4456973,-1.7033106,-15.406418,-11.118338
0.91950953,0.23393652,0.35805893,-2.173545,-13.713341,-11.483143
0.9172052,-0.33480564,0.2062131,-1.8065739,-12.639183,-10.654845
0.915846,-0.83062893,0.02949506,-0.4938719,-11.806951,-8.68535
0.9084391,-1.2042897,-0.16376744,1.344034,-11.226978,-5.843361
0.8819733,-1.4600089,-0.37361056,3.5443358,-10.978775,-2.4168365
0.83134824,-1.6269747,-0.6210339,5.9795,-11.709442,1.4660019
0.8042638,-1.740854,-0.9078563,8.500053,-13.039791,5.8094563
0.80537975,-1.8129766,-1.1831256,11.559486,-14.816004,10.4003
0.82877207,-1.7374703,-1.3847417,14.904543,-16.71989,14.743738
0.8432289,-1.4486032,-1.515163,17.609653,-18.977737,18.27212
0.8587295,-1.006401,-1.5588441,18.856155,-21.601004,20.969666
0.90090346,-0.39133137,-1.4670942,18.876585,-23.811563,22.084826
0.91834885,0.30185753,-1.2904416,18.005568,-25.375751,21.5317
0.88390464,0.9962147,-1.063199,16.10953,-26.432568,19.41741
0.80603206,1.5863216,-0.8530593,13.9728155,-27.246857,15.883416
0.7118682,2.0031433,-0.6847165,11.48786,-28.281229,10.8844595
0.7424523,2.134697,-0.5296072,8.256141,-28.997316,5.7731586
0.8553145,2.0459104,-0.37540683,4.487166,-29.18085,0.7729895
1.0043459,1.7280561,-0.22186762,0.7934538,-28.557058,-3.7800117
1.1155099,1.234683,-0.13012876,-1.9957966,-27.647217,-7.4099855
1.1853914,0.68373334,-0.10498403,-3.648102,-26.541962,-9.002194
1.2048459,0.21944514,-0.11609934,-4.256206,-25.306143,-9.207198
1.198545,-0.1220563,-0.12369058,-3.7394261,-23.750769,-8.522557
1.1668229,-0.33841497,-0.12515129,-2.474942,-21.803093,-7.2964163
1.1096731,-0.42116436,-0.13410722,-1.2058389,-19.510418,-5.590994
1.0335826,-0.40502322,-0.15231054,-0.82911164,-17.19071,-3.3998516
0.9727922,-0.33264282,-0.15502775,-1.101995,-14.964281,-1.2444006
0.92393583,-0.25931004,-0.14164326,-1.9066327,-13.115849,0.37797308
0.88648134,-0.20306544,-0.12069915,-2.832697,-11.589275,1.2839942
0.8612769,-0.15955867,-0.105549835,-3.731013,-10.391327,1.705394
0.83305043,-0.15432948,-0.102090664,-3.6087372,-10.050774,1.6495034
0.80583507,-0.14928761,-0.09875541,-3.4908414,-9.72242,1.5956149
0.77958673,-0.14442489,-0.09553867,-3.377135,-9.405733,1.5436412
0.754264,-0.13973364,-0.09243536,-3.267438,-9.100214,1.4935002
0.7298277,-0.13520661,-0.08944068,-3.161581,-8.805389,1.4451145
0.70624095,-0.13083698,-0.08655012,-3.0594044,-8.520815,1.398411
0.683469,-0.12661828,-0.083759405,-2.9607573,-8.246071,1.3533208
0.6614789,-0.12254443,-0.08106451,-2.865497,-7.980759,1.3097787
0.6402394,-0.118609644,-0.0784616,-2.7734885,-7.7245045,1.2677228
0.619721,-0.11480844,-0.07594706,-2.6846037,-7.476949,1.2270949
0.59989566,-0.11113563,-0.07351746,-2.5987213,-7.237756,1.1878392
0.5807367,-0.10758627,-0.07116952,-2.5157254,-7.006603,1.1499029
0.5622188,-0.10415568,-0.068900146,-2.4355068,-6.783184,1.1132362
0.5443179,-0.10083939,-0.06670638,-2.3579607,-6.567209,1.077791
0.527011,-0.09763314,-0.06458541,-2.282988,-6.3584003,1.0435219
0.51027614,-0.09453288,-0.06253455,-2.2104936,-6.1564946,1.0103858
0.49409255,-0.09153473,-0.06055124,-2.1403868,-5.961239,0.9783409
0.4784402,-0.088635,-0.058633037,-2.0725815,-5.7723927,0.94734806
0.4633,-0.08583015,-0.056777604,-2.006995,-5.589726,0.91736937
0.44865376,-0.083116814,-0.0549827,-1.943548,-5.4130187,0.88836867
0.43448398,-0.080491744,-0.053246185,-1.8821652,-5.2420597,0.8603114
0.42077395,-0.07795185,-0.051566016,-1.8227739,-5.076648,0.8331645
0.40750763,-0.075494155,-0.04994023,-1.7653049,-4.9165897,0.8068962
0.39466968,-0.073115826,-0.04836693,-1.7096915,-4.7616997,0.7814761
0.38224536,-0.07081411,-0.046844322,-1.6558698,-4.6117997,0.756875
0.37022045,-0.0685864,-0.04537067,-1.6037785,-4.466719,0.7330648
0.35858142,-0.066430174,-0.0439443,-1.5533587,-4.3262935,0.7100186
0.34731516,-0.064343005,-0.042563614,-1.5045538,-4.1903663,0.6877105
0.33640912,-0.062322572,-0.041227076,-1.4573094,-4.0587845,0.66611576
0.32585123,-0.060366634,-0.0399332,-1.411573,-3.9314032,0.6452103
0.31562984,-0.05847304,-0.038680565,-1.3672944,-3.8080819,0.62497115
0.30573377,-0.05663971,-0.0374678,-1.3244251,-3.6886857,0.6053762
0.29615223,-0.05486465,-0.036293577,-1.2829183,-3.573084,0.586404
0.28687486,-0.053145938,-0.03515663,-1.2427291,-3.4611523,0.5680341
0.27789164,-0.05148172,-0.034055732,-1.2038141,-3.3527694,0.5502466
0.2691929,-0.049870208,-0.0329897,-1.1661316,-3.247819,0.53302246
0.26076937,-0.04830968,-0.03195739,-1.1296413,-3.1461887,0.51634324
0.25261205,-0.046798475,-0.030957712,-1.0943042,-3.0477707,0.50019115
0.24471235,-0.045334984,-0.029989598,-1.0600829,-2.9524605,0.4845491
0.23706186,-0.043917667,-0.029052027,-1.0269414,-2.8601573,0.46940055
0.22965252,-0.042545028,-0.028144011,-0.9948445,-2.7707634,0.45472953
0.22247659,-0.041215625,-0.027264595,-0.96375865,-2.6841855,0.4405206
0.2155265,-0.039928067,-0.026412861,-0.9336512,-2.6003327,0.42675892
0.20879504,-0.038681008,-0.025587918,-0.9044908,-2.5191174,0.41343012
0.20227517,-0.03747315,-0.024788905,-0.87624705,-2.440455,0.4005203
0.19596013,-0.036303237,-0.024014995,-0.84889054,-2.364264,0.38801602
0.18984337,-0.035170056,-0.023265382,-0.822393,-2.290465,0.37590435
0.18391857,-0.034072433,-0.022539295,-0.796727,-2.218982,0.3641728
0.17817959,-0.033009242,-0.021835981,-0.771866,-2.1497412,0.35280916
0.17262053,-0.031979382,-0.021154717,-0.74778444,-2.082671,0.34180182
0.16723569,-0.030981792,-0.0204948,-0.7244575,-2.0177026,0.33113942
0.1620195,-0.030015454,-0.019855557,-0.70186126,-1.9547694,0.32081097
0.15696667,-0.029079372,-0.019236328,-0.6799726,-1.8938067,0.31080598
0.15207198,-0.028172592,-0.018636484,-0.658769,-1.8347522,0.3011141
0.14733045,-0.027294183,-0.018055405,-0.63822895,-1.7775455,0.29172552
0.14273724,-0.026443252,-0.017492507,-0.6183313,-1.7221283,0.28263062
0.13828765,-0.025618931,-0.016947208,-0.59905595,-1.6684439,0.2738201
0.13397717,-0.024820378,-0.016418956,-0.5803831,-1.6164379,0.26528502
0.12980141,-0.024046784,-0.015907215,-0.56229395,-1.5660572,0.2570167
0.12575613,-0.023297362,-0.0154114645,-0.54476994,-1.5172508,0.24900672
0.121837206,-0.02257135,-0.014931199,-0.52779335,-1.4699689,0.24124697
0.11804069,-0.021868013,-0.014465934,-0.511347,-1.4241638,0.23372956
0.11436271,-0.021186637,-0.014015197,-0.49541414,-1.3797889,0.22644688
0.11079956,-0.020526534,-0.01357853,-0.47997874,-1.3367994,0.21939157
0.10734762,-0.019887034,-0.013155495,-0.4650251,-1.2951517,0.21255648
0.104003415,-0.019267492,-0.012745661,-0.45053816,-1.2548038,0.2059347
0.10076356,-0.018667283,-0.012348616,-0.43650326,-1.2157148,0.19951954
0.097624786,-0.018085798,-0.011963957,-0.42290622,-1.1778455,0.19330452
0.09458392,-0.017522452,-0.011591298,-0.40973333,-1.1411574,0.18728338
0.0916379,-0.016976679,-0.011230262,-0.3969713,-1.1056136,0.18145004
0.088783756,-0.016447924,-0.010880485,-0.38460726,-1.0711782,0.17579861
0.08601861,-0.015935658,-0.010541615,-0.37262878,-1.0378166,0.1703234
0.083339676,-0.015439364,-0.010213311,-0.36102375,-1.0054953,0.16501892
0.08074427,-0.014958542,-0.009895242,-0.34978053,-0.97418153,0.1598798
0.078229755,-0.014492709,-0.009587089,-0.3388878,-0.94384396,0.15490088
0.075793624,-0.014041396,-0.00928854,-0.3283346,-0.91445196,0.15007716
0.07343342,-0.013604149,-0.0089992955,-0.31811032,-0.8859761,0.14540379
0.07114678,-0.013180529,-0.008719066,-0.30820465,-0.85838765,0.14087604
0.068931386,-0.01277011,-0.00844757,-0.2986077,-0.8316589,0.1364894
0.06678503,-0.012372479,-0.008184533,-0.28930977,-0.80576307,0.13223946
0.06470555,-0.011987238,-0.007929691,-0.28030157,-0.7806741,0.12812193
0.06269086,-0.011614,-0.0076827905,-0.27157402,-0.7563668,0.124132685
0.060738936,-0.01125239,-0.0074435812,-0.26311836,-0.73281676,0.12026773
0.05884782,-0.010902045,-0.0072118244,-0.25492612,-0.7100004,0.11652317
0.057015613,-0.010562614,-0.0069872867,-0.2469891,-0.6878948,0.112895265
0.055240482,-0.010233756,-0.0067697433,-0.2392993,-0.6664778,0.109380364
0.053520642,-0.009915141,-0.006558976,-0.23184903,-0.6457279,0.10597495
0.05185437,-0.00960645,-0.006354774,-0.2246308,-0.62562424,0.1026756
0.05023999,-0.009307374,-0.0061569316,-0.2176374,-0.60614675,0.09947902
0.048675895,-0.009017612,-0.005965251,-0.2108618,-0.58727586,0.096381985
0.04716051,-0.008736875,-0.0057795397,-0.20429723,-0.56899273,0.09338141
0.04569232,-0.008464879,-0.0055996124,-0.19793709,-0.55127895,0.09047428
0.04426985,-0.008201355,-0.005425288,-0.19177501,-0.5341168,0.087657675
0.042891674,-0.007946038,-0.005256392,-0.18580481,-0.51748914,0.08492879
0.041556418,-0.0076986696,-0.005092756,-0.18002054,-0.5013792,0.082284875
0.040262736,-0.007459005,-0.004934215,-0.17441638,-0.48577094,0.07972329
0.03900934,-0.007226803,-0.0047806106,-0.16898672,-0.47064868,0.07724147
0.037794974,-0.007001831,-0.0046317894,-0.16372614,-0.4559973,0.07483693
0.036618415,-0.006783864,-0.0044876016,-0.15862934,-0.44180208,0.072507255
0.03547849,-0.006572684,-0.0043479037,-0.15369125,-0.42804888,0.070250124
0.034374062,-0.0063680788,-0.004212555,-0.1489069,-0.4147239,0.06806326
0.033304017,-0.006169844,-0.0040814206,-0.14427151,-0.40181378,0.06594449
0.032267287,-0.0059777815,-0.003954369,-0.13978045,-0.3893056,0.06389169
0.031262834,-0.0057916986,-0.003831273,-0.1354292,-0.37718686,0.061902795
0.030289656,-0.005611409,-0.0037120094,-0.13121343,-0.36544544,0.059975825
0.029346773,-0.0054367324,-0.003596459,-0.12712891,-0.35406953,0.05810885
0.028433247,-0.005267494,-0.003484506,-0.12317155,-0.34304783,0.056299996
0.02754816,-0.0051035243,-0.0033760383,-0.1193374,-0.33236924,0.05454746
0.026690628,-0.0049446593,-0.0032709474,-0.11562261,-0.3220231,0.05284948
0.025859794,-0.0047907406,-0.0031691282,-0.112023465,-0.31199905,0.05120436
0.025054822,-0.004641613,-0.0030704786,-0.10853637,-0.30228704,0.04961046
0.024274912,-0.004497128,-0.0029749004,-0.10515784,-0.2928774,0.048066176
0.023519281,-0.004357141,-0.0028822974,-0.10188448,-0.2837607,0.04656997
0.022787172,-0.004221512,-0.0027925773,-0.09871301,-0.2749278,0.04512034
0.022077855,-0.004090105,-0.0027056502,-0.09564029,-0.26636988,0.04371584
0.021390619,-0.003962789,-0.002621429,-0.092663206,-0.25807834,0.042355057
0.020724777,-0.0038394362,-0.0025398298,-0.08977881,-0.25004494,0.04103664
0.020079663,-0.0037199233,-0.0024607708,-0.0869842,-0.24226162,0.039759263
0.01945463,-0.0036041308,-0.0023841728,-0.08427659,-0.23472059,0.03852165
0.018849054,-0.003491943,-0.0023099591,-0.08165326,-0.2274143,0.037322566
0.018262329,-0.0033832474,-0.002238056,-0.07911159,-0.22033545,0.036160804
0.017693868,-0.0032779353,-0.0021683907,-0.07664905,-0.21347696,0.035035208
0.017143104,-0.0031759017,-0.0021008942,-0.074263155,-0.20683196,0.03394465
