ax,ay,az,gx,gy,gz
0.24363859,-0.8918263,0.009090992,-13.761034,-14.870135,-25.246593
0.46965614,-1.0758253,0.5727081,-3.540325,-3.4520164,-35.958717
0.50499237,-1.3945234,0.8607432,4.842704,4.291044,-42.109947
0.4915298,-1.7265992,0.8480761,11.91992,8.574923,-43.978825
0.5975769,-1.9241834,0.8157026,15.08357,12.02526,-41.11809
0.71249694,-2.1252234,0.8192271,15.183266,14.69159,-35.98011
0.8949742,-2.325866,0.8778556,13.957058,17.769278,-29.398655
1.1065984,-2.5014377,0.89559263,12.908748,21.979168,-22.130072
1.2581928,-2.6543994,0.7922072,12.411294,25.944613,-14.873125
1.3308069,-2.7914765,0.5862038,13.062014,28.916216,-6.717458
1.3089051,-2.8126986,0.20077133,14.308729,29.959387,1.344274
1.2270678,-2.7748172,-0.25228846,15.153054,28.356388,8.842591
1.1390396,-2.6916192,-0.7077709,16.16948,24.718004,14.993632
1.0945184,-2.623932,-1.1428361,18.735815,20.048914,19.783466
1.1064292,-2.5477276,-1.568149,23.469355,14.230366,23.139893
1.1399837,-2.3663833,-1.9706017,28.779415,7.880449,26.291565
1.1314012,-1.9432869,-2.2274332,32.10318,1.9619261,29.544556
1.0404418,-1.3383297,-2.3242264,33.562077,-3.985006,31.817778
0.8982888,-0.6135601,-2.203402,33.16543,-9.709246,32.231453
0.7531168,0.14812131,-1.9056482,31.04625,-14.564424,29.582136
0.6714872,0.7981456,-1.4663845,28.712208,-18.038898,25.519611
0.6530394,1.3087275,-0.98727506,25.134905,-19.880585,20.970875
0.65484595,1.68552,-0.5249285,20.8857,-20.212572,15.998708
0.64530045,1.8902509,-0.13389194,16.491278,-19.283953,10.816161
0.6428223,1.9430711,0.13116375,11.958885,-17.733961,5.5057926
0.6833965,1.7898031,0.24611625,8.195852,-16.183178,0.33361435
0.76510286,1.5001975,0.31455225,4.9988875,-14.53108,-3.8752344
0.8583823,1.1347975,0.3463853,2.2033665,-12.642869,-6.6482205
0.92072237,0.7378862,0.328368,0.33429152,-10.781567,-8.456765
0.9721388,0.34463215,0.28483993,-0.42425713,-8.765532,-9.001421
0.99271625,-0.017443227,0.19675702,-0.86167085,-6.8681684,-8.722142
0.991263,-0.3636894,0.070956245,-0.598141,-5.2203345,-7.473185
0.97436374,-0.6710605,-0.06863409,-0.08078817,-4.0319076,-5.1857567
0.95614463,-0.9014155,-0.21357743,0.44430488,-3.3126647,-2.1482875
0.9396341,-1.0598469,-0.35526454,1.375172,-2.9517438,1.1824607
0.90068775,-1.1543614,-0.5211329,2.790879,-3.1987324,4.600038
0.8564852,-1.1961414,-0.6728333,4.0773354,-3.9388127,8.4059105
0.8139383,-1.1748717,-0.82041967,4.953685,-5.3974295,12.4165125
0.7822714,-1.1199635,-0.9559497,6.1802955,-7.3632317,15.893452
0.7629548,-1.0401784,-1.0746074,7.878105,-9.665,18.521635
0.75231194,-0.9021922,-1.140697,9.743018,-11.776803,20.681822
0.7321771,-0.71465147,-1.1760049,11.138473,-14.329752,22.694193
0.73320204,-0.46325526,-1.1478057,12.04246,-16.815363,24.435236
0.7399315,-0.13011703,-1.0826681,12.358255,-19.300682,25.228848
0.74584913,0.2869582,-0.97813195,11.829557,-21.248495,23.931368
0.70912373,0.7636935,-0.83273375,10.256202,-22.951326,20.891817
0.6615219,1.2044039,-0.6616128,7.517422,-24.423836,16.366056
0.63241947,1.5189012,-0.49219477,3.7573698,-25.434599,11.651472
0.64706576,1.6756023,-0.3511056,-0.51599854,-25.651588,7.267123
0.68157834,1.6958568,-0.25857657,-3.9067562,-24.966053,2.281866
0.71201456,1.5327902,-0.2261452,-6.327608,-24.060204,-2.8838346
0.75876564,1.254268,-0.21838754,-8.218995,-23.277267,-7.271103
0.8419573,0.8867469,-0.22532329,-9.769321,-22.597523,-10.219249
0.9323667,0.45011592,-0.24536994,-10.751824,-21.98391,-11.570471
1.0130867,-0.016888414,-0.27321804,-10.6503935,-21.300123,-11.015302
1.0587577,-0.44838527,-0.31835675,-9.789308,-20.599203,-9.290144
1.0659671,-0.746131,-0.35964647,-8.413723,-20.036234,-6.9274406
1.0418473,-0.8980945,-0.38063267,-6.917815,-19.75166,-4.464087
1.0037597,-0.94333863,-0.37790042,-5.7147665,-19.748436,-1.8875703
0.9729211,-0.9071718,-0.34627548,-5.0017877,-19.554483,0.7146897
0.9496988,-0.7962717,-0.29725078,-4.851207,-19.069996,3.217265
0.9217171,-0.6648909,-0.24469383,-4.7948933,-18.242561,5.2822433
0.8851097,-0.5314526,-0.1897628,-4.5925846,-17.11842,6.7132525
0.84654254,-0.40291387,-0.13811575,-4.373662,-15.720215,7.7425337
0.8193056,-0.3899504,-0.13367197,-4.2329426,-15.214428,7.493423
0.79299843,-0.37742946,-0.12937988,-4.097027,-14.725907,7.252816
0.76758444,-0.3653336,-0.12523352,-3.9657252,-14.253971,7.020378
0.7430288,-0.35364628,-0.1212272,-3.8388586,-13.797976,6.7957907
0.7192986,-0.34235182,-0.11735555,-3.7162564,-13.357307,6.5787525
0.6963624,-0.3314353,-0.11361345,-3.5977566,-12.931384,6.3689766
0.6741904,-0.32088247,-0.10999602,-3.4832048,-12.519652,6.1661897
0.65275407,-0.31067982,-0.10649863,-3.3724542,-12.121582,5.970132
0.6320264,-0.30081442,-0.10311685,-3.2653646,-11.7366705,5.7805552
0.6119814,-0.29127398,-0.09984646,-3.1618023,-11.364438,5.5972223
0.59259444,-0.2820467,-0.09668342,-3.0616395,-11.004423,5.419908
0.57384187,-0.27312136,-0.093623884,-2.964754,-10.65619,5.2483954
0.5557011,-0.2644872,-0.09066416,-2.8710299,-10.319317,5.0824785
0.5381504,-0.25613394,-0.08780073,-2.7803545,-9.993403,4.9219594
0.52116925,-0.2480517,-0.0850302,-2.692621,-9.678064,4.7666483
0.5047376,-0.24023105,-0.08234934,-2.6077273,-9.372931,4.616364
0.4888366,-0.23266292,-0.07975504,-2.5255744,-9.07765,4.470932
0.47344786,-0.22533861,-0.07724433,-2.4460685,-8.7918825,4.3301854
0.45855385,-0.21824977,-0.07481433,-2.3691187,-8.515302,4.193964
0.44413778,-0.21138841,-0.072462305,-2.294638,-8.247597,4.0621133
0.43018344,-0.2047468,-0.07018562,-2.2225428,-7.9884663,3.9344862
0.41667527,-0.19831756,-0.06798172,-2.1527529,-7.7376204,3.8109393
0.40359828,-0.19209354,-0.06584817,-2.0851905,-7.4947824,3.6913366
0.3909381,-0.1860679,-0.06378263,-2.0197818,-7.259684,3.5755458
0.37868086,-0.18023403,-0.061782826,-1.9564548,-7.0320683,3.4634402
0.3668132,-0.1745856,-0.059846587,-1.8951405,-6.811687,3.3548977
0.35532227,-0.16911645,-0.05797181,-1.8357726,-6.5983014,3.249801
0.34419566,-0.16382073,-0.05615647,-1.778287,-6.391681,3.1480362
0.33342144,-0.15869272,-0.05439863,-1.722622,-6.191605,3.0494945
0.3229881,-0.15372694,-0.0526964,-1.6687181,-5.9978585,2.9540703
0.31288448,-0.14891809,-0.051047966,-1.6165178,-5.8102355,2.8616621
0.30309993,-0.1442611,-0.04945159,-1.5659659,-5.628537,2.772172
0.29362404,-0.13975105,-0.04790557,-1.5170087,-5.452571,2.685505
0.28444687,-0.13538314,-0.046408292,-1.4695948,-5.2821517,2.60157
0.27555877,-0.13115284,-0.044958174,-1.4236745,-5.1171007,2.5202787
0.26695043,-0.12705567,-0.0435537,-1.3791995,-4.9572444,2.4415462
0.25861287,-0.12308739,-0.0421934,-1.3361235,-4.802417,2.3652904
0.25053737,-0.119243845,-0.040875863,-1.2944014,-4.652456,2.2914314
0.2427156,-0.11552105,-0.039599717,-1.2539902,-4.507206,2.2198927
0.23513938,-0.111915134,-0.03836364,-1.2148477,-4.3665166,2.1506004
0.22780094,-0.10842238,-0.03716635,-1.1769336,-4.230242,2.0834825
0.22069266,-0.10503918,-0.036006615,-1.1402087,-4.098242,2.0184696
0.21380723,-0.10176205,-0.03488324,-1.1046351,-3.9703803,1.955495
0.20713757,-0.09858761,-0.033795066,-1.0701764,-3.8465252,1.8944939
0.20067684,-0.095512606,-0.03274098,-1.0367969,-3.72655,1.8354036
0.1944184,-0.09253389,-0.031719897,-1.0044627,-3.6103315,1.7781636
0.18835586,-0.08964841,-0.030730778,-0.9731406,-3.4977508,1.7227151
0.18248302,-0.08685321,-0.029772608,-0.94279855,-3.3886926,1.6690017
0.17679387,-0.08414546,-0.028844409,-0.9134056,-3.2830458,1.6169685
0.17128263,-0.08152237,-0.027945235,-0.8849318,-3.1807024,1.5665623
0.1659437,-0.07898129,-0.027074171,-0.85734814,-3.0815587,1.5177319
0.16077161,-0.076519616,-0.026230332,-0.83062655,-2.9855137,1.4704278
0.15576112,-0.07413487,-0.025412858,-0.8047399,-2.8924696,1.4246016
0.15090717,-0.07182462,-0.02462092,-0.77966195,-2.802332,1.380207
0.14620481,-0.069586515,-0.023853717,-0.7553672,-2.7150097,1.3371989
0.14164928,-0.06741831,-0.023110472,-0.7318311,-2.6304138,1.2955337
0.13723597,-0.06531778,-0.022390427,-0.7090297,-2.548459,1.2551693
0.13296042,-0.06328282,-0.021692859,-0.68694,-2.4690626,1.2160648
0.12881829,-0.061311368,-0.02101706,-0.66553974,-2.3921437,1.1781806
0.12480542,-0.05940143,-0.02036235,-0.6448072,-2.317625,1.1414787
0.120917745,-0.05755108,-0.019728063,-0.6247215,-2.2454312,1.1059216
0.117151335,-0.05575845,-0.019113563,-0.6052624,-2.1754894,1.0714738
0.113502406,-0.054021735,-0.01851823,-0.5864102,-2.107729,1.0381005
0.10996727,-0.052339178,-0.017941464,-0.56814593,-2.0420818,1.005768
0.10654237,-0.050709087,-0.017382681,-0.55045116,-1.9784818,0.97444355
0.103224255,-0.04912982,-0.016841322,-0.53330815,-1.9168648,0.94409585
0.10000958,-0.047599792,-0.016316839,-0.51669955,-1.8571686,0.91469425
0.09689512,-0.04611746,-0.015808707,-0.5006087,-1.7993333,0.8862092
0.09387774,-0.04468133,-0.015316412,-0.48501936,-1.7433008,0.858612
0.0909544,-0.04328996,-0.014839461,-0.46991593,-1.6890147,0.83187497
0.08812217,-0.04194195,-0.014377375,-0.4552832,-1.6364204,0.80597115
0.08537819,-0.04063595,-0.013929687,-0.44110647,-1.5854651,0.7808746
0.08271972,-0.039370645,-0.013495951,-0.42737147,-1.5360975,0.75656
0.080144085,-0.038144764,-0.013075729,-0.41406444,-1.4882681,0.7330031
0.0776487,-0.036957078,-0.012668599,-0.401172,-1.441929,0.7101801
0.075231045,-0.03580639,-0.0122741535,-0.38868123,-1.3970336,0.68806815
0.07288872,-0.034691554,-0.011891996,-0.37657958,-1.3535367,0.66664505
0.07061935,-0.033611447,-0.011521743,-0.36485493,-1.3113948,0.6458893
0.06842068,-0.032564983,-0.011163022,-0.35349548,-1.2705656,0.62578005
0.06629049,-0.03155111,-0.010815477,-0.34248984,-1.2310082,0.6062972
0.06422665,-0.030568823,-0.010478755,-0.331827,-1.1926829,0.5874212
0.062227093,-0.029617129,-0.010152522,-0.32149628,-1.1555513,0.5691331
0.060289808,-0.028695073,-0.009836448,-0.31148732,-1.1195761,0.55141455
0.058412857,-0.027801735,-0.009530218,-0.30179003,-1.0847212,0.5342478
0.056594357,-0.026936216,-0.009233526,-0.29239476,-1.050952,0.51761574
0.054832492,-0.026097652,-0.008946072,-0.28329208,-1.0182343,0.50150156
0.05312549,-0.0252852,-0.008667571,-0.27447286,-0.9865354,0.48588923
0.051471643,-0.024498047,-0.00839774,-0.26592827,-0.9558236,0.47076306
0.049869295,-0.023735408,-0.008136313,-0.25764975,-0.9260682,0.45610788
0.048316844,-0.022996513,-0.007883026,-0.24962899,-0.89723927,0.44190904
0.04681273,-0.022280628,-0.007637626,-0.24185799,-0.869308,0.42815232
0.04535545,-0.021587033,-0.007399867,-0.23432896,-0.8422465,0.41482395
0.043943543,-0.020915031,-0.0071695107,-0.22703433,-0.8160275,0.40191057
0.042575598,-0.020263955,-0.0069463267,-0.21996684,-0.7906249,0.38939923
0.041250244,-0.01963315,-0.0067300913,-0.2131194,-0.7660132,0.37727746
0.039966155,-0.019021984,-0.0065205884,-0.20648515,-0.7421678,0.3655331
0.038722046,-0.018429847,-0.0063176085,-0.20005746,-0.7190648,0.35415438
0.03751667,-0.017856145,-0.0061209477,-0.19382988,-0.696681,0.34312993
0.03634882,-0.017300304,-0.0059304098,-0.18779618,-0.6749942,0.3324487
0.035217326,-0.016761769,-0.005745804,-0.18195033,-0.65398246,0.32209998
0.034121063,-0.016239999,-0.0055669453,-0.17628647,-0.6336249,0.31207347
0.033058926,-0.015734471,-0.005393655,-0.17079894,-0.61390114,0.3023591
0.032029856,-0.015244684,-0.0052257595,-0.16548225,-0.5947914,0.29294717
0.031032821,-0.014770144,-0.0050630905,-0.16033109,-0.5762766,0.28382823
0.030066827,-0.014310376,-0.0049054855,-0.15534027,-0.55833817,0.27499318
0.029130904,-0.013864921,-0.0047527873,-0.15050483,-0.54095817,0.26643318
0.028224118,-0.013433334,-0.0046048425,-0.14581992,-0.5241192,0.25813964
0.02734556,-0.013015183,-0.0044615036,-0.14128084,-0.5078045,0.2501043
0.026494352,-0.012610048,-0.0043226266,-0.13688308,-0.49199763,0.24231909
0.025669642,-0.012217525,-0.004188073,-0.13262221,-0.47668284,0.23477623
0.024870604,-0.011837222,-0.0040577077,-0.12849398,-0.4618448,0.2274682
0.02409644,-0.011468757,-0.003931401,-0.12449427,-0.44746864,0.22038764
0.023346378,-0.011111762,-0.0038090257,-0.12061906,-0.43354002,0.2135275
0.022619661,-0.01076588,-0.0036904602,-0.11686449,-0.420045,0.20688091
0.021915568,-0.010430765,-0.0035755853,-0.113226786,-0.40697005,0.20044123
0.021233393,-0.010106082,-0.0034642864,-0.10970233,-0.3943021,0.194202
