ax,ay,az,gx,gy,gz
-0.31363922,0.7309157,1.1700106,17.36743,-3.329121,-21.140192
-0.6063618,0.04770225,1.2371874,18.834743,-6.0177665,-28.690672
-0.44143027,-0.25533116,1.5580306,11.288256,-5.867893,-29.221739
0.059061863,-0.5255177,1.9697895,6.5822563,-0.84544593,-29.135632
0.5412701,-0.8608389,2.2638197,3.007382,8.112616,-29.432455
0.8705503,-1.3004067,2.308863,2.8429873,18.294943,-29.521082
0.9887926,-1.7643551,2.0504034,4.7282734,25.884758,-28.269495
1.0791723,-2.1499784,1.7158307,4.4255104,31.214645,-24.057371
1.139188,-2.5103037,1.337876,2.569312,34.14179,-17.44144
1.208339,-2.8551047,0.959847,0.8402313,36.029575,-9.297761
1.3116564,-3.1216757,0.6070009,0.9838537,37.058254,-0.03890557
1.4328173,-3.251364,0.23929907,4.5642195,37.677845,7.3682775
1.497847,-3.2761064,-0.18384321,10.260747,36.560738,13.5005045
1.4852462,-3.1853352,-0.62408304,15.685466,32.862965,19.515917
1.4296625,-2.9436052,-1.0481766,19.870932,27.139566,25.445679
1.3541564,-2.5462532,-1.3987141,22.53491,20.073017,29.316929
1.2522252,-1.9687253,-1.540392,24.365812,13.577202,31.360764
1.1280932,-1.2873051,-1.5247171,25.04629,8.047499,31.10969
0.9950214,-0.5404656,-1.3744746,24.10203,3.5670621,28.753311
0.85918057,0.15142189,-1.1288211,21.545286,-0.18328577,25.324223
0.72612333,0.72904915,-0.85730845,17.534178,-2.662759,20.401667
0.60748625,1.1146224,-0.5647634,14.077687,-3.759872,14.427128
0.525525,1.3386991,-0.31137902,10.954256,-3.754955,7.959286
0.49640167,1.3884284,-0.113574095,7.719183,-3.2149682,1.7465943
0.51960033,1.2700453,0.005621489,4.157722,-2.5565348,-3.3769636
0.594982,0.99323446,0.07514111,0.40263394,-1.7399752,-6.550574
0.69165605,0.5367839,0.06829063,-2.2620552,-0.7299727,-8.465192
0.75956607,-0.00038119536,-0.022717988,-3.1642668,0.242115,-9.097137
0.7942512,-0.5648033,-0.17259249,-2.691586,1.0307392,-8.563441
0.81365454,-1.0844299,-0.33636203,-1.359554,1.5539559,-6.4709797
0.8354531,-1.4689496,-0.47740626,0.40047866,1.5173883,-2.396167
0.8986248,-1.6437926,-0.5693471,1.702917,1.0607595,2.6359818
0.98044205,-1.731206,-0.6741073,3.4691925,0.13160937,8.2389965
1.0417377,-1.7540525,-0.8138701,6.670704,-1.3743278,13.525317
1.0787578,-1.6918753,-0.9794294,10.832292,-3.4447734,18.136515
1.0867354,-1.5297176,-1.1468621,15.739066,-6.380525,21.893661
1.0394675,-1.1299838,-1.2631333,20.021614,-9.88588,24.320583
0.9600355,-0.5884713,-1.3446729,22.984516,-14.247177,25.069973
0.8653223,0.047923047,-1.3722523,23.17041,-19.262358,23.737577
0.77225065,0.72629356,-1.2825474,20.814465,-23.293901,20.309736
0.66130745,1.3593749,-1.1264449,15.305323,-25.672434,15.289579
0.5529659,1.7730263,-0.96967256,8.615038,-27.159883,9.615764
0.50268537,1.9017524,-0.86371565,2.3834817,-28.401392,3.7197607
0.5835363,1.7469239,-0.7264179,-2.5054753,-29.035751,-1.9331989
0.7701075,1.388342,-0.56581897,-5.857218,-28.196787,-6.381635
0.95386124,0.9006152,-0.43123892,-7.6834564,-26.430075,-8.766534
1.092206,0.37174043,-0.36547774,-8.770762,-24.66251,-9.538362
1.2006488,-0.11778373,-0.3224176,-9.11471,-23.094429,-8.978848
1.2809188,-0.50370544,-0.2771601,-8.60835,-21.331087,-7.7300444
1.3203865,-0.74019945,-0.23189214,-7.8819337,-19.436602,-6.079401
1.3224983,-0.84191424,-0.19196266,-7.5172763,-17.204206,-4.2110643
1.2853286,-0.8297342,-0.16786656,-7.394028,-14.865145,-2.5723078
1.2423894,-0.8020151,-0.16225861,-7.1470146,-14.368542,-2.4863741
1.2010642,-0.77533793,-0.15686145,-6.9092855,-13.890606,-2.4036708
1.1612759,-0.7496528,-0.151665,-6.680397,-13.430443,-2.3240428
1.1229521,-0.72491324,-0.14665985,-6.4599347,-12.987219,-2.2473462
1.0860257,-0.7010757,-0.14183718,-6.247511,-12.560157,-2.173446
1.0504335,-0.67809945,-0.13718878,-6.042762,-12.148524,-2.1022158
1.0161164,-0.65594625,-0.13270688,-5.845348,-11.751637,-2.0335376
0.98301864,-0.63458025,-0.12838425,-5.6549487,-11.368854,-1.9672995
0.95108795,-0.6139676,-0.12421403,-5.471263,-10.999568,-1.9033971
0.92027503,-0.5940766,-0.1201898,-5.2940073,-10.6432085,-1.8417317
0.8905334,-0.5748771,-0.116305485,-5.122915,-10.299239,-1.7822102
0.86181915,-0.5563408,-0.11255535,-4.957732,-9.967152,-1.7247449
0.8340907,-0.53844094,-0.108933955,-4.7982206,-9.646466,-1.6692525
0.80730885,-0.52115214,-0.10543619,-4.644154,-9.336727,-1.6156542
0.7814362,-0.5044502,-0.10205717,-4.495318,-9.037503,-1.5638758
0.7564374,-0.48831248,-0.09879228,-4.3515096,-8.748386,-1.5138462
0.732279,-0.47271717,-0.095637135,-4.2125344,-8.468988,-1.4654982
0.7089289,-0.4576437,-0.09258757,-4.07821,-8.198938,-1.418768
0.6863568,-0.4430724,-0.0896396,-3.9483607,-7.937886,-1.3735949
0.6645336,-0.42898464,-0.08678945,-3.8228202,-7.685496,-1.3299205
0.6434319,-0.4153626,-0.08403352,-3.7014296,-7.441449,-1.2876899
0.6230252,-0.4021892,-0.081368364,-3.5840373,-7.2054405,-1.2468504
0.60328835,-0.38944823,-0.078790694,-3.4704986,-6.9771795,-1.2073513
0.5841974,-0.3771242,-0.07629737,-3.3606749,-6.756387,-1.1691449
0.5657292,-0.36520222,-0.073885396,-3.2544343,-6.5427985,-1.1321849
0.5478619,-0.35366806,-0.07155188,-3.15165,-6.3361583,-1.0964272
0.5305742,-0.34250817,-0.06929408,-3.0522003,-6.1362224,-1.0618297
0.5138461,-0.33170944,-0.067109354,-2.9559696,-5.9427576,-1.028352
0.4976581,-0.3212594,-0.06499517,-2.862846,-5.7555394,-0.9959552
0.48199165,-0.31114605,-0.0629491,-2.7727225,-5.5743527,-0.9646022
0.46682888,-0.30135787,-0.06096881,-2.6854968,-5.3989916,-0.9342572
0.45215267,-0.29188374,-0.05905206,-2.6010697,-5.2292576,-0.9048859
0.4379465,-0.28271306,-0.05719671,-2.5193467,-5.0649595,-0.8764553
0.42419454,-0.27383557,-0.055400677,-2.4402368,-4.905915,-0.84893376
0.41088158,-0.2652415,-0.053661976,-2.3636522,-4.7519474,-0.8222908
0.39799294,-0.25692132,-0.051978692,-2.2895086,-4.602887,-0.7964969
0.3855145,-0.24886598,-0.050348982,-2.2177246,-4.458571,-0.771524
0.3734327,-0.24106665,-0.048771072,-2.1482224,-4.3188415,-0.74734485
0.3617344,-0.23351489,-0.047243252,-2.0809264,-4.183548,-0.7239333
0.350407,-0.22620258,-0.045763873,-2.015764,-4.0525436,-0.7012639
0.33943835,-0.21912186,-0.044331342,-1.9526653,-3.9256885,-0.6793125
0.3288167,-0.21226513,-0.042944137,-1.8915628,-3.8028467,-0.6580556
0.31853077,-0.20562513,-0.04160077,-1.8323916,-3.6838872,-0.63747054
0.30856964,-0.19919479,-0.040299825,-1.7750889,-3.5686843,-0.6175355
0.29892275,-0.19296733,-0.039039925,-1.7195939,-3.457116,-0.59822935
0.28958,-0.18693617,-0.03781974,-1.6658483,-3.349064,-0.5795318
0.2805315,-0.18109497,-0.036637988,-1.6137955,-3.2444162,-0.5614232
0.2717678,-0.17543764,-0.03549343,-1.5633813,-3.1430619,-0.5438846
0.26327977,-0.16995826,-0.034384876,-1.5145527,-3.044896,-0.5268976
0.25505856,-0.16465113,-0.03331117,-1.467259,-2.9498155,-0.51044464
0.24709561,-0.1595107,-0.032271195,-1.4214512,-2.857722,-0.4945085
0.2393827,-0.15453169,-0.03126387,-1.3770815,-2.76852,-0.47907275
0.23191181,-0.14970891,-0.030288158,-1.3341043,-2.6821175,-0.4641214
0.22467525,-0.14503741,-0.029343048,-1.292475,-2.5984251,-0.449639
0.21766558,-0.14051236,-0.028427571,-1.2521509,-2.5173564,-0.43561065
0.21087556,-0.13612913,-0.02754078,-1.2130904,-2.438828,-0.4220219
0.20429824,-0.13188317,-0.026681768,-1.1752534,-2.3627596,-0.4088588
0.19792686,-0.12777019,-0.025849653,-1.1386012,-2.2890732,-0.39610785
0.19175492,-0.123785935,-0.025043584,-1.1030962,-2.217693,-0.38375604
0.18577608,-0.11992635,-0.024262737,-1.0687022,-2.1485465,-0.3717907
0.17998429,-0.11618749,-0.023506315,-1.035384,-2.0815628,-0.36019966
0.1743736,-0.112565555,-0.022773549,-1.0031078,-2.0166738,-0.34897107
0.1689383,-0.10905684,-0.022063687,-0.97184056,-1.9538133,-0.33809352
0.16367288,-0.105657786,-0.021376014,-0.9415505,-1.8929174,-0.32755592
0.15857199,-0.10236494,-0.020709826,-0.9122069,-1.8339243,-0.3173476
0.15363044,-0.09917496,-0.020064449,-0.88377994,-1.7767739,-0.30745813
0.14884321,-0.09608461,-0.019439228,-0.8562408,-1.7214086,-0.29787755
0.14420547,-0.09309075,-0.01883353,-0.8295616,-1.667772,-0.2885961
0.13971253,-0.09019036,-0.018246742,-0.8037153,-1.6158099,-0.27960443
0.13535981,-0.0873805,-0.017678268,-0.77867573,-1.5654697,-0.27089342
0.13114294,-0.08465833,-0.017127536,-0.7544176,-1.5167006,-0.26245427
0.12705766,-0.0820211,-0.016593989,-0.73091644,-1.4694532,-0.25427845
0.12309981,-0.07946616,-0.016077088,-0.7081484,-1.4236798,-0.2463577
0.119265445,-0.0769909,-0.01557631,-0.6860907,-1.3793343,-0.23868403
0.11555066,-0.07459285,-0.015091153,-0.6647209,-1.336372,-0.23124969
0.11195173,-0.072269596,-0.0146211255,-0.6440176,-1.2947495,-0.22404721
0.10846502,-0.070018776,-0.014165754,-0.62395984,-1.2544249,-0.21706931
0.10508703,-0.06783814,-0.013724581,-0.6045275,-1.2153575,-0.210309
0.101814345,-0.06572548,-0.013297162,-0.58570087,-1.1775081,-0.20375943
0.09864368,-0.06367868,-0.012883067,-0.5674612,-1.1408386,-0.19741403
0.09557185,-0.061695684,-0.012481879,-0.5497901,-1.1053121,-0.19126642
0.092595756,-0.05977449,-0.012093196,-0.5326697,-1.0708928,-0.18531041
0.08971241,-0.05791317,-0.011716625,-0.5160829,-1.0375463,-0.17954002
0.08691892,-0.056109853,-0.011351789,-0.50001293,-1.0052389,-0.17394945
0.084212475,-0.054362725,-0.010998322,-0.48444372,-0.97393817,-0.16853309
0.08159036,-0.05267004,-0.010655868,-0.46935964,-0.9436127,-0.16328548
0.07904994,-0.05103009,-0.010324084,-0.45474553,-0.91423213,-0.15820138
0.07658866,-0.04944123,-0.010002636,-0.44058672,-0.88576686,-0.15327567
0.074204065,-0.047901873,-0.009691202,-0.42686898,-0.8581884,-0.14850341
0.071893744,-0.046410464,-0.00938947,-0.41357857,-0.831469,-0.1438798
0.069655396,-0.044965513,-0.0090971375,-0.40070215,-0.80558187,-0.13940023
0.06748676,-0.04356557,-0.008813909,-0.3882268,-0.7805011,-0.13506019
0.065385684,-0.04220923,-0.008539503,-0.37614003,-0.7562016,-0.13085532
0.06335004,-0.040895138,-0.008273644,-0.3644297,-0.73265886,-0.12678142
0.061377794,-0.039621968,-0.008016066,-0.35308412,-0.70984936,-0.12283439
0.05946697,-0.038388453,-0.007766508,-0.34209183,-0.6877502,-0.1190103
0.057615656,-0.03719335,-0.0075247227,-0.3314419,-0.66633934,-0.11530529
0.055821992,-0.036035467,-0.0072904667,-0.32112363,-0.6455952,-0.11171567
0.05408419,-0.034913637,-0.0070635057,-0.31112665,-0.62549704,-0.10823782
0.052400496,-0.033826742,-0.006843612,-0.30144098,-0.60602474,-0.10486828
0.050769232,-0.032773696,-0.006630566,-0.29205692,-0.58715874,-0.10160366
0.049188767,-0.031753436,-0.0064241537,-0.28296506,-0.56888026,-0.09844069
0.04765751,-0.030764945,-0.0062241685,-0.2741563,-0.5511709,-0.09537621
0.04617393,-0.029807232,-0.00603041,-0.26562184,-0.534013,-0.09240715
0.044736546,-0.028879339,-0.005842685,-0.25735307,-0.51738924,-0.089530535
0.043343917,-0.027980337,-0.005660804,-0.24934177,-0.5012831,-0.08674349
0.041994642,-0.027109325,-0.0054845866,-0.2415799,-0.48567846,-0.08404321
0.040687382,-0.026265431,-0.0053138556,-0.2340597,-0.47055966,-0.08142701
0.03942082,-0.025447812,-0.0051484397,-0.22677363,-0.45591155,-0.07889226
0.03819369,-0.024655648,-0.0049881744,-0.2197144,-0.4417195,-0.07643642
0.037004765,-0.023888147,-0.0048328983,-0.21287495,-0.42796928,-0.07405705
0.035852857,-0.02314454,-0.0046824566,-0.20624843,-0.41464716,-0.07175175
0.03473681,-0.022424083,-0.004536698,-0.19982821,-0.40173978,-0.069518216
0.033655506,-0.021726055,-0.004395478,-0.19360787,-0.38923424,-0.067354225
0.032607865,-0.02104976,-0.0042586536,-0.18758118,-0.37711802,-0.065257594
0.03159284,-0.020394517,-0.004126089,-0.1817421,-0.365379,-0.06322624
0.03060941,-0.019759674,-0.003997652,-0.1760848,-0.35400543,-0.061258126
0.029656598,-0.019144593,-0.0038732125,-0.17060362,-0.3429859,-0.059351277
0.028733449,-0.01854866,-0.0037526472,-0.16529307,-0.33230945,-0.05750379
0.027839037,-0.01797128,-0.0036358351,-0.16014785,-0.32196534,-0.055713817
0.026972467,-0.01741187,-0.0035226594,-0.15516278,-0.31194326,-0.05397957
0.026132874,-0.016869878,-0.003413007,-0.15033291,-0.30223316,-0.052299302
0.025319418,-0.016344758,-0.0033067677,-0.1456534,-0.29282534,-0.050671346
0.024531282,-0.015835984,-0.0032038358,-0.14111954,-0.28371036,-0.049094066
0.023767684,-0.015343049,-0.0031041082,-0.13672684,-0.27487916,-0.047565885
0.023027854,-0.014865457,-0.0030074848,-0.13247086,-0.26632282,-0.046085276
0.022311054,-0.014402732,-0.0029138695,-0.12834738,-0.2580329,-0.044650756
0.021616569,-0.013954412,-0.0028231682,-0.124352254,-0.25000098,-0.043260895
