ax,ay,az,gx,gy,gz
-0.49636814,0.25272956,0.35273048,-2.9963908,25.080227,-34.124855
-0.49905154,0.016054332,0.25994784,-1.5396451,25.460815,-35.48857
-0.45831597,0.029286576,0.21472147,-4.7307,21.473654,-32.26481
-0.31796384,-0.10444855,0.3063477,-6.2919116,18.801664,-27.533703
-0.07765002,-0.23024246,0.45840347,-9.012607,20.547312,-23.835226
-0.025247637,-0.46221918,0.47836098,-9.389823,22.95481,-21.5271
-0.06132229,-0.63602966,0.43392128,-8.624545,24.983704,-20.336313
-0.15641071,-0.79599833,0.3433262,-8.913633,26.193022,-19.583158
-0.2523757,-1.0211864,0.19331425,-10.05243,25.149038,-18.294186
-0.18428789,-1.3373736,0.07562174,-9.911295,23.83684,-15.292754
-0.033155087,-1.6544747,-0.022468574,-9.709793,23.315725,-10.433414
0.11650632,-2.011194,-0.16354708,-8.237022,23.484007,-4.533869
0.23222603,-2.2013333,-0.34379748,-6.133294,24.282703,0.5024151
0.2532295,-2.313017,-0.5471854,-2.1675403,23.779362,4.3274283
0.20959444,-2.354867,-0.7750931,1.5972197,21.239616,8.375183
0.20099165,-2.330525,-0.9565831,4.401666,17.234081,12.726933
0.27035972,-2.3192375,-1.1050726,7.288483,13.297612,17.490408
0.38663048,-2.2873745,-1.2549078,10.678532,9.92503,22.590513
0.48423013,-2.0386446,-1.3990735,14.542771,6.8209376,25.089355
0.5207573,-1.6667931,-1.5169457,18.55287,3.4270709,26.141243
0.5231347,-1.2151625,-1.5863742,21.596527,-0.25656632,26.845425
0.50096875,-0.66813475,-1.5631579,23.120537,-4.123296,26.85547
0.46977305,-0.06266956,-1.4086707,22.814514,-7.3626237,25.990814
0.413782,0.5847749,-1.1270677,20.399574,-9.383641,23.343712
0.30324766,1.1796799,-0.75013226,17.049944,-10.532508,19.24727
0.20664392,1.6139677,-0.385586,12.902662,-10.852028,14.26904
0.14970064,1.8483354,-0.09499952,8.174603,-10.572273,9.160665
0.1328171,1.8684734,0.11154515,3.2143803,-9.7498665,4.256409
0.15922314,1.6495162,0.21142991,0.02173581,-8.2155485,-0.35575178
0.2569165,1.1842774,0.21018785,-1.3289567,-6.276875,-4.127384
0.36062288,0.63920414,0.1525305,-1.5115155,-4.434538,-6.39322
0.45674586,0.06995548,0.050908256,-0.99555683,-3.0198374,-6.9973216
0.55164504,-0.48572966,-0.08884024,0.13128729,-2.0684726,-5.8012915
0.64378625,-0.992834,-0.2618313,2.1848297,-1.5732999,-2.499044
0.71373665,-1.3370754,-0.45364478,4.6551805,-1.4174039,2.099236
0.74653935,-1.5012654,-0.6545897,7.2546387,-1.7489156,7.074011
0.75215447,-1.5043945,-0.8711004,9.948966,-2.7262106,11.571201
0.74317956,-1.4100915,-1.0949893,12.777355,-4.531209,15.3540125
0.7548133,-1.2428733,-1.3082856,15.634257,-7.041012,18.384092
0.76886135,-0.9692565,-1.4905188,18.22058,-9.81211,20.704697
0.74656373,-0.5327519,-1.6124045,20.278957,-12.669927,21.798046
0.684092,0.042144444,-1.644351,21.211105,-15.781958,21.561296
0.6105864,0.71617746,-1.5618751,20.580553,-18.791075,20.123919
0.50888103,1.4232376,-1.3683859,17.346727,-21.417696,16.723217
0.4038124,1.9852391,-1.0984102,13.152751,-23.511463,12.170813
0.3615283,2.345761,-0.83891845,8.634056,-24.849352,6.744518
0.39002025,2.425156,-0.65505475,4.0215483,-25.620117,1.177593
0.49184984,2.204787,-0.54166424,0.11764626,-25.934624,-4.5253696
0.6754191,1.710494,-0.44815478,-2.34399,-25.416641,-8.903417
0.86489725,1.0820569,-0.38298506,-3.938622,-24.443151,-11.513135
1.0042281,0.47988796,-0.35458717,-4.865933,-23.581684,-12.452604
1.1063826,-0.029576076,-0.33674616,-4.9361463,-22.745169,-12.030578
1.1563803,-0.38283762,-0.311432,-4.50412,-21.854828,-10.6479025
1.149582,-0.55903554,-0.27878693,-3.8670688,-20.843647,-8.675661
1.0937427,-0.5570136,-0.24245296,-3.3345728,-19.732592,-6.6817193
1.0211811,-0.48510307,-0.21029466,-3.077473,-18.454956,-4.668545
0.93804616,-0.36813375,-0.18575402,-3.441903,-17.01115,-2.8652387
0.8530319,-0.25099915,-0.1682286,-3.983183,-15.493499,-1.483134
0.78419614,-0.14603204,-0.16273266,-4.8161516,-13.87069,-0.6410728
0.7475779,-0.08065737,-0.16241564,-5.7726145,-12.239943,-0.067495905
0.72329485,-0.07803743,-0.15714,-5.585107,-11.842361,-0.06530349
0.6998619,-0.07550921,-0.15204905,-5.404163,-11.458698,-0.063187815
0.67724365,-0.073068894,-0.14713511,-5.2295103,-11.088373,-0.0611457
0.65540665,-0.07071287,-0.14239089,-5.0608907,-10.730842,-0.059174124
0.6343194,-0.06843773,-0.13780957,-4.89806,-10.385584,-0.05727024
0.613952,-0.06624026,-0.13338463,-4.7407875,-10.052113,-0.055431344
0.5942761,-0.064117394,-0.12910992,-4.588855,-9.729962,-0.05365488
0.5752647,-0.062066227,-0.12497959,-4.442054,-9.418694,-0.05193842
0.5568924,-0.060084008,-0.1209881,-4.3001876,-9.117887,-0.050279655
0.53913486,-0.058168117,-0.11713017,-4.163068,-8.827146,-0.04867639
0.5219689,-0.056316055,-0.11340077,-4.0305166,-8.546092,-0.047126547
0.5053726,-0.054525454,-0.10979512,-3.902364,-8.2743635,-0.04562813
0.48932487,-0.05279404,-0.10630867,-3.7784474,-8.011618,-0.044179242
0.47380576,-0.051119655,-0.10293704,-3.6586125,-7.757526,-0.042778082
0.45879605,-0.049500234,-0.0996761,-3.5427113,-7.511775,-0.041422915
0.4442775,-0.047933806,-0.09652186,-3.4306026,-7.274066,-0.04011209
0.4302326,-0.04641848,-0.09347053,-3.3221512,-7.0441117,-0.03884403
0.41664463,-0.044952452,-0.09051846,-3.2172282,-6.8216386,-0.037617225
0.40349752,-0.04353399,-0.087662175,-3.1157093,-6.6063833,-0.036430225
0.3907759,-0.042161435,-0.08489833,-3.0174763,-6.398095,-0.03528164
0.37846506,-0.040833198,-0.08222373,-2.922415,-6.1965322,-0.034170143
0.36655086,-0.039547756,-0.0796353,-2.8304164,-6.0014634,-0.033094455
0.3550197,-0.03830364,-0.07713009,-2.7413754,-5.812666,-0.032053348
0.34385854,-0.037099443,-0.07470526,-2.6551917,-5.629926,-0.031045651
0.33305484,-0.03593382,-0.072358094,-2.5717683,-5.45304,-0.03007023
0.3225966,-0.03480546,-0.07008598,-2.4910123,-5.2818093,-0.029125996
0.3124722,-0.033713125,-0.0678864,-2.4128342,-5.1160445,-0.028211903
0.30267048,-0.0326556,-0.06575692,-2.3371477,-4.955563,-0.027326943
0.29318073,-0.031631738,-0.063695215,-2.2638702,-4.800189,-0.02647015
0.28399262,-0.030640416,-0.06169904,-2.1929216,-4.6497536,-0.02564059
0.27509615,-0.029680561,-0.059766233,-2.1242254,-4.5040936,-0.024837364
0.26648176,-0.02875114,-0.057894707,-2.057707,-4.363052,-0.024059603
0.25814018,-0.027851155,-0.05608245,-1.9932956,-4.226477,-0.023306476
0.25006253,-0.026979642,-0.05432753,-1.9309218,-4.094223,-0.022577174
0.24224015,-0.026135676,-0.052628074,-1.8705193,-3.966149,-0.021870922
0.23466478,-0.025318356,-0.05098228,-1.8120242,-3.842119,-0.021186972
0.2273284,-0.024526823,-0.049388412,-1.7553746,-3.722002,-0.020524599
0.2202233,-0.023760242,-0.047844786,-1.7005106,-3.6056716,-0.019883106
0.21334198,-0.023017807,-0.046349782,-1.6473747,-3.4930053,-0.01926182
0.20667727,-0.02229874,-0.044901833,-1.5959115,-3.3838851,-0.018660089
0.2002222,-0.021602292,-0.043499433,-1.546067,-3.2781975,-0.018077284
0.19397002,-0.020927735,-0.04214111,-1.4977893,-3.175832,-0.0175128
0.18791427,-0.020274369,-0.040825464,-1.4510282,-3.0766823,-0.01696605
0.18204865,-0.019641519,-0.039551124,-1.4057353,-2.980646,-0.016436467
0.1763671,-0.019028528,-0.038316775,-1.3618637,-2.887623,-0.015923502
0.17086376,-0.018434763,-0.037121143,-1.3193684,-2.797518,-0.0154266255
0.16553296,-0.017859614,-0.035962995,-1.2782052,-2.7102377,-0.014945328
0.1603692,-0.017302489,-0.03484114,-1.2383319,-2.6256926,-0.014479113
0.1553672,-0.016762814,-0.033754423,-1.1997076,-2.5437958,-0.014027501
0.15052181,-0.016240038,-0.03270174,-1.1622927,-2.4644635,-0.01359003
0.1458281,-0.015733626,-0.031682,-1.126049,-2.387614,-0.013166253
0.14128125,-0.015243059,-0.03069417,-1.0909394,-2.3131695,-0.012755736
0.13687663,-0.014767838,-0.029737242,-1.0569279,-2.2410533,-0.012358059
0.13260974,-0.014307476,-0.028810235,-1.0239801,-2.1711926,-0.0119728185
0.12847625,-0.013861506,-0.027912209,-0.9920622,-2.1035156,-0.011599622
0.12447193,-0.013429475,-0.02704225,-0.96114194,-2.0379539,-0.011238088
0.12059274,-0.013010943,-0.026199473,-0.93118775,-1.9744407,-0.01088785
0.11683473,-0.0126054855,-0.025383022,-0.9021693,-1.9129115,-0.010548554
0.113194086,-0.01221269,-0.024592072,-0.8740572,-1.8533039,-0.010219854
0.10966712,-0.011832161,-0.023825819,-0.8468228,-1.7955577,-0.009901419
0.10625027,-0.011463511,-0.023083488,-0.8204387,-1.7396142,-0.009592924
0.10294007,-0.011106368,-0.022364326,-0.7948781,-1.6854169,-0.009294059
0.099733174,-0.010760371,-0.021667609,-0.77011526,-1.6329111,-0.009004521
0.09662634,-0.01042517,-0.020992633,-0.74612504,-1.5820436,-0.008724017
0.09361644,-0.010100427,-0.020338714,-0.72288334,-1.5327631,-0.008452265
0.090700425,-0.009785813,-0.019705193,-0.7003666,-1.4850198,-0.00818899
0.087875366,-0.009481013,-0.019091433,-0.67855215,-1.4387656,-0.007933926
0.08513841,-0.009185718,-0.018496813,-0.657418,-1.393954,-0.0076868166
0.08248679,-0.008899632,-0.017920734,-0.6369429,-1.3505397,-0.0074474127
0.079917856,-0.008622465,-0.017362617,-0.6171062,-1.308479,-0.0072154733
0.07742901,-0.008353939,-0.0168219,-0.59788793,-1.2677295,-0.0069907648
0.07501774,-0.008093784,-0.016298039,-0.57926875,-1.2282504,-0.0067730607
0.072681636,-0.007841738,-0.015790507,-0.5612299,-1.1900018,-0.006562143
0.07041834,-0.007597547,-0.015298793,-0.54375327,-1.1529453,-0.006357799
0.068225585,-0.007360967,-0.014822403,-0.5268213,-1.1170437,-0.006159823
0.066101156,-0.0071317586,-0.014360859,-0.510417,-1.0822608,-0.0059680166
0.064042926,-0.006909693,-0.013913697,-0.49452385,-1.0485619,-0.005782187
0.062048826,-0.0066945464,-0.013480467,-0.4791259,-1.0159129,-0.0056021474
0.060116854,-0.0064861034,-0.013060736,-0.4642077,-0.9842811,-0.005427717
0.058245074,-0.0062841536,-0.01265408,-0.44975427,-0.95363486,-0.0052587218
0.056431603,-0.0060884957,-0.012260093,-0.43575108,-0.9239433,-0.0050949906
0.054674625,-0.0058989325,-0.01187838,-0.42218414,-0.89517665,-0.00493636
0.05297238,-0.0057152743,-0.011508556,-0.4090398,-0.86730605,-0.0047826706
0.051323153,-0.0055373367,-0.011150252,-0.39630488,-0.8403036,-0.004633768
0.049725294,-0.0053649414,-0.010803108,-0.3839666,-0.8141422,-0.004489504
0.048177205,-0.0051979152,-0.010466777,-0.37201262,-0.78879565,-0.004349733
0.04667733,-0.005036091,-0.01014092,-0.36043093,-0.7642385,-0.0042143147
0.04522416,-0.004879307,-0.009825211,-0.34920996,-0.7404461,-0.004083114
0.04381625,-0.004727405,-0.009519335,-0.3383384,-0.71739465,-0.0039559994
0.042452186,-0.004580234,-0.009222983,-0.32780543,-0.6950611,-0.0038328432
0.0411306,-0.004437646,-0.008935861,-0.31760046,-0.673423,-0.003713522
0.039850164,-0.0042994977,-0.008657679,-0.30771327,-0.6524587,-0.0035979166
0.0386096,-0.0041656513,-0.00838816,-0.29813394,-0.63214725,-0.003485911
0.03740767,-0.004035973,-0.008127033,-0.2888529,-0.61246824,-0.0033773931
0.03624316,-0.0039103325,-0.007874036,-0.27986085,-0.59340197,-0.0032722543
0.03511491,-0.0037886037,-0.0076289177,-0.27114877,-0.57492936,-0.003170389
0.03402179,-0.0036706652,-0.0073914314,-0.26270798,-0.5570319,-0.0030716953
0.032962706,-0.003556399,-0.007161339,-0.25452998,-0.53969175,-0.0029760748
0.031936597,-0.0034456903,-0.0069384105,-0.2466066,-0.52289146,-0.0028834313
0.030942433,-0.0033384284,-0.006722423,-0.23892993,-0.5066142,-0.0027936723
0.029979223,-0.0032345061,-0.0065131597,-0.23149225,-0.49084377,-0.0027067077
0.029046,-0.0031338192,-0.006310412,-0.22428614,-0.4755643,-0.0026224507
0.028141832,-0.0030362671,-0.0061139762,-0.21730438,-0.46076056,-0.0025408168
0.027265813,-0.002941752,-0.0059236563,-0.21053997,-0.4464177,-0.0024617244
0.026417067,-0.0028501796,-0.0057392614,-0.20398617,-0.43252134,-0.0023850945
0.025594745,-0.0027614578,-0.0055606067,-0.19763638,-0.4190576,-0.0023108502
0.024798023,-0.0026754981,-0.0053875144,-0.19148429,-0.40601304,-0.0022389172
0.024026103,-0.0025922146,-0.00521981,-0.18552372,-0.39337456,-0.0021692237
0.023278216,-0.0025115237,-0.005057327,-0.1797487,-0.38112953,-0.0021016996
0.02255361,-0.0024333447,-0.0048999023,-0.17415348,-0.3692657,-0.002036278
0.02185156,-0.0023575998,-0.004747378,-0.16873242,-0.3577712,-0.0019728926
0.021171367,-0.0022842125,-0.0045996024,-0.16348013,-0.34663454,-0.0019114806
0.020512348,-0.00221311,-0.0044564265,-0.15839136,-0.33584455,-0.0018519803
0.019873844,-0.0021442208,-0.004317708,-0.15346098,-0.32539046,-0.0017943323
0.019255217,-0.0020774761,-0.0041833078,-0.1486841,-0.31526178,-0.0017384788
0.018655848,-0.002012809,-0.004053091,-0.1440559,-0.30544844,-0.001684364
0.018075136,-0.0019501552,-0.003926928,-0.13957179,-0.29594055,-0.0016319338
0.017512502,-0.0018894516,-0.0038046925,-0.13522726,-0.28672865,-0.0015811358
0.01696738,-0.0018306378,-0.0036862618,-0.13101798,-0.2778035,-0.001531919
0.01643923,-0.0017736547,-0.003571518,-0.12693973,-0.2691562,-0.0014842342
