ax,ay,az,gx,gy,gz
-4.128219,1.6836517,-6.6382422,15.203775,-21.80656,29.242085
-4.281537,1.7500465,-6.9840417,29.043343,-32.035088,19.87518
-4.181505,1.8262986,-6.964638,38.888805,-41.466007,10.65132
-4.0095267,1.8629466,-6.7918925,46.118267,-48.049618,2.0969288
-3.7367432,1.9768038,-6.4704995,50.338036,-52.225517,-4.0612326
-3.511885,2.119323,-6.168563,52.189034,-54.26923,-8.449656
-3.410137,2.2293198,-5.9718046,52.153633,-56.498028,-12.060989
-3.368273,2.2883425,-5.8665214,50.731018,-59.79876,-15.09368
-3.2946038,2.294712,-5.8024926,48.829006,-63.890167,-17.774609
-3.1705658,2.2598,-5.7236967,47.94599,-68.01387,-20.247862
-3.006535,2.2712915,-5.55443,47.470383,-71.661224,-22.503832
-2.8608902,2.348115,-5.317472,46.87219,-74.80519,-24.8927
-2.7615728,2.4621825,-5.0622644,45.55624,-77.61076,-27.897762
-2.6900601,2.5284584,-4.871559,43.240444,-80.91181,-31.008656
-2.6192904,2.4734957,-4.7551556,41.69806,-84.56796,-34.197166
-2.4776464,2.3851564,-4.607968,41.546265,-88.06904,-37.58504
-2.2543702,2.3287494,-4.3691573,42.319717,-91.298096,-41.051315
-1.9335573,2.2954602,-4.0320997,42.436817,-93.91276,-43.900192
-1.5252647,2.2169063,-3.6456146,40.957527,-95.18309,-44.92022
-1.0827532,2.0705283,-3.233487,39.067627,-95.36194,-44.906708
-0.6563801,1.926383,-2.7895033,37.21761,-94.51771,-44.4582
-0.2669445,1.7956411,-2.3390334,35.726494,-92.87833,-43.807587
0.067883484,1.6522821,-1.9140754,34.192326,-90.99653,-42.900776
0.37616894,1.4826536,-1.5122114,32.311584,-88.453354,-41.431526
0.6714521,1.3142233,-1.1306257,30.358334,-85.18182,-39.67662
0.9237804,1.1639019,-0.7918084,28.489698,-81.411224,-37.777927
1.1267276,1.0291852,-0.49265677,26.602264,-77.49268,-35.681152
1.2963227,0.90407974,-0.22060841,24.389664,-73.43564,-33.238297
1.436654,0.77837276,0.02031723,21.893738,-68.809166,-30.55579
1.5331475,0.65444547,0.19152635,19.764208,-63.960278,-28.14311
1.6071912,0.5452987,0.31595638,18.078653,-58.826553,-26.054924
1.5417961,0.523111,0.3031004,17.34305,-56.432957,-24.994774
1.4800924,0.50217575,0.29097012,16.64897,-54.174473,-23.994465
1.4217703,0.48238787,0.27950466,15.9929285,-52.039764,-23.04898
1.3665557,0.46365425,0.26865005,15.3718405,-50.01879,-22.15387
1.3142041,0.44589207,0.2583583,14.782959,-48.102615,-21.305174
1.2644979,0.42902738,0.24858658,14.223833,-46.28326,-20.499363
1.2172416,0.41299397,0.23929653,13.692266,-44.553585,-19.73327
1.1722603,0.39773238,0.23045367,13.186289,-42.907173,-19.004057
1.1293957,0.38318902,0.22202696,12.704123,-41.33824,-18.309158
1.0885051,0.36931542,0.21398832,12.244162,-39.841564,-17.646263
1.0494593,0.35606766,0.20631234,11.804951,-38.412403,-17.013273
1.0121406,0.34340593,0.19897589,11.385167,-37.046463,-16.408283
0.97644204,0.33129385,0.19195792,10.983607,-35.73982,-15.829556
0.9422657,0.31969827,0.18523923,10.599172,-34.48889,-15.275507
0.90952206,0.30858877,0.17880218,10.230851,-33.290405,-14.744684
0.878129,0.29793754,0.17263065,9.877724,-32.141354,-14.235758
0.8480111,0.28771892,0.16670978,9.5389385,-31.038977,-13.747502
0.81909865,0.27790934,0.16102593,9.213715,-29.980722,-13.2787895
0.79132754,0.26848695,0.15556641,8.901328,-28.96424,-12.828578
0.7646382,0.2594316,0.15031958,8.60111,-27.987354,-12.3959055
0.7389756,0.2507246,0.1452746,8.312442,-27.048048,-11.9798765
0.7142885,0.24234863,0.14042138,8.034746,-26.14445,-11.579662
0.69052935,0.23428746,0.13575058,7.7674894,-25.274815,-11.194492
0.6676537,0.22652607,0.13125348,7.5101705,-24.437521,-10.823645
0.6456202,0.21905039,0.12692194,7.262325,-23.631048,-10.46645
0.62439007,0.21184729,0.12274832,7.023515,-22.853981,-10.122278
0.603927,0.20490445,0.11872551,6.7933345,-22.10499,-9.790542
0.58419704,0.19821031,0.1148468,6.5713997,-21.382832,-9.47069
0.5651681,0.19175406,0.11110592,6.357351,-20.686333,-9.162203
0.54681015,0.18552545,0.10749695,6.1508493,-20.014393,-8.8645935
0.5290948,0.17951487,0.104014315,5.951577,-19.365976,-8.577402
0.51199543,0.17371328,0.100652754,5.759233,-18.740103,-8.300197
0.49548674,0.16811208,0.09740732,5.5735326,-18.135849,-8.032566
0.4795448,0.1627032,0.09427331,5.3942084,-17.552341,-7.7741237
0.46414706,0.15747894,0.09124628,5.2210054,-16.98875,-7.5245037
0.44927207,0.15243205,0.08832202,5.0536823,-16.444296,-7.283358
0.4348995,0.14755563,0.08549653,4.892011,-15.91823,-7.050358
0.42101005,0.14284314,0.08276601,4.7357745,-15.409847,-6.8251896
0.40758535,0.13828832,0.08012686,4.5847654,-14.918475,-6.607556
0.39460793,0.13388525,0.07757564,4.4387875,-14.443474,-6.3971725
0.38206112,0.12962829,0.07510908,4.297653,-13.984235,-6.1937704
0.36992908,0.12551203,0.072724044,4.161185,-13.540176,-5.9970922
0.35819662,0.121531375,0.070417576,4.029211,-13.110744,-5.806892
0.34684932,0.11768138,0.06818681,3.9015698,-12.695409,-5.6229353
0.3358733,0.11395737,0.06602905,3.778105,-12.293664,-5.4449983
0.32525536,0.11035484,0.06394168,3.6586683,-11.905026,-5.2728662
0.3149829,0.10686952,0.061922222,3.543117,-11.529031,-5.1063337
0.30504367,0.10349728,0.05996828,3.4313147,-11.1652355,-4.9452047
0.29542616,0.10023418,0.05807758,3.323131,-10.813214,-4.789291
0.28611916,0.097076446,0.05624793,3.2184405,-10.472559,-4.638411
0.27711204,0.09402045,0.054477226,3.117123,-10.1428795,-4.492392
0.2683945,0.0910627,0.05276345,3.0190628,-9.823799,-4.351068
0.2599567,0.08819986,0.051104665,2.924149,-9.514957,-4.2142787
0.2517891,0.08542871,0.04949901,2.8322754,-9.216007,-4.08187
0.24388269,0.08274616,0.04794469,2.743339,-8.926616,-3.9536955
0.23622864,0.08014925,0.04643999,2.6572418,-8.6464615,-3.8296125
0.22881857,0.07763511,0.04498325,2.5738888,-8.375237,-3.709484
0.22164433,0.07520098,0.043572873,2.4931886,-8.112645,-3.5931792
0.2146981,0.07284422,0.04220732,2.4150534,-7.858399,-3.4805708
0.20797239,0.07056228,0.040885117,2.3393986,-7.6122236,-3.3715372
0.20145991,0.068352684,0.039604835,2.2661424,-7.3738537,-3.2659605
0.1951537,0.066213064,0.038365103,2.1952062,-7.143033,-3.1637273
0.18904698,0.06414114,0.037164588,2.1265142,-6.9195147,-3.0647287
0.18313329,0.062134698,0.036002018,2.0599933,-6.7030606,-2.9688587
0.17740631,0.060191613,0.03487616,1.9955729,-6.4934416,-2.8760164
0.17186002,0.05830983,0.03378582,1.933185,-6.290436,-2.7861028
0.16648857,0.056487367,0.03272985,1.8727636,-6.093829,-2.6990237
0.16128631,0.05472231,0.03170714,1.8142455,-5.9034157,-2.6146874
0.1562478,0.053012807,0.030716622,1.7575692,-5.7189956,-2.5330055
0.15136775,0.051357076,0.029757261,1.7026756,-5.540376,-2.4538932
0.14664112,0.049753394,0.028828057,1.6495076,-5.3673716,-2.3772674
0.14206298,0.04820009,0.027928043,1.59801,-5.199802,-2.303049
0.13762859,0.046695556,0.027056288,1.5481291,-5.0374937,-2.2311609
0.13333334,0.045238238,0.02621189,1.4998137,-4.8802786,-2.1615288
0.12917282,0.04382663,0.025393976,1.4530135,-4.727995,-2.0940807
0.12514274,0.04245927,0.024601705,1.4076807,-4.5804853,-2.028747
0.12123894,0.041134767,0.023834262,1.3637686,-4.437598,-1.9654609
0.117457435,0.03985175,0.023090858,1.3212318,-4.299187,-1.904157
0.11379433,0.03860891,0.022370731,1.280027,-4.16511,-1.8447728
0.11024588,0.03740497,0.021673147,1.2401121,-4.0352297,-1.7872473
0.10680847,0.0362387,0.020997388,1.2014459,-3.909413,-1.7315218
0.10347858,0.035108913,0.020342767,1.1639893,-3.787532,-1.6775395
0.10025282,0.034014456,0.019708619,1.127704,-3.6694624,-1.6252451
0.0971279,0.032954212,0.019094292,1.092553,-3.555084,-1.5745856
0.09410065,0.031927105,0.018499168,1.0585006,-3.4442801,-1.5255094
0.09116798,0.03093209,0.017922638,1.0255123,-3.3369384,-1.4779665
0.08832693,0.029968157,0.017364116,0.9935544,-3.23295,-1.431909
0.085574605,0.029034331,0.01682304,0.9625947,-3.1322093,-1.3872898
0.08290823,0.028129663,0.016298858,0.93260163,-3.0346143,-1.3440638
0.08032509,0.027253238,0.015791042,0.9035449,-2.9400659,-1.3021873
0.07782258,0.02640417,0.015299076,0.8753952,-2.848469,-1.261618
0.07539817,0.0255816,0.014822463,0.84812397,-2.7597303,-1.2223148
0.07304941,0.024784697,0.014360722,0.8217037,-2.673761,-1.184238
0.07077392,0.024012655,0.0139133865,0.7961077,-2.5904734,-1.147349
0.06856942,0.023264699,0.013480006,0.77131015,-2.5097842,-1.1116108
0.06643368,0.022540068,0.013060142,0.747286,-2.4316115,-1.0769873
0.064364545,0.021838037,0.012653372,0.7240111,-2.3558767,-1.0434436
0.06235993,0.021157898,0.012259286,0.701462,-2.2825036,-1.0109458
0.060417812,0.020498965,0.011877487,0.6796159,-2.2114182,-0.97946125
0.058536246,0.019860573,0.011507591,0.6584509,-2.1425488,-0.9489583
0.05671333,0.019242084,0.011149227,0.6379457,-2.0758264,-0.9194062
0.05494724,0.01864287,0.0108020315,0.6180796,-2.0111837,-0.89077526
0.05323619,0.018062335,0.010465658,0.5988327,-1.9485557,-0.86303663
0.051578466,0.01749989,0.010139767,0.5801856,-1.8878796,-0.8361625
0.0499724,0.016954973,0.009824033,0.5621196,-1.8290942,-0.8101258
0.04841638,0.016427036,0.009518136,0.5446166,-1.7721406,-0.7849005
0.046908844,0.01591555,0.009221771,0.5276589,-1.7169616,-0.7604611
0.045448277,0.015419998,0.008934638,0.5112296,-1.6635019,-0.73678315
0.04403321,0.014939886,0.008656452,0.49531206,-1.6117076,-0.71384287
0.042662233,0.01447473,0.008386932,0.47989044,-1.5615268,-0.69161725
0.04133396,0.014024065,0.008125808,0.46494922,-1.5129092,-0.670084
0.04004706,0.013587438,0.007872818,0.45047343,-1.465806,-0.64922154
0.038800247,0.01316441,0.007627708,0.4364485,-1.4201701,-0.6290088
0.03759227,0.012754559,0.0073902328,0.42286044,-1.3759556,-0.6094257
0.036421914,0.012357473,0.0071601532,0.4096956,-1.3331181,-0.59045255
0.03528801,0.011972754,0.00693724,0.39694074,-1.2916148,-0.5720703
0.034189418,0.011600017,0.006721269,0.38458315,-1.251404,-0.55426055
0.03312504,0.011238887,0.0065120235,0.37261036,-1.2124456,-0.5370054
0.032093808,0.010889004,0.0063092946,0.36101043,-1.1747004,-0.52028763
0.031094687,0.010550016,0.0061128787,0.34977177,-1.1381305,-0.5040904
0.030126682,0.010221584,0.005922579,0.33888304,-1.1026994,-0.48839763
0.029188817,0.009903379,0.0057382053,0.32833338,-1.0683717,-0.4731935
0.028280156,0.009595083,0.0055595725,0.31811222,-1.0351127,-0.45846277
0.02739979,0.009296386,0.0053865016,0.30820933,-1.0028895,-0.44419074
0.026546834,0.009006989,0.0052188197,0.29861477,-0.97166955,-0.4303631
0.025720436,0.008726603,0.0050563593,0.28931895,-0.9414217,-0.41696596
0.024919769,0.008454948,0.0048989565,0.28031257,-0.91211563,-0.40398598
0.024144031,0.00819175,0.004746455,0.2715866,-0.88372195,-0.3914101
0.023392446,0.007936747,0.0045987014,0.2631323,-0.8562124,-0.37922582
0.02266426,0.007689683,0.004455548,0.25494123,-0.8295592,-0.36742085
0.021958744,0.0074503114,0.0043168515,0.24700518,-0.8037359,-0.35598344
0.021275194,0.007218392,0.004182473,0.2393162,-0.77871656,-0.34490207
0.020612925,0.006993693,0.0040522777,0.2318666,-0.75447613,-0.33416572
0.019971274,0.006775989,0.003926136,0.22464891,-0.73099035,-0.3237636
0.0193496,0.006565063,0.0038039216,0.21765594,-0.70823574,-0.31368536
0.018747278,0.006360703,0.0036855119,0.21088067,-0.68618953,-0.30392084
0.018163709,0.006162706,0.0035707883,0.20431632,-0.6648297,-0.29446033
0.017598305,0.005970872,0.0034596361,0.19795632,-0.6441347,-0.28529432
0.017050505,0.0057850103,0.0033519443,0.19179432,-0.62408406,-0.27641365
0.016519755,0.0056049344,0.003247605,0.18582416,-0.6046576,-0.26780945
0.016005531,0.0054304646,0.0031465138,0.18003984,-0.5858358,-0.2594731
0.0155073125,0.005261426,0.0030485697,0.17443559,-0.5676,-0.25139627
0.015024604,0.0050976495,0.0029536744,0.1690058,-0.5499319,-0.24357085
0.014556923,0.0049389713,0.0028617333,0.16374503,-0.5328138,-0.23598905
0.0141038,0.0047852327,0.0027726544,0.15864803,-0.51622856,-0.22864327
0.013664783,0.00463628,0.0026863483,0.1537097,-0.5001596,-0.22152615
0.013239432,0.004491964,0.0026027288,0.1489251,-0.48459086,-0.21463059
0.012827322,0.0043521402,0.0025217123,0.14428943,-0.46950677,-0.20794968
0.01242804,0.0042166696,0.002443218,0.13979807,-0.45489222,-0.20147674
