ax,ay,az,gx,gy,gz
-2.8272984,2.483659,-2.9627542,8.045528,-30.683914,0.77637064
-2.9348378,2.627238,-2.652215,7.788937,-37.089577,-3.2866397
-2.8075628,2.5806253,-2.4941173,9.453262,-42.027042,-6.070831
-2.653196,2.3155904,-2.4752386,12.009969,-46.814735,-7.9017887
-2.5063605,1.9786694,-2.5335946,14.854759,-50.69228,-9.570068
-2.3750672,1.6654516,-2.574372,18.759865,-53.706963,-11.774052
-2.1685314,1.47556,-2.5299308,22.380589,-55.589256,-13.813332
-1.9085879,1.4037344,-2.4134474,24.292894,-56.30426,-15.222128
-1.6283581,1.367451,-2.262635,24.44378,-55.889156,-15.823251
-1.4015578,1.313923,-2.1564212,24.148481,-55.070408,-16.03308
-1.2570224,1.214592,-2.1472409,24.435163,-55.290874,-16.370728
-1.1450213,1.0798836,-2.1857305,25.017029,-56.190666,-16.642996
-1.0463347,0.95763916,-2.1965747,25.687939,-57.694614,-16.311829
-0.9746149,0.8846953,-2.1437552,26.045967,-59.466667,-15.8112545
-0.9016849,0.85057116,-2.042608,26.00829,-61.10505,-15.629833
-0.8039,0.81802016,-1.9287057,25.5464,-62.341667,-15.502937
-0.67947716,0.7477612,-1.8449874,24.620626,-63.415073,-15.192472
-0.5720732,0.6222622,-1.790512,23.582449,-64.53329,-14.611466
-0.49133465,0.46937445,-1.7290312,22.992655,-65.68789,-13.706053
-0.4289469,0.34283027,-1.6533833,23.187704,-66.67113,-12.97207
-0.3706474,0.2565412,-1.5696975,24.07354,-67.604706,-12.570183
-0.29381004,0.23253787,-1.4420528,25.092094,-68.43254,-12.085738
-0.20811497,0.27712145,-1.2582827,25.376936,-68.97468,-11.432568
-0.12988184,0.33662695,-1.0541949,24.958164,-69.12915,-10.809888
-0.06520958,0.37601992,-0.8682072,24.032955,-68.98277,-10.210924
-0.01360402,0.38206467,-0.7179327,22.864666,-68.63569,-9.584763
0.029649224,0.35409993,-0.5815486,21.741705,-68.158775,-8.889374
0.069618344,0.32945448,-0.4435346,20.989155,-67.48811,-8.318301
0.11011484,0.31526688,-0.3057502,20.429619,-66.579414,-7.9522023
0.15311609,0.30964246,-0.17572953,19.99759,-65.40777,-7.742819
0.19253828,0.31127244,-0.051744472,19.609217,-64.02344,-7.5460224
0.21957463,0.3272115,0.07828747,19.2509,-62.650166,-7.3358216
0.24392422,0.35433704,0.21150476,18.793108,-61.23963,-7.169263
0.27107674,0.37713885,0.33876067,18.175245,-59.74524,-7.0310616
0.30163705,0.39018208,0.45624638,17.467037,-58.126617,-6.8623204
0.33022955,0.3977986,0.56250644,16.648254,-56.248222,-6.8168736
0.35684782,0.39088473,0.65235317,15.896223,-54.254673,-6.803754
0.3826772,0.38931942,0.73904186,15.174422,-52.25217,-6.793561
0.4123998,0.39189437,0.8254377,14.46257,-50.208485,-6.790621
0.44317353,0.39189824,0.90809685,13.777527,-48.05566,-6.7722054
0.4744127,0.38690555,0.9859355,13.075408,-45.65281,-6.6043487
0.51285166,0.3750715,1.0605855,12.221052,-43.06063,-6.0915956
0.5584092,0.34829232,1.1305821,11.230849,-40.14253,-5.1022973
0.61295813,0.3373482,1.2000796,9.982245,-36.836575,-3.6586683
0.59150404,0.3255407,1.1580757,9.632858,-35.54726,-3.5306115
0.5709493,0.31422818,1.1178327,9.298117,-34.311996,-3.407923
0.5512425,0.30338228,1.0792496,8.977183,-33.127686,-3.2902954
0.532336,0.29297695,1.0422337,8.669286,-31.991478,-3.1774454
0.5141864,0.28298807,1.0066993,8.373712,-30.90075,-3.0691123
0.4967531,0.27339348,0.9725677,8.089805,-29.853073,-2.9650555
0.47999898,0.26417267,0.93976563,7.816958,-28.84621,-2.8650522
0.46388936,0.25530657,0.9082254,7.554607,-27.87808,-2.7688959
0.44839212,0.24677749,0.8778842,7.302229,-26.946753,-2.676395
0.4334774,0.238569,0.8486834,7.059337,-26.05043,-2.5873709
0.4191173,0.23066577,0.8205685,6.8254776,-25.18744,-2.5016572
0.40528587,0.22305349,0.7934886,6.6002274,-24.35622,-2.419099
0.3919587,0.21571875,0.7673961,6.38319,-23.555307,-2.3395512
0.3791131,0.20864902,0.7422463,6.1739945,-22.783333,-2.2628775
0.36672765,0.20183256,0.7179975,5.9722934,-22.039013,-2.1889503
0.3547823,0.19525832,0.6946103,5.777759,-21.32114,-2.11765
0.34325817,0.18891588,0.67204773,5.590084,-20.62858,-2.048864
0.33213747,0.18279546,0.65027505,5.4089794,-19.960266,-1.9824858
0.32140338,0.17688785,0.62925935,5.234171,-19.315186,-1.9184154
0.31104007,0.1711843,0.60896957,5.0654006,-18.692389,-1.8565583
0.30103257,0.16567656,0.58937645,4.9024253,-18.090975,-1.7968248
0.2913667,0.16035685,0.5704521,4.7450128,-17.51009,-1.7391304
0.28202897,0.15521772,0.5521702,4.5929446,-16.948927,-1.6833948
0.27300665,0.1502522,0.5345059,4.4460125,-16.406717,-1.6295416
0.2642876,0.14545356,0.5174353,4.3040195,-15.882733,-1.5774988
0.2558603,0.1408155,0.5009359,4.166778,-15.376283,-1.5271972
0.24771376,0.13633198,0.4849862,4.0341086,-14.886705,-1.4785717
0.23983754,0.13199721,0.46956578,3.9058416,-14.413373,-1.4315596
0.2322217,0.12780574,0.45465508,3.7818148,-13.9556875,-1.3861015
0.22485669,0.12375233,0.4402355,3.661873,-13.513078,-1.3421407
0.21773346,0.11983198,0.4262893,3.5458684,-13.084997,-1.299623
0.21084331,0.11603991,0.41279942,3.4336598,-12.670923,-1.2584966
0.20417795,0.11237156,0.39974964,3.3251119,-12.270359,-1.2187119
0.19772941,0.10882254,0.3871244,3.2200954,-11.882826,-1.1802214
0.19149011,0.10538867,0.37490878,3.1184862,-11.507867,-1.1429799
0.18545274,0.10206594,0.36308852,3.0201654,-11.145042,-1.1069436
0.17961033,0.0988505,0.35164994,2.9250195,-10.793934,-1.072071
0.17395613,0.09573865,0.34057987,2.8329387,-10.454137,-1.0383217
0.16848372,0.09272685,0.32986572,2.7438185,-10.125265,-1.0056577
0.16318691,0.08981169,0.31949535,2.657558,-9.806946,-0.97404164
0.15805975,0.0869899,0.30945715,2.5740604,-9.498821,-0.9434383
0.15309651,0.08425833,0.2997399,2.4932323,-9.200549,-0.9138134
0.14829172,0.081613965,0.29033282,2.4149845,-8.9117985,-0.8851342
0.14364006,0.07905387,0.2812256,2.3392305,-8.632251,-0.85736907
0.13913645,0.076575264,0.27240822,2.2658877,-8.3616,-0.8304876
0.134776,0.07417544,0.26387107,2.194876,-8.099552,-0.8044606
0.13055395,0.07185179,0.25560495,2.1261184,-7.8458223,-0.77925974
0.12646577,0.06960181,0.24760091,2.059541,-7.600137,-0.7548579
0.12250706,0.0674231,0.23985036,1.995072,-7.362233,-0.7312289
0.11867359,0.0653133,0.232345,1.9326426,-7.1318555,-0.70834744
0.11496129,0.0632702,0.22507687,1.8721863,-6.9087596,-0.6861892
0.1113662,0.0612916,0.21803823,1.813639,-6.6927075,-0.66473055
0.10788453,0.05937543,0.21122167,1.7569389,-6.4834723,-0.6439489
0.104512624,0.057519663,0.20461996,1.7020261,-6.2808323,-0.62382245
0.10124692,0.05572235,0.19822621,1.6488429,-6.0845757,-0.6043299
0.09808401,0.053981606,0.19203371,1.5973338,-5.894496,-0.5854508
0.095020585,0.052295614,0.18603599,1.5474448,-5.7103953,-0.5671657
0.09205346,0.050662626,0.1802268,1.499124,-5.5320816,-0.5494553
0.089179546,0.049080934,0.17460011,1.4523213,-5.3593698,-0.53230125
0.08639587,0.04754891,0.16915008,1.4069881,-5.1920805,-0.51568586
0.08369954,0.046064954,0.16387108,1.3630775,-5.030041,-0.49959183
0.08108779,0.04462755,0.15875767,1.3205441,-4.873084,-0.4840026
0.078557916,0.04323521,0.15380456,1.2793443,-4.721048,-0.4689021
0.07610732,0.041886497,0.14900666,1.2394354,-4.5737762,-0.45427486
0.07373349,0.040580034,0.14435907,1.2007768,-4.4311175,-0.44010577
0.071434,0.03931448,0.139857,1.1633286,-4.292926,-0.42638034
0.069206476,0.038088538,0.13549584,1.1270525,-4.15906,-0.41308454
0.06704865,0.036900956,0.13127115,1.0919117,-4.029382,-0.40020478
0.06495832,0.03575052,0.12717861,1.0578699,-3.9037614,-0.3877279
0.06293336,0.03463606,0.123214036,1.0248927,-3.7820685,-0.37564114
0.060971703,0.033556443,0.1193734,0.9929464,-3.6641798,-0.36393225
0.059071355,0.032510564,0.11565281,0.9619985,-3.5499759,-0.35258934
0.057230383,0.031497367,0.11204847,0.9320176,-3.43934,-0.3416008
0.055446923,0.03051582,0.10855672,0.9029733,-3.3321605,-0.33095556
0.053719163,0.029564926,0.10517403,0.8748361,-3.2283282,-0.32064277
0.052045353,0.028643727,0.10189696,0.8475775,-3.1277382,-0.31065202
0.050423797,0.027751286,0.09872219,0.82116985,-3.0302887,-0.30097318
0.048852853,0.026886702,0.09564652,0.7955865,-2.9358807,-0.2915964
0.04733094,0.026049098,0.09266684,0.77080154,-2.844419,-0.2825123
0.045856513,0.025237633,0.089780144,0.74679,-2.7558115,-0.27371165
0.044428088,0.024451481,0.086983494,0.72352755,-2.6699681,-0.26518553
0.04304422,0.023689855,0.08427409,0.70099074,-2.5868025,-0.2569254
0.041703515,0.022951983,0.08164919,0.6791569,-2.506231,-0.24892291
0.04040462,0.022237124,0.07910615,0.6580039,-2.428172,-0.24116999
0.03914623,0.021544553,0.07664242,0.6375106,-2.3525474,-0.2336588
0.037927072,0.020873578,0.07425549,0.6176562,-2.2792807,-0.22638182
0.036745925,0.02022352,0.071942985,0.59842074,-2.208298,-0.21933171
0.035601597,0.019593727,0.069702566,0.579785,-2.1395278,-0.21250136
0.03449294,0.018983565,0.06753197,0.56173,-2.0729015,-0.20588392
0.033418834,0.01839242,0.06542904,0.54423785,-2.0083516,-0.19947273
0.032378204,0.017819697,0.06339164,0.5272908,-1.9458134,-0.19326134
0.031370003,0.017264822,0.061417736,0.5108719,-1.8852242,-0.1872435
0.030393215,0.016727237,0.059505336,0.49496457,-1.8265228,-0.1814132
0.029446865,0.016206402,0.057652522,0.4795529,-1.7696506,-0.17576455
0.028529998,0.015701795,0.055857435,0.4646214,-1.7145501,-0.1702919
0.027641697,0.015212909,0.054118276,0.45015508,-1.6611664,-0.16498974
0.02678107,0.014739253,0.052433293,0.43613943,-1.6094458,-0.15985276
0.025947249,0.014280352,0.050800804,0.4225604,-1.5593363,-0.1548758
0.025139404,0.013835745,0.04921916,0.40940434,-1.5107876,-0.15005387
0.024356721,0.013404987,0.04768679,0.39665806,-1.4637512,-0.14538214
0.023598416,0.012987646,0.04620214,0.3843088,-1.4181799,-0.14085592
0.02286373,0.012583303,0.044763736,0.37234417,-1.3740278,-0.13647066
0.022151925,0.012191554,0.04337013,0.36075217,-1.3312509,-0.132222
0.021462288,0.011812004,0.042019926,0.34952116,-1.2898062,-0.12810564
0.020794129,0.011444275,0.040711768,0.33863994,-1.2496523,-0.12411748
0.020146776,0.011087998,0.03944435,0.32809758,-1.2107487,-0.12025352
0.019519582,0.010742815,0.0382164,0.3178835,-1.1730566,-0.11650988
0.01891192,0.010408381,0.03702669,0.30798748,-1.1365383,-0.11288282
0.01832318,0.010084362,0.035874024,0.29839963,-1.1011571,-0.109368704
0.01775277,0.009770431,0.03475725,0.28911033,-1.0668776,-0.105964005
0.017200124,0.009466276,0.03367525,0.28011027,-1.0336654,-0.10266533
0.016664684,0.00917159,0.032626938,0.27139044,-1.0014875,-0.099469356
0.016145915,0.00888608,0.031611267,0.2629421,-0.9703114,-0.096372895
0.015643299,0.008609461,0.030627223,0.2547568,-0.940106,-0.093372844
0.015156332,0.008341453,0.029673815,0.24682638,-0.910841,-0.0904662
0.014684527,0.008081789,0.02875009,0.23914286,-0.8824872,-0.08765005
0.014227411,0.007830211,0.027855126,0.23169856,-0.8550162,-0.08492158
0.013784526,0.0075864643,0.026988024,0.22448602,-0.8284004,-0.082278065
0.01335543,0.0073503065,0.026147919,0.21749803,-0.80261326,-0.07971685
0.0129396925,0.007121501,0.025333969,0.2107276,-0.77762896,-0.07723536
0.012536898,0.006899819,0.024545358,0.20416795,-0.7534225,-0.074831136
0.012146644,0.006685038,0.023781298,0.19781251,-0.7299696,-0.072501756
0.011768539,0.006476944,0.023041025,0.19165494,-0.70724684,-0.0702449
0.011402205,0.006275328,0.022323798,0.18568906,-0.68523145,-0.0680583
0.011047276,0.0060799886,0.0216289,0.1799089,-0.6639015,-0.06593977
0.010703395,0.0058907303,0.020955633,0.17430867,-0.6432355,-0.06388719
0.01037022,0.0057073636,0.020303328,0.1688828,-0.6232129,-0.06189851
0.010047416,0.005529705,0.019671327,0.16362584,-0.6038135,-0.05997174
0.009734662,0.0053575775,0.019059,0.15853252,-0.58501816,-0.058104947
0.009431643,0.005190808,0.018465737,0.15359774,-0.5668078,-0.05629627
0.009138058,0.00502923,0.017890941,0.1488166,-0.5491644,-0.054543894
0.008853612,0.004872682,0.017334038,0.14418429,-0.5320702,-0.05284607
0.00857802,0.004721007,0.016794471,0.13969618,-0.5155081,-0.0512011
0.008311007,0.0045740535,0.0162717,0.13534778,-0.49946165,-0.049607337
0.008052307,0.0044316747,0.015765203,0.13113475,-0.48391464,-0.048063185
0.007801659,0.004293728,0.015274473,0.12705286,-0.46885163,-0.0465671
