ax,ay,az,gx,gy,gz
-0.5963691,0.6309148,-2.2972937,11.707379,4.660951,-6.8800626
-0.62478125,0.65620816,-2.5568283,15.638528,1.7421378,-9.854616
-0.58995,0.63287294,-2.7061863,17.507872,-0.67486465,-11.463137
-0.59192073,0.5974069,-2.833196,18.272192,-3.0497768,-12.511859
-0.59410673,0.55036736,-2.9389143,18.147259,-5.868166,-12.0422945
-0.5884624,0.50363845,-3.0180326,18.174356,-8.220246,-11.17061
-0.5824019,0.46458277,-3.077688,18.43778,-10.209258,-10.168578
-0.5940383,0.45005798,-3.1190712,18.966358,-11.886989,-9.281934
-0.63001007,0.47478503,-3.1390748,19.729797,-13.480618,-8.643253
-0.684306,0.53460497,-3.129797,20.250479,-15.346722,-8.278836
-0.7547936,0.6155115,-3.0851371,20.263119,-17.365225,-7.9279504
-0.8188232,0.6911099,-3.0271442,19.795212,-19.550049,-7.8023434
-0.86324954,0.7362347,-2.9639616,19.17222,-21.725922,-7.9058905
-0.89040726,0.7549854,-2.893396,18.548498,-23.8568,-8.247106
-0.89780146,0.75576407,-2.8167343,18.221003,-25.975967,-8.807498
-0.88798064,0.73912203,-2.734266,18.14534,-28.092712,-9.422799
-0.8564454,0.72194725,-2.6446626,18.194658,-30.191114,-10.007318
-0.8077053,0.7158841,-2.5425858,18.205416,-32.243668,-10.540654
-0.7521958,0.7168201,-2.4207532,18.059084,-34.188923,-10.991974
-0.6926051,0.72330135,-2.2843697,17.654293,-35.94536,-11.328757
-0.63093865,0.74176997,-2.1253483,17.09264,-37.542824,-11.533392
-0.5631677,0.77603227,-1.9562062,16.183468,-38.907654,-11.707737
-0.49137035,0.79808474,-1.7927743,14.928923,-39.997818,-11.892272
-0.43149975,0.7906722,-1.6573372,13.5587015,-40.811977,-12.080151
-0.39290625,0.7577565,-1.5647347,12.624132,-41.671886,-12.245226
-0.36106697,0.7119867,-1.5015674,12.041527,-42.714794,-12.364606
-0.31788293,0.66723037,-1.4367478,11.661474,-43.7733,-12.396008
-0.26050967,0.6254625,-1.3636278,11.408838,-44.618782,-12.347429
-0.20355724,0.58367056,-1.2991341,11.077856,-45.260014,-12.291428
-0.15356393,0.52734184,-1.245909,11.027639,-45.60896,-12.45014
-0.12620673,0.4515798,-1.2064029,11.324185,-45.93945,-12.541164
-0.105121374,0.38161168,-1.1639478,11.908961,-46.39226,-12.48285
-0.072939895,0.33264193,-1.0966752,12.63902,-46.8366,-12.264183
-0.02404156,0.31650028,-0.99876827,13.254514,-47.056965,-12.026253
0.030057443,0.32110223,-0.8776504,13.412941,-46.827103,-11.985854
0.0643036,0.30313134,-0.7630046,13.420528,-46.375317,-11.980305
0.08070701,0.26923755,-0.66137576,13.425426,-45.879417,-11.912705
0.09592817,0.23574379,-0.5597486,13.455157,-45.40112,-11.809646
0.11924851,0.21129002,-0.44128484,13.339117,-44.82405,-11.580731
0.14812636,0.19866423,-0.30791914,12.94285,-43.970604,-11.288946
0.17342953,0.1923404,-0.17204225,12.423413,-42.979706,-11.052598
0.20103483,0.17959397,-0.04107555,11.833283,-41.79486,-10.890404
0.234211,0.15347187,0.078799605,11.251869,-40.414997,-10.772259
0.27151966,0.11261207,0.18638149,10.676331,-38.90775,-10.577452
0.31644267,0.061594285,0.28871086,9.826252,-37.146442,-9.78638
0.38658735,0.011881273,0.39724484,8.277961,-34.935116,-8.057072
0.3732439,0.01147118,0.38353357,7.992239,-33.729298,-7.7789745
0.36044246,0.011077743,0.37037918,7.7181225,-32.572456,-7.5121727
0.34815338,0.0107000545,0.35775134,7.454978,-31.461918,-7.2560496
0.33634943,0.0103372745,0.34562194,7.2022204,-30.395218,-7.010037
0.32500526,0.0099886255,0.33396506,6.959309,-29.37007,-6.7736073
0.3140975,0.00965339,0.3227566,6.7257423,-28.384357,-6.5462728
0.3036044,0.009330898,0.3119742,6.5010543,-27.436115,-6.3275805
0.2935057,0.009020527,0.30159712,6.284812,-26.523518,-6.117108
0.28378254,0.008721698,0.2916059,6.0766106,-25.644855,-5.9144626
0.2744173,0.00843387,0.2819825,5.8760743,-24.79854,-5.7192774
0.26539358,0.008156536,0.27271,5.6828494,-23.983082,-5.5312085
0.25669587,0.007889223,0.2637725,5.4966063,-23.197086,-5.349935
0.24830973,0.007631486,0.25515518,5.3170347,-22.439249,-5.175155
0.24022159,0.007382907,0.24684405,5.143844,-21.70834,-5.0065856
0.23241864,0.0071430933,0.238826,4.97676,-21.003204,-4.8439603
0.22488886,0.006911675,0.23108862,4.8155255,-20.322752,-4.687028
0.21762085,0.006688302,0.22362027,4.6598964,-19.665956,-4.5355515
0.21060391,0.0064726453,0.21640988,4.509643,-19.03185,-4.389308
0.20382789,0.0062643923,0.20944704,4.3645487,-18.419514,-4.248085
0.19728315,0.0060632485,0.20272188,4.2244067,-17.82808,-4.111683
0.19096062,0.005868933,0.19622505,4.089023,-17.256725,-3.9799118
0.18485165,0.005681182,0.18994766,3.9582121,-16.70467,-3.8525913
0.17894801,0.005499741,0.18388127,3.831798,-16.17117,-3.7295504
0.17324191,0.005324371,0.17801787,3.709614,-15.655521,-3.6106267
0.16772594,0.0051548444,0.17234983,3.5915008,-15.157054,-3.4956653
0.16239299,0.0049909432,0.16686986,3.4773066,-14.675126,-3.3845184
0.15723632,0.0048324596,0.16157104,3.3668876,-14.209128,-3.2770457
0.15224952,0.004679196,0.15644674,3.2601054,-13.75848,-3.1731129
0.1474264,0.004530964,0.15149067,3.1568284,-13.322625,-3.0725918
0.1427611,0.004387582,0.14669676,3.056931,-12.901032,-2.97536
0.13824801,0.004248878,0.14205925,2.9602926,-12.493194,-2.8813002
0.13388175,0.004114686,0.13757262,2.866798,-12.098622,-2.7903006
0.12965713,0.0039848485,0.13323155,2.776337,-11.716854,-2.7022533
0.12556927,0.0038592126,0.12903097,2.6888037,-11.347441,-2.6170557
0.12161338,0.0037376338,0.12496604,2.6040967,-10.989956,-2.534609
0.117784955,0.0036199717,0.12103207,2.5221188,-10.643989,-2.4548187
0.11407961,0.0035060926,0.117224574,2.4427767,-10.309144,-2.3775938
0.11049315,0.0033958675,0.11353925,2.3659804,-9.985044,-2.3028467
0.10702158,0.003289173,0.10997196,2.2916436,-9.671324,-2.2304935
0.10366099,0.0031858897,0.10651874,2.219684,-9.367635,-2.1604538
0.10040769,0.0030859034,0.103175744,2.150021,-9.07364,-2.09265
0.097258076,0.002989104,0.0999393,2.0825787,-8.789016,-2.027007
0.0942087,0.0028953855,0.09680586,2.0172827,-8.51345,-1.9634535
0.09125625,0.0028046456,0.09377202,1.9540621,-8.246643,-1.90192
0.088397525,0.0027167862,0.090834476,1.8928484,-7.9883056,-1.8423396
0.08562943,0.0026317125,0.087990075,1.8335755,-7.7381587,-1.7846484
0.082949005,0.002549333,0.08523576,1.7761798,-7.495934,-1.7287843
0.08035339,0.0024695597,0.08256858,1.7206,-7.261373,-1.6746875
0.0778398,0.0023923079,0.07998569,1.6667768,-7.034225,-1.6223005
0.07540558,0.0023174952,0.07748437,1.6146531,-6.81425,-1.5715678
0.07304816,0.002245043,0.07506196,1.5641738,-6.6012144,-1.5224354
0.070765056,0.0021748745,0.072715916,1.5152858,-6.3948946,-1.474852
0.06855386,0.0021069162,0.070443764,1.4679378,-6.1950736,-1.4287673
0.06641226,0.002041097,0.06824313,1.42208,-6.001542,-1.3841333
0.064338036,0.0019773482,0.06611171,1.3776647,-5.8140984,-1.3409032
0.062329005,0.0019156032,0.0640473,1.3346455,-5.6325464,-1.2990319
0.06038309,0.001855798,0.062047742,1.2929778,-5.456698,-1.258476
0.058498275,0.0017978705,0.060110964,1.2526184,-5.2863708,-1.2191936
0.056672603,0.0017417609,0.058234964,1.2135255,-5.121389,-1.1811439
0.054904196,0.0016874111,0.056417804,1.1756587,-4.961581,-1.1442876
0.053191233,0.0016347653,0.054657616,1.1389792,-4.806784,-1.1085867
0.051531944,0.0015837692,0.052952588,1.103449,-4.656838,-1.0740047
0.049924638,0.0015343706,0.051300965,1.0690318,-4.5115886,-1.0405059
0.048367653,0.0014865188,0.04970106,1.0356923,-4.3708873,-1.0080559
0.04685941,0.0014401647,0.048151236,1.0033964,-4.23459,-0.9766218
0.045398355,0.001395261,0.046649903,0.972111,-4.1025577,-0.9461712
0.043983,0.001351762,0.045195535,0.9418042,-3.9746552,-0.9166731
0.042611912,0.0013096232,0.04378664,0.9124451,-3.8507524,-0.88809747
0.041283682,0.0012688017,0.042421795,0.8840038,-3.730723,-0.8604151
0.039996963,0.0012292562,0.041099604,0.85645145,-3.6144447,-0.83359796
0.03875045,0.0011909461,0.039818726,0.82975996,-3.5017998,-0.8076187
0.037542876,0.0011538329,0.038577862,0.8039023,-3.3926737,-0.78245103
0.036373015,0.0011178787,0.037375752,0.7788522,-3.286956,-0.75806934
0.035239685,0.0010830472,0.036211178,0.7545843,-3.1845393,-0.734449
0.034141738,0.0010493032,0.035082962,0.73107404,-3.0853198,-0.7115661
0.03307806,0.0010166124,0.033989962,0.7082976,-2.9891975,-0.6893974
0.032047577,0.0009849418,0.03293107,0.686232,-2.8960748,-0.6679206
0.03104925,0.0009542595,0.03190522,0.6648549,-2.805858,-0.6471139
0.030082067,0.00092453434,0.030911375,0.6441447,-2.7184558,-0.62695634
0.029145056,0.0008957365,0.029948533,0.62408054,-2.63378,-0.6074276
0.028237272,0.0008678369,0.029015722,0.6046422,-2.5517452,-0.58850795
0.027357796,0.0008408073,0.028112,0.58581007,-2.4722688,-0.57017833
0.026505744,0.0008146206,0.02723646,0.5675652,-2.3952706,-0.5524203
0.025680259,0.0007892503,0.026388217,0.54988915,-2.3206732,-0.5352159
0.02488051,0.000764671,0.02556642,0.5327642,-2.2484014,-0.5185479
0.02410569,0.0007408579,0.02477024,0.51617306,-2.1783826,-0.5023995
0.023355022,0.0007177871,0.023998877,0.50009906,-2.110546,-0.48675442
0.02262775,0.00069543533,0.023251556,0.48452604,-2.0448241,-0.47159696
0.021923143,0.0006737801,0.022527525,0.46943834,-1.9811502,-0.4569119
0.021240495,0.00065279973,0.021826055,0.45482084,-1.9194605,-0.4426844
0.020579116,0.00063247315,0.021146445,0.44065884,-1.8596932,-0.4289003
0.019938346,0.00061277987,0.02048801,0.42693806,-1.8017881,-0.41554567
0.019317541,0.0005937002,0.01985009,0.4136448,-1.7456871,-0.4026071
0.018716075,0.0005752149,0.019232042,0.4007657,-1.6913339,-0.39007166
0.018133348,0.0005573055,0.01863325,0.38828778,-1.6386739,-0.3779267
0.017568773,0.000539954,0.01805311,0.37619856,-1.5876545,-0.3661601
0.017021783,0.000523143,0.017491043,0.36448595,-1.5382241,-0.35476002
0.016491832,0.0005068556,0.016946482,0.35313815,-1.4903336,-0.34371504
0.015978387,0.00049107557,0.016418882,0.3421438,-1.4439346,-0.33301404
0.015480935,0.00047578695,0.015907714,0.3314919,-1.3989807,-0.32264638
0.014998974,0.00046097452,0.015412468,0.32117173,-1.355427,-0.3126016
0.014532024,0.0004466234,0.014932645,0.31117296,-1.3132297,-0.30286962
0.0140796155,0.0004327192,0.014467765,0.30148557,-1.2723464,-0.29344076
0.013641296,0.000419248,0.014017361,0.2920999,-1.2327363,-0.28430548
0.013216626,0.0004061963,0.013580984,0.28300646,-1.1943598,-0.27545473
0.012805181,0.00039355105,0.013158196,0.2741962,-1.1571783,-0.26687956
0.012406547,0.00038129953,0.012748572,0.2656603,-1.1211545,-0.25857142
0.012020325,0.0003694295,0.012351704,0.25739017,-1.0862525,-0.250522
0.01164613,0.0003579291,0.011967192,0.24937756,-1.0524372,-0.24272318
0.011283586,0.00034678675,0.011594654,0.24161445,-1.0196749,-0.2351672
0.01093233,0.00033599135,0.011233714,0.23409303,-0.9879326,-0.2278465
0.010592012,0.00032553208,0.010884013,0.2268058,-0.95717865,-0.22075373
0.010262288,0.00031539844,0.010545201,0.21974547,-0.92738223,-0.21388179
0.009942831,0.00030558032,0.0102169365,0.21290496,-0.8985135,-0.20722382
0.009633319,0.00029606788,0.009898892,0.20627742,-0.8705436,-0.20077312
0.009333444,0.0002868516,0.00959075,0.19985622,-0.84344447,-0.19452326
0.009042905,0.00027792226,0.009292201,0.19363493,-0.81718904,-0.18846798
0.008761411,0.00026927088,0.009002947,0.18760732,-0.791751,-0.18260121
0.00848868,0.00026088886,0.008722698,0.18176737,-0.7671049,-0.1769171
0.008224441,0.00025276782,0.008451174,0.17610924,-0.7432261,-0.17140995
0.007968428,0.00024489957,0.008188102,0.17062725,-0.7200907,-0.16607423
0.0077203843,0.00023727627,0.007933221,0.16531591,-0.6976755,-0.16090463
0.007480063,0.00022989028,0.0076862746,0.16016993,-0.6759582,-0.15589596
0.007247223,0.00022273425,0.0074470155,0.15518415,-0.6549169,-0.15104322
0.0070216316,0.00021580097,0.007215205,0.15035358,-0.63453066,-0.14634155
0.0068030627,0.00020908353,0.0069906106,0.1456734,-0.61477906,-0.14178625
0.006591298,0.00020257522,0.006773008,0.1411389,-0.5956423,-0.13737275
0.006386126,0.00019626951,0.0065621794,0.13674556,-0.5771013,-0.13309664
0.0061873402,0.00019016009,0.006357914,0.13248898,-0.55913746,-0.12895365
0.0059947427,0.00018424085,0.006160007,0.1283649,-0.5417328,-0.12493962
0.005808141,0.00017850587,0.0059682606,0.12436921,-0.52487,-0.12105055
0.0056273476,0.00017294943,0.0057824836,0.120497905,-0.50853205,-0.11728255
0.0054521826,0.00016756594,0.005602489,0.11674711,-0.49270272,-0.11363183
0.00528247,0.00016235004,0.005428098,0.11311307,-0.47736615,-0.11009476
