ax,ay,az,gx,gy,gz
0.5963691,0.6527332,-4.080037,23.803852,-32.903934,0.8881899
0.7910682,0.59711367,-4.244877,3.5050006,-33.191753,8.869398
0.67923075,0.17986974,-4.713184,-4.49174,-34.891685,3.7939484
0.57145894,-0.41351205,-5.6678886,-3.8105042,-40.00677,-3.649415
0.7966939,-1.0305899,-6.2783813,-3.3717895,-45.986233,-6.698726
1.1780334,-1.6186435,-6.612442,-4.3490424,-52.678604,-5.236668
1.448354,-2.1362233,-6.845453,-3.379918,-60.805553,-3.5048628
1.7011489,-2.6104577,-6.926953,-1.4058462,-68.55051,-0.24951085
1.8332318,-3.036273,-6.890083,0.9205523,-75.39097,3.4976804
1.9111391,-3.470825,-6.7307487,2.4122887,-82.54004,8.687509
1.9604688,-3.7791162,-6.367185,3.0013883,-88.82325,14.669019
1.9074442,-3.8625023,-5.8235426,4.094208,-94.34831,19.825714
1.8301282,-3.785342,-5.119638,5.0088096,-98.53274,24.714685
1.8788409,-3.7343419,-4.225546,5.704976,-100.432625,29.860739
1.9987509,-3.6807308,-3.2231932,6.52709,-99.00228,35.83583
2.056769,-3.508752,-2.212675,7.09492,-95.4579,41.951855
2.0230217,-3.2260206,-1.2578273,7.190997,-90.91754,47.39127
1.9757632,-2.9202735,-0.37687746,7.487886,-84.93563,52.310364
1.9796685,-2.5402834,0.4399263,8.623459,-77.26914,54.94414
2.0059066,-2.1951737,1.1599082,9.272841,-68.02145,56.758247
2.0130582,-1.8923147,1.7080089,8.8664,-57.754406,58.529552
1.9895471,-1.6366663,2.0241494,8.184589,-47.488106,60.15776
1.9333545,-1.4306604,2.1272788,8.5614395,-38.21567,61.14624
1.8776275,-1.1726967,2.061369,8.9086895,-30.825798,60.15018
1.8623405,-0.9586345,1.9829798,10.207332,-24.197107,57.83802
1.8812925,-0.7160861,1.905587,11.4686,-18.01021,55.149082
1.9004158,-0.37013873,1.8518882,12.9254265,-12.02434,51.250538
1.912586,0.029800199,1.8350403,13.860667,-6.295811,46.379597
1.8899953,0.4961047,1.8334883,14.5044,-1.2777988,40.584248
1.8354676,0.93582594,1.8257866,15.57177,3.0341551,33.59847
1.802275,1.3257132,1.8246772,17.224607,6.9225955,25.414904
1.8356287,1.597528,1.8514638,17.887163,10.855375,17.434555
1.9025582,1.6839114,1.8482435,17.063812,14.297458,10.363882
2.01275,1.481968,1.8080416,16.439537,17.594158,3.9813795
2.1066632,1.1321032,1.7278064,16.749228,20.5351,-1.755328
2.2206457,0.69863164,1.6520767,16.411562,23.16452,-5.6443043
2.360526,0.17393602,1.5850526,14.920546,25.640314,-7.182982
2.5101418,-0.43233952,1.5140074,13.966057,28.320251,-6.4241166
2.6186323,-0.9947599,1.4007815,14.634064,31.137321,-5.151469
2.6666932,-1.4446371,1.2526251,16.259336,33.7839,-3.5235817
2.6630113,-1.764491,1.0657451,17.922466,36.107475,-1.2215331
2.624306,-1.9787669,0.83922863,19.328846,37.910263,1.705707
2.5828679,-2.1236463,0.5893765,20.46467,39.084194,5.3998594
2.535328,-2.178716,0.29704192,21.731983,39.750763,9.198419
2.4767249,-2.1396298,-0.022518052,23.276402,39.854866,12.608545
2.4101188,-1.9939363,-0.37159756,24.58639,39.106216,15.455759
2.356339,-1.8045495,-0.7285755,25.338858,37.383553,17.873749
2.3461065,-1.6057746,-1.0913926,25.384583,34.81394,20.107714
2.3621955,-1.3852599,-1.5025234,25.259947,31.573067,21.842308
2.3630705,-1.1302891,-1.9246848,25.409231,27.78759,22.564804
2.329678,-0.82683486,-2.3403842,25.58565,23.250002,22.441908
2.2853873,-0.4674609,-2.7291846,24.731045,18.018425,21.776817
2.2378025,-0.11773925,-3.0937507,23.060684,11.8499775,20.270428
2.192971,0.24734338,-3.41358,21.239962,5.4159756,17.862394
2.1125712,0.61150426,-3.6863337,19.397966,-1.5147256,14.496545
2.0280027,0.93038005,-3.8893473,16.955072,-9.15713,10.702687
1.9893318,1.138486,-3.9924579,13.714124,-17.351812,6.732071
2.085673,1.1789446,-3.9287326,9.214079,-25.090376,3.45298
2.3672297,0.994723,-3.5966883,5.1204877,-31.770071,0.050091334
2.6891394,0.70125103,-3.073514,2.6435382,-36.72335,-3.5400212
2.9731274,0.4072457,-2.443341,0.52356446,-40.2807,-6.48808
3.214161,0.11702059,-1.7753899,-2.3704937,-42.5014,-8.326444
3.3784292,-0.17238949,-1.1517009,-4.6707897,-42.75321,-9.56832
3.3654532,-0.41801083,-0.6979745,-6.3209095,-42.03594,-10.444537
3.2479382,-0.6196467,-0.38591692,-7.2094054,-40.809135,-11.074654
3.0906377,-0.778277,-0.18347177,-7.501168,-39.459583,-11.459846
2.9449592,-0.9000826,-0.03879194,-7.3272696,-38.06785,-11.540515
2.7977707,-0.9710995,0.047576506,-6.9562,-36.74849,-11.276767
2.6430109,-0.9787612,0.0779942,-6.7165055,-35.56511,-10.875675
2.5109668,-0.9852419,0.08602987,-6.502337,-34.594532,-10.38096
2.432833,-0.9979064,0.104177594,-6.2389474,-33.50276,-9.955201
2.3953514,-1.0127261,0.13326493,-6.3180885,-32.00475,-9.332032
2.3683808,-1.023563,0.15805656,-6.842316,-29.786821,-8.706219
2.325426,-1.011747,0.14774726,-8.050029,-27.289652,-8.112627
2.251759,-0.97969586,0.14306678,-7.7950115,-26.425142,-7.8556266
2.1805022,-0.9486935,0.13853945,-7.5483394,-25.58892,-7.607036
2.1115704,-0.9187026,0.13415982,-7.3097143,-24.779982,-7.3665557
2.0448809,-0.8896873,0.12992266,-7.0788527,-23.997358,-7.1338987
1.9803551,-0.86161345,0.12582299,-6.855481,-23.240128,-6.9087906
1.9179178,-0.8344482,0.121856,-6.6393394,-22.507406,-6.690968
1.8574966,-0.8081601,0.11801709,-6.4301767,-21.798342,-6.4801784
1.799022,-0.78271896,0.114301875,-6.227752,-21.112122,-6.2761803
1.7424273,-0.75809574,0.110706106,-6.031836,-20.447966,-6.0787406
1.6876487,-0.73426265,0.10722571,-5.8422065,-19.805119,-5.887636
1.6346245,-0.71119285,0.10385679,-5.6586504,-19.182863,-5.702653
1.5832957,-0.6888607,0.100595586,-5.480963,-18.580503,-5.523584
1.5336053,-0.66724145,0.097438484,-5.308948,-17.99737,-5.350231
1.4854988,-0.6463112,0.09438201,-5.1424155,-17.432823,-5.182404
1.4389234,-0.6260472,0.09142281,-4.9811835,-16.886246,-5.019918
1.3938283,-0.6064272,0.08855767,-4.8250756,-16.35704,-4.8625965
1.3501647,-0.58743,0.085783474,-4.6739235,-15.844633,-4.7102685
1.3078854,-0.5690352,0.08309724,-4.5275636,-15.348472,-4.562771
1.2669452,-0.55122286,0.08049608,-4.3858395,-14.868025,-4.4199443
1.2273003,-0.5339741,0.07797722,-4.2485986,-14.402778,-4.281636
1.1889082,-0.5172705,0.07553796,-4.1156955,-13.952235,-4.1476994
1.1517285,-0.50109434,0.07317572,-3.9869888,-13.515919,-4.017992
1.1157218,-0.48542854,0.07088801,-3.8623426,-13.093368,-3.8923767
1.0808501,-0.47025657,0.068672426,-3.7416258,-12.684136,-3.7707212
1.0470768,-0.45556247,0.06652662,-3.6247113,-12.287796,-3.6528976
1.0143666,-0.4413309,0.06444836,-3.5114768,-11.903931,-3.5387826
0.98268527,-0.42754695,0.062435463,-3.4018042,-11.532139,-3.428257
0.9519998,-0.4141963,0.060485844,-3.295579,-11.172035,-3.3212059
0.9222783,-0.40126508,0.05859747,-3.1926908,-10.823243,-3.2175176
0.89349,-0.38873985,0.05676839,-3.093033,-10.485403,-3.117085
0.8656051,-0.37660772,0.05499671,-2.9965029,-10.158165,-3.019804
0.83859485,-0.36485606,0.0532806,-2.903,-9.84119,-2.9255743
0.8124314,-0.35347286,0.05161829,-2.812429,-9.534153,-2.8342988
0.7870878,-0.3424464,0.05000807,-2.7246962,-9.236738,-2.7458837
0.76253814,-0.3317653,0.04844829,-2.6397114,-8.948639,-2.660238
0.73875713,-0.32141864,0.04693735,-2.5573876,-8.669561,-2.577274
0.7157205,-0.31139585,0.045473706,-2.4776406,-8.399219,-2.4969072
0.6934047,-0.3016867,0.044055857,-2.400389,-8.137335,-2.4190547
0.6717869,-0.2922812,0.04268236,-2.325554,-7.883643,-2.3436377
0.6508451,-0.28316987,0.041351814,-2.2530587,-7.6378846,-2.2705789
0.630558,-0.27434337,0.04006286,-2.18283,-7.399809,-2.199804
0.610905,-0.2657927,0.038814195,-2.1147962,-7.1691737,-2.1312413
0.591866,-0.25750923,0.03760454,-2.0488882,-6.945745,-2.0648208
0.5734218,-0.24948451,0.036432676,-1.9850391,-6.7292957,-2.000475
0.5555536,-0.24171041,0.035297412,-1.923184,-6.5196066,-1.938139
0.53824335,-0.23417906,0.034197595,-1.8632604,-6.3164654,-1.8777493
0.5214735,-0.22688285,0.033132117,-1.8052075,-6.1196656,-1.8192451
0.50522715,-0.21981436,0.03209989,-1.7489667,-5.929009,-1.7625669
0.4894878,-0.21296647,0.031099884,-1.6944811,-5.7443023,-1.7076576
0.47423953,-0.20633227,0.030131077,-1.6416956,-5.565359,-1.6544616
0.45946702,-0.19990504,0.029192496,-1.5905569,-5.391999,-1.6029253
0.44515532,-0.19367829,0.028283194,-1.5410135,-5.224046,-1.5529966
0.43129,-0.18764576,0.027402254,-1.4930153,-5.0613317,-1.5046252
0.41785708,-0.18180136,0.026548784,-1.4465139,-4.9036922,-1.4577622
0.40484303,-0.1761392,0.02572193,-1.4014627,-4.750968,-1.4123607
0.39223474,-0.1706536,0.024920857,-1.357816,-4.6030054,-1.3683746
0.38001955,-0.16533901,0.024144756,-1.3155301,-4.4596562,-1.3257599
0.3681851,-0.16019008,0.023392849,-1.2745624,-4.320775,-1.2844735
0.35671958,-0.15520164,0.02266438,-1.2348716,-4.186223,-1.2444742
0.34561136,-0.15036869,0.021958614,-1.1964179,-4.055865,-1.2057214
0.33484936,-0.14568636,0.021274844,-1.1591625,-3.929569,-1.1681764
0.32442272,-0.14114992,0.020612381,-1.1230682,-3.807209,-1.1318014
0.31432098,-0.13675486,0.019970562,-1.0880986,-3.6886616,-1.0965598
0.304534,-0.13249673,0.01934874,-1.0542185,-3.5738082,-1.0624163
0.29505193,-0.12837128,0.018746292,-1.0213941,-3.462533,-1.0293366
0.2858653,-0.124374345,0.018162614,-0.98959225,-3.3547246,-0.9972875
0.27696484,-0.120501935,0.017597117,-0.9587812,-3.2502747,-0.96623677
0.26834163,-0.11675015,0.017049236,-0.92892987,-3.1490786,-0.93615335
0.25998706,-0.11311523,0.016518423,-0.90000844,-3.0510347,-0.90700704
0.2518927,-0.10959353,0.016004143,-0.8719878,-2.9560447,-0.8787685
0.24405044,-0.10618153,0.015505883,-0.84484,-2.8640132,-0.8514096
0.23645245,-0.10287579,0.01502314,-0.8185377,-2.7748482,-0.8249028
0.2290911,-0.09967302,0.014555432,-0.7930546,-2.6884604,-0.79922146
0.221959,-0.09656998,0.01410229,-0.7683651,-2.6047628,-0.77434
0.21504901,-0.09356358,0.01366326,-0.7444445,-2.5236719,-0.7502334
0.20835422,-0.090650804,0.013237903,-0.72126883,-2.4451063,-0.7268775
0.2018679,-0.08782874,0.012825791,-0.69881487,-2.368987,-0.7042489
0.19558357,-0.08509455,0.012426512,-0.67706007,-2.2952383,-0.682325
0.18949491,-0.082445495,0.012039666,-0.65598273,-2.2237859,-0.66108376
0.18359585,-0.079878934,0.0116648665,-0.6355617,-2.1545587,-0.64050394
0.17788048,-0.07739229,0.011301736,-0.61577654,-2.0874867,-0.62056494
0.17234306,-0.07498307,0.010949913,-0.59660745,-2.0225034,-0.6012468
0.16697806,-0.07264886,0.010609045,-0.5780352,-1.9595431,-0.5825301
0.16178009,-0.070387326,0.010278789,-0.5600412,-1.8985434,-0.56439614
0.15674397,-0.06819621,0.009958817,-0.5426074,-1.8394427,-0.5468268
0.15186465,-0.06607331,0.009648806,-0.5257164,-1.7821823,-0.52980447
0.14713724,-0.064016506,0.009348447,-0.5093514,-1.7267046,-0.51331216
0.14255701,-0.06202374,0.00905744,-0.49349576,-1.6729541,-0.49733326
0.13811937,-0.060093015,0.008775492,-0.47813383,-1.6208769,-0.48185188
0.1338199,-0.0582224,0.008502323,-0.46325016,-1.5704211,-0.46685246
0.12965427,-0.05641002,0.008237658,-0.44882983,-1.5215361,-0.45232
0.12561834,-0.05465406,0.007981232,-0.43485844,-1.4741731,-0.43823996
0.12170804,-0.05295277,0.0077327895,-0.42132202,-1.4282845,-0.42459828
0.11791949,-0.05130444,0.0074920813,-0.408207,-1.3838245,-0.41138127
0.11424887,-0.049707428,0.0072588664,-0.39550027,-1.3407485,-0.39857572
0.11069252,-0.048160132,0.0070329118,-0.3831891,-1.2990136,-0.38616884
0.10724688,-0.046661004,0.0068139913,-0.3712612,-1.258578,-0.3741482
0.10390852,-0.045208544,0.0066018864,-0.3597046,-1.2194011,-0.3625017
0.10067406,-0.0438013,0.0063963835,-0.3485078,-1.1814437,-0.35121784
0.097540304,-0.042437863,0.0061972784,-0.3376595,-1.144668,-0.3402852
0.0945041,-0.04111687,0.006004371,-0.32714894,-1.1090372,-0.3296929
0.09156241,-0.039837,0.005817469,-0.31696555,-1.0745155,-0.31943032
0.08871229,-0.03859697,0.0056363856,-0.3070992,-1.0410683,-0.30948722
0.085950896,-0.03739554,0.005460939,-0.29753995,-1.0086625,-0.29985365
0.08327546,-0.03623151,0.0052909534,-0.28827828,-0.9772653,-0.29051995
0.080683306,-0.035103716,0.0051262598,-0.27930492,-0.94684553,-0.28147683
