ax,ay,az,gx,gy,gz
-1.0836463,-0.13091028,-4.554587,5.326412,-42.835842,-38.174892
-0.48298994,-0.08902393,-4.4818845,6.656512,-43.597313,-45.082764
0.21439885,-0.23023972,-4.2027063,5.3930907,-40.6131,-42.861073
0.56829304,-0.36604926,-4.322979,8.839226,-38.201473,-38.419754
0.6232841,-0.37314263,-4.821185,11.261924,-39.5997,-35.945366
0.5494286,-0.3850343,-5.275259,11.761716,-43.37937,-34.37034
0.41634563,-0.4489712,-5.6704335,9.804253,-48.948254,-32.147884
0.36766958,-0.5410878,-5.9668245,6.255799,-56.465164,-28.92872
0.5017176,-0.6890296,-6.072861,2.6156042,-63.518368,-24.606
0.69387424,-0.99219334,-6.0727735,0.92530626,-70.08002,-20.843412
0.8826752,-1.4151787,-5.9933243,-0.56722003,-76.466576,-16.377167
1.0675879,-1.9013256,-5.8385653,-2.4324172,-81.89409,-10.512362
1.2332447,-2.4014578,-5.5910463,-3.0105438,-86.96934,-4.757106
1.4658024,-2.826862,-5.1817446,-2.7845333,-90.96537,2.147817
1.6672972,-3.1560986,-4.6175456,-2.3762317,-94.04023,9.4089155
1.8336544,-3.4280353,-3.9786265,-2.0866117,-96.23389,17.378632
1.9951737,-3.6424303,-3.255918,-2.1557496,-96.96076,26.3092
2.1328094,-3.7974002,-2.4941065,-2.2471247,-95.784805,36.2802
2.2182014,-3.8217134,-1.7447231,-0.36891118,-92.252716,45.382435
2.2642138,-3.457166,-0.9549163,2.3177514,-87.378685,51.873756
2.2975717,-2.975424,-0.17877418,5.2531934,-81.374794,56.170517
2.3273294,-2.42968,0.5260444,7.356102,-74.554634,58.541965
2.337109,-1.8953233,1.1164798,8.538077,-67.080666,59.76494
2.329793,-1.3381132,1.5707121,9.088737,-58.893745,59.43117
2.2867315,-0.7876589,1.8402405,10.066499,-50.987186,57.26007
2.2331173,-0.23498021,1.9966785,11.6807165,-43.313236,53.062664
2.1728659,0.276347,2.0746348,13.152756,-35.91869,47.86745
2.108013,0.7118181,2.073243,14.07531,-29.111923,42.041542
2.0531058,1.0782566,2.0361114,13.650514,-22.506786,35.888935
2.0183673,1.3158977,1.9844909,12.744705,-16.405037,29.668036
2.0400121,1.4116118,1.9760219,11.827625,-10.571495,23.512701
2.1104445,1.35922,1.9999869,11.748704,-4.811853,17.51209
2.2090776,1.1935657,2.0392478,12.524277,1.0086269,12.040701
2.3069942,0.9472273,2.061659,12.292923,6.5534143,8.3410845
2.4591506,0.5770416,2.0841577,11.06888,12.324227,6.4693427
2.6093166,0.10012983,2.0673723,10.062619,18.265772,5.7702265
2.7310548,-0.40642992,1.9900872,10.273002,24.057177,5.734362
2.8158486,-0.8627947,1.8463157,11.597523,29.31904,6.0811934
2.854323,-1.2381394,1.6321952,13.1041355,33.213425,7.0541363
2.845645,-1.5373883,1.3518752,14.557693,36.192493,8.47003
2.8356652,-1.7837175,1.0354422,16.017262,38.33165,10.315721
2.8352108,-1.9708669,0.6821325,17.621155,39.78315,12.656173
2.8213348,-2.084201,0.2738288,19.55127,40.43688,14.958209
2.7861233,-2.12867,-0.19420376,21.636555,39.54454,17.147367
2.7442229,-2.0750952,-0.71382046,23.70985,37.35721,19.187628
2.694766,-1.9477682,-1.2504,25.700468,33.55205,20.88361
2.65049,-1.7574897,-1.7691265,27.408821,28.490284,21.999836
2.6142204,-1.5010966,-2.256769,28.532835,22.373907,22.857183
2.5489223,-1.1573879,-2.7219605,28.692062,14.9436865,22.217295
2.4676895,-0.7257023,-3.0931826,28.129007,7.1052427,20.696293
2.4015608,-0.28516644,-3.3876493,26.188068,-1.1153873,18.964859
2.3917756,0.14580594,-3.571546,22.62978,-9.030014,17.3738
2.386037,0.51629794,-3.6757247,18.466585,-16.46842,14.793138
2.3243334,0.71000993,-3.7064354,14.49846,-23.805923,11.548124
2.3004375,0.7245195,-3.5842793,9.992455,-30.985813,8.528933
2.4348707,0.5327313,-3.3169258,5.9222465,-37.726124,5.731671
2.7982354,0.21074675,-2.830354,2.6607397,-42.29795,3.411731
3.1998918,-0.15715308,-2.2177193,0.7972834,-44.126186,1.5016394
3.4760182,-0.45872036,-1.646894,-0.29156822,-43.665638,0.27611956
3.5272222,-0.63315684,-1.2288254,-1.2781148,-43.048492,-0.5161853
3.4883335,-0.7484314,-0.88906646,-2.2001207,-42.30642,-0.8086822
3.4349964,-0.8331694,-0.5939227,-3.016697,-40.95951,-0.67767686
3.4031632,-0.92223287,-0.32930386,-3.4143174,-38.66332,-0.17840356
3.3764277,-1.036143,-0.10916504,-2.6331346,-34.856274,1.027821
3.3121297,-1.1328864,0.03321148,-1.1011194,-30.465118,2.4459727
3.2242107,-1.1607287,0.09745497,0.537347,-26.065142,3.6648026
3.1283805,-1.1296508,0.121155925,1.169547,-22.049265,4.1811023
3.0278533,-1.0918169,0.11772792,0.28472856,-18.99887,4.3070464
2.9337392,-1.0781856,0.09378375,-0.7886703,-16.649452,4.4150887
2.8401914,-1.0438056,0.090793274,-0.7635221,-16.118553,4.274305
2.7497604,-1.0105711,0.08790244,-0.7392117,-15.605341,4.138212
2.6623302,-0.97843933,0.08510753,-0.715708,-15.10916,4.006635
2.5777898,-0.94736975,0.08240501,-0.69298124,-14.62938,3.8794076
2.4960341,-0.9173236,0.0797915,-0.6710031,-14.165404,3.7563708
2.4169624,-0.88826364,0.07726378,-0.64974636,-13.716658,3.6373725
2.340478,-0.8601547,0.07481878,-0.6291852,-13.282596,3.5222683
2.2664886,-0.8329627,0.07245354,-0.60929483,-12.862695,3.4109192
2.1949062,-0.80665535,0.07016525,-0.5900516,-12.456453,3.3031926
2.1256466,-0.78120154,0.0679512,-0.57143265,-12.063394,3.1989613
2.0586286,-0.75657153,0.06580882,-0.5534163,-11.683055,3.0981033
1.9937744,-0.7327368,0.063735604,-0.5359817,-11.314997,3.000502
1.9310097,-0.70967,0.061729185,-0.51910883,-10.9587965,2.9060452
1.8702629,-0.68734485,0.059787273,-0.5027784,-10.614049,2.814625
1.8114653,-0.66573596,0.05790767,-0.486972,-10.280363,2.7261386
1.7545509,-0.64481926,0.056088272,-0.47167185,-9.957365,2.640486
1.6994563,-0.6245713,0.05432705,-0.4568609,-9.644693,2.5575724
1.6461204,-0.6049697,0.052622043,-0.44252273,-9.342004,2.4773052
1.5944844,-0.5859929,0.050971378,-0.42864156,-9.048962,2.3995965
1.544492,-0.56762,0.049373254,-0.4152022,-8.765245,2.3243608
1.4960884,-0.5498311,0.04782592,-0.40218997,-8.490547,2.2515166
1.4492214,-0.53260684,0.046327706,-0.3895908,-8.224569,2.1809847
1.4038403,-0.51592875,0.044876996,-0.37739113,-7.967024,2.1126893
1.3598964,-0.4997788,0.04347223,-0.3655778,-7.717635,2.0465565
1.3173428,-0.48413983,0.042111907,-0.3541382,-7.4761367,1.982516
1.2761341,-0.46899515,0.040794574,-0.34306017,-7.242271,1.9204997
1.2362267,-0.45432866,0.03951884,-0.33233196,-7.0157895,1.8604416
1.1975783,-0.4401249,0.038283356,-0.32194218,-6.7964535,1.8022782
1.1601481,-0.42636886,0.037086815,-0.31187993,-6.5840316,1.7459483
1.1238971,-0.41304612,0.035927966,-0.30213463,-6.3783,1.6913927
1.088787,-0.40014273,0.034805592,-0.2926961,-6.179045,1.6385543
1.0547813,-0.3876452,0.03371852,-0.2835544,-5.986057,1.5873779
1.0218445,-0.37554055,0.03266562,-0.2747001,-5.7991357,1.5378102
0.9899425,-0.36381617,0.031645797,-0.26612395,-5.6180863,1.4897997
0.95904213,-0.35245988,0.030657995,-0.25781706,-5.4427214,1.4432966
0.9291114,-0.34146,0.029701192,-0.24977086,-5.27286,1.3982528
0.90011954,-0.3308051,0.0287744,-0.24197704,-5.108326,1.3546219
0.8720365,-0.32048425,0.027876662,-0.23442756,-4.9489503,1.3123589
0.8448336,-0.31048685,0.027007056,-0.22711466,-4.7945695,1.2714201
0.81848276,-0.3008026,0.026164692,-0.22003083,-4.6450243,1.2317638
0.79295707,-0.29142156,0.025348704,-0.2131688,-4.5001616,1.1933492
0.7682303,-0.28233418,0.024558255,-0.20652157,-4.3598332,1.1561371
0.74427724,-0.27353114,0.02379254,-0.20008233,-4.2238955,1.1200893
0.72107345,-0.26500344,0.02305078,-0.1938445,-4.0922103,1.0851691
0.6985953,-0.25674245,0.022332212,-0.18780175,-3.9646428,1.0513408
0.6768198,-0.24873967,0.021636108,-0.18194789,-3.8410633,1.0185702
0.6557249,-0.24098703,0.02096176,-0.176277,-3.7213461,0.9868237
0.6352891,-0.23347662,0.020308482,-0.17078328,-3.6053698,0.9560691
0.6154917,-0.22620083,0.019675612,-0.1654612,-3.4930162,0.9262753
0.5963126,-0.21915227,0.019062508,-0.16030532,-3.3841717,0.897412
0.5777323,-0.2123238,0.018468548,-0.15531044,-3.2787259,0.8694499
0.55973214,-0.20570852,0.017893132,-0.1504715,-3.1765718,0.84236085
0.54229385,-0.19929972,0.017335676,-0.14578359,-3.0776064,0.8161173
0.52539974,-0.19309093,0.016795617,-0.14124198,-2.9817297,0.79069275
0.5090328,-0.18707587,0.016272409,-0.1368421,-2.8888445,0.76606154
0.49317646,-0.18124847,0.015765524,-0.13257948,-2.7988572,0.74219877
0.47781473,-0.17560285,0.015274452,-0.12844983,-2.711677,0.7190804
0.46293217,-0.17013332,0.014798696,-0.12444898,-2.627216,0.6966831
0.44851375,-0.16483437,0.014337777,-0.1205729,-2.545389,0.6749843
0.4345449,-0.15970065,0.013891231,-0.11681769,-2.4661136,0.6539621
0.4210116,-0.15472698,0.013458608,-0.113179564,-2.38931,0.6335953
0.40790018,-0.14990838,0.013039472,-0.10965486,-2.3149006,0.6138635
0.3951975,-0.14524,0.012633402,-0.106240034,-2.2428107,0.5947468
0.3828908,-0.14071712,0.012239988,-0.10293164,-2.1729681,0.576226
0.37096763,-0.13633521,0.011858837,-0.099726364,-2.105302,0.5582824
0.35941604,-0.13208987,0.011489565,-0.096620984,-2.039745,0.540898
0.34822446,-0.1279768,0.011131799,-0.09361237,-1.9762309,0.52405536
0.33738157,-0.12399192,0.010785181,-0.090697505,-1.9146959,0.5077375
0.32687655,-0.120131195,0.010449364,-0.08787347,-1.8550781,0.49192816
0.31669885,-0.11639076,0.01012401,-0.08513741,-1.7973179,0.47661135
0.30683818,-0.11276685,0.009808792,-0.0824866,-1.7413571,0.4617717
0.29728475,-0.109255835,0.009503393,-0.07991836,-1.6871396,0.44739437
0.2880289,-0.10585419,0.0092075085,-0.07743014,-1.6346112,0.4334649
0.27906135,-0.10255851,0.008920841,-0.07501941,-1.5837189,0.41996935
0.27037314,-0.09936549,0.008643102,-0.07268378,-1.5344119,0.40689415
0.26195553,-0.09627191,0.008374014,-0.0704209,-1.4866407,0.3942262
0.2538001,-0.09327469,0.008113307,-0.06822849,-1.4403572,0.38195282
0.24589868,-0.09037082,0.007860719,-0.06610437,-1.3955153,0.37006167
0.23824333,-0.08755738,0.007615998,-0.0640464,-1.35207,0.35854086
0.23082638,-0.08483156,0.007378898,-0.062052518,-1.3099775,0.34737882
0.22364041,-0.082190625,0.0071491823,-0.06012073,-1.269196,0.3365644
0.21667822,-0.07963193,0.0069266194,-0.0582491,-1.2296845,0.32608676
0.20993282,-0.077152915,0.0067109875,-0.056435753,-1.1914032,0.31593537
0.20339747,-0.074751094,0.00650207,-0.05467887,-1.154314,0.30610007
0.19706562,-0.07242406,0.0062996577,-0.05297669,-1.1183797,0.29657105
0.19093092,-0.070169486,0.0061035478,-0.051327515,-1.0835643,0.28733873
0.18498725,-0.06798511,0.0059135444,-0.04972969,-1.0498329,0.2783939
0.17922863,-0.06586875,0.005729457,-0.048181616,-1.017152,0.26972753
0.17364931,-0.063818276,0.005551101,-0.046681743,-0.98548836,0.26133102
0.1682437,-0.061831653,0.005378299,-0.045228567,-0.9548107,0.25319594
0.16300641,-0.059906878,0.0052108765,-0.043820634,-0.9250881,0.24531414
0.15793216,-0.05804203,0.005048666,-0.042456537,-0.89629096,0.23767772
0.1530159,-0.056235243,0.0048915064,-0.04113491,-0.8683903,0.23027907
0.1482527,-0.054484706,0.00473924,-0.039854426,-0.84135836,0.22311075
0.14363778,-0.052788667,0.004591713,-0.03861381,-0.81516796,0.2161656
0.13916653,-0.05114543,0.00444878,-0.037411816,-0.78979295,0.20943667
0.1348345,-0.049553353,0.0043102964,-0.036247246,-0.76520795,0.20291723
0.13063732,-0.048010837,0.0041761235,-0.03511893,-0.74138826,0.19660075
0.1265708,-0.046516344,0.004046128,-0.034025736,-0.7183101,0.19048092
0.122630894,-0.045068376,0.00392018,-0.03296658,-0.69595045,0.1845516
0.118813634,-0.043665484,0.003798152,-0.031940393,-0.67428684,0.17880686
0.1151152,-0.042306267,0.0036799232,-0.030946152,-0.65329766,0.17324096
0.111531906,-0.040989358,0.003565375,-0.029982863,-0.63296187,0.16784833
0.10806016,-0.03971345,0.0034543925,-0.02904956,-0.61325914,0.16262357
0.10469648,-0.038477257,0.0033468648,-0.028145313,-0.59416974,0.15756147
0.101437524,-0.03727955,0.0032426848,-0.027269214,-0.5756746,0.15265694
0.09828001,-0.036119126,0.0031417476,-0.026420387,-0.5577552,0.14790508
0.09522079,-0.034994822,0.0030439524,-0.025597984,-0.5403936,0.14330116
0.0922568,-0.03390552,0.0029492017,-0.024801182,-0.5235725,0.13884054
0.08938508,-0.032850128,0.0028574006,-0.024029184,-0.507275,0.13451879
0.08660275,-0.031827588,0.002768457,-0.023281217,-0.49148482,0.13033156
