ax,ay,az,gx,gy,gz
-0.83546215,-0.8963718,-4.650042,60.258728,-21.529285,-18.477442
-1.8119992,-1.0734403,-6.1647105,77.93197,-49.309555,-29.332577
-1.9160589,-0.9957382,-6.801441,67.65886,-69.9041,-36.422005
-1.2513918,-1.1982582,-7.017743,48.749462,-81.09105,-33.198376
-0.43228957,-1.4405013,-7.133416,29.484627,-85.73231,-26.78047
-0.1264163,-1.9876935,-7.296024,19.171026,-89.77617,-23.934462
-0.06940871,-2.6861017,-7.462155,15.81636,-95.17823,-19.960869
0.09740101,-3.355133,-7.3362184,16.35228,-101.47996,-12.252176
0.37268537,-3.9651375,-6.8826704,17.739014,-107.72665,-2.0503519
0.709094,-4.37719,-6.141596,19.942371,-112.15988,8.22496
1.052245,-4.5737033,-5.193397,23.137667,-112.99322,16.817204
1.3511753,-4.531772,-4.082676,25.356226,-111.69814,24.854414
1.5862092,-4.3242397,-2.9536383,25.86783,-108.19446,32.68215
1.7516544,-4.006813,-1.8514436,25.524984,-103.01371,39.896805
1.8781523,-3.6474128,-0.82576895,25.174622,-96.7797,45.874367
2.0223756,-3.278238,0.108857565,26.111898,-88.19019,50.118397
2.1161983,-2.82247,0.86682296,27.73864,-78.605194,52.62482
2.1448803,-2.3066776,1.4833603,28.995798,-68.5049,53.72746
2.1164849,-1.8007997,1.9394593,29.378397,-58.4533,53.790333
2.070211,-1.3664031,2.2364957,29.404484,-48.83199,53.04702
2.0145304,-0.9995871,2.3770394,29.893929,-39.60265,51.193596
1.9820169,-0.7202608,2.3962383,30.838514,-30.55705,48.701645
1.953833,-0.4501726,2.3285067,31.88945,-22.331413,45.666283
1.89896,-0.1467097,2.168859,33.06903,-15.513415,41.959015
1.8631878,0.21665719,1.9758744,33.61621,-10.015161,37.836548
1.8503032,0.6072419,1.7974637,33.222492,-5.1982293,32.98628
1.8234533,0.9907721,1.6076984,32.9578,-1.0149285,27.334684
1.812477,1.3548094,1.4327164,32.742992,2.4727433,21.085556
1.8277872,1.648212,1.328557,32.032093,5.68067,14.833988
1.8342534,1.8254186,1.2813914,30.693077,8.707232,8.839683
1.8344085,1.8816012,1.278062,28.48918,11.594795,3.172851
1.8575033,1.7549931,1.2969391,26.560102,14.47319,-2.5813127
1.8898199,1.454198,1.3059462,25.40434,17.401615,-7.9691224
1.9139818,1.0595564,1.2997226,24.46824,20.330708,-12.241526
1.9645458,0.60846424,1.2756166,23.591488,23.18196,-14.819074
2.0562754,0.14777932,1.2467463,22.66435,26.046679,-15.471896
2.169089,-0.3372462,1.1758767,22.38657,29.094454,-15.244513
2.248089,-0.798364,1.0559188,22.724648,32.195038,-14.134223
2.2933908,-1.1870649,0.88726586,23.508816,35.15313,-12.028565
2.315901,-1.4540656,0.66303504,24.885448,37.840343,-9.265417
2.3037758,-1.6025788,0.37813148,26.269394,39.267956,-5.926807
2.2963226,-1.659055,0.04599677,27.339127,39.74881,-2.445457
2.305201,-1.6860074,-0.31091797,28.676245,39.670155,0.7755763
2.3120012,-1.658602,-0.7191761,30.09097,38.839287,3.7319236
2.2898805,-1.5518281,-1.1848923,31.122763,36.78346,6.5301456
2.2540228,-1.3233187,-1.6565217,31.28839,32.90918,8.746559
2.2231302,-0.99702835,-2.0837767,30.813057,28.067617,10.357537
2.2031643,-0.6555924,-2.459037,29.726944,22.451395,11.423701
2.1889074,-0.33760798,-2.79432,28.120352,16.496014,11.6772375
2.1552434,-0.0409567,-3.117521,26.335062,9.968679,11.001953
2.1020808,0.30225074,-3.3588896,23.68268,3.038913,9.140512
1.995251,0.64027655,-3.4928384,20.458376,-4.437507,6.531268
1.9487399,0.88841575,-3.4973204,16.465607,-11.962054,3.6786878
1.9970793,0.97122604,-3.3805244,12.143798,-18.78759,0.92315006
2.092451,0.91400707,-3.1688213,8.235437,-24.736534,-1.9685012
2.180517,0.79510283,-2.8450506,4.684473,-29.634617,-4.7698073
2.2990444,0.6079934,-2.3640976,0.94986695,-33.561325,-7.039486
2.496401,0.34390995,-1.8222607,-2.4017434,-36.041958,-9.145126
2.7101445,0.02032133,-1.2929734,-5.128807,-37.253277,-10.987911
2.8414733,-0.3149936,-0.8530785,-7.528354,-37.600494,-12.11311
2.8495786,-0.61483777,-0.5319236,-9.18312,-37.09288,-11.913924
2.7882636,-0.7990878,-0.28431165,-10.445778,-35.84963,-11.118632
2.6997032,-0.91985804,-0.08460748,-11.202968,-33.97302,-10.195151
2.5990796,-0.97674084,0.07040846,-11.745053,-31.62792,-9.228798
2.49805,-0.9778109,0.16698253,-12.629876,-29.33779,-8.330949
2.4178398,-0.94641435,0.16162087,-12.224342,-28.395779,-8.063449
2.3403528,-0.91608363,0.15644124,-11.832577,-27.485752,-7.805032
2.2654831,-0.8867774,0.15143657,-11.454043,-26.60646,-7.5553427
2.19313,-0.85845625,0.14660011,-11.088234,-25.756727,-7.314047
2.123198,-0.83108276,0.1419255,-10.734665,-24.935425,-7.0808244
2.0555959,-0.8046213,0.13740662,-10.392876,-24.141487,-6.8553724
1.9902369,-0.77903783,0.13303769,-10.0624275,-23.373894,-6.637402
1.9270384,-0.7543001,0.12881318,-9.742903,-22.631674,-6.426636
1.8659217,-0.7303772,0.12472782,-9.433903,-21.9139,-6.222813
1.8068111,-0.70723957,0.12077657,-9.135046,-21.21969,-6.0256805
1.7496347,-0.68485904,0.11695461,-8.845969,-20.548195,-5.8349986
1.6943238,-0.66320866,0.11325733,-8.566322,-19.898607,-5.6505375
1.6408122,-0.64226264,0.10968034,-8.2957735,-19.270153,-5.4720774
1.5890368,-0.6219962,0.10621941,-8.034002,-18.662088,-5.299407
1.5389371,-0.6023857,0.10287049,-7.7807035,-18.073704,-5.1323256
1.490455,-0.5834084,0.0996297,-7.5355835,-17.504316,-4.970639
1.443535,-0.5650425,0.09649332,-7.298361,-16.953276,-4.814162
1.3981235,-0.5472671,0.09345778,-7.0687647,-16.419949,-4.662715
1.3541691,-0.530062,0.090519644,-6.846536,-15.903737,-4.516128
1.3116225,-0.513408,0.08767561,-6.631425,-15.4040575,-4.374236
1.2704363,-0.4972865,0.08492251,-6.4231915,-14.920356,-4.236881
1.2305648,-0.48167962,0.08225729,-6.221606,-14.452093,-4.10391
1.1919641,-0.46657017,0.07967702,-6.026445,-13.998756,-3.9751775
1.1545919,-0.4519416,0.07717888,-5.8374953,-13.559848,-3.850542
1.1184076,-0.437778,0.07476013,-5.654551,-13.13489,-3.7298682
1.083372,-0.42406398,0.07241817,-5.4774146,-12.72342,-3.613025
1.0494472,-0.4107848,0.07015046,-5.305894,-12.324998,-3.499886
1.0165967,-0.39792615,0.06795456,-5.139806,-11.939194,-3.3903306
0.98478556,-0.38547435,0.065828145,-4.978972,-11.565595,-3.284241
0.95397985,-0.37341607,0.06376893,-4.8232217,-11.203804,-3.1815045
0.9241469,-0.36173853,0.061774738,-4.672389,-10.853436,-3.0820122
0.8952551,-0.35042945,0.059843462,-4.526315,-10.514123,-2.9856584
0.86727405,-0.33947682,0.057973064,-4.384846,-10.185506,-2.8923423
0.8401744,-0.3288692,0.056161582,-4.247833,-9.86724,-2.8019655
0.81392765,-0.31859547,0.05440712,-4.1151323,-9.558991,-2.7144332
0.7885065,-0.3086449,0.05270784,-3.986606,-9.260439,-2.6296542
0.7638845,-0.2990071,0.051061977,-3.8621194,-8.9712715,-2.5475402
0.740036,-0.28967208,0.04946782,-3.741544,-8.691188,-2.468006
0.7169363,-0.28063017,0.047923718,-3.6247542,-8.419898,-2.3909688
0.6945615,-0.27187198,0.046428066,-3.5116293,-8.157122,-2.316349
0.6728884,-0.2633885,0.04497933,-3.4020529,-7.902588,-2.24407
0.65189487,-0.25517103,0.043576013,-3.2959116,-7.656034,-2.174057
0.6315592,-0.24721104,0.04221667,-3.1930966,-7.417206,-2.106238
0.6118605,-0.23950039,0.04089991,-3.093502,-7.185859,-2.040543
0.5927786,-0.23203117,0.039624378,-2.9970262,-6.961756,-1.9769053
0.57429403,-0.22479576,0.038388774,-2.9035702,-6.744668,-1.9152596
0.55638784,-0.21778673,0.03719183,-2.813038,-6.534373,-1.8555428
0.53904176,-0.21099696,0.036032327,-2.7253382,-6.3306556,-1.7976938
0.5222381,-0.2044195,0.034909084,-2.6403806,-6.1333084,-1.7416539
0.5059597,-0.19804765,0.033820953,-2.5580788,-5.9421306,-1.6873659
0.4901901,-0.19187497,0.032766834,-2.4783494,-5.756928,-1.6347746
0.4749132,-0.18589514,0.031745646,-2.4011111,-5.5775123,-1.5838265
0.46011358,-0.18010212,0.030756364,-2.3262856,-5.4037013,-1.53447
0.44577616,-0.17449003,0.029797975,-2.2537973,-5.2353187,-1.4866549
0.4318864,-0.16905318,0.028869513,-2.183572,-5.0721936,-1.4403329
0.4184303,-0.16378605,0.027970038,-2.1155396,-4.914161,-1.395457
0.4053942,-0.15868334,0.027098639,-2.0496304,-4.7610617,-1.3519819
0.39276496,-0.15373987,0.026254434,-1.9857781,-4.6127405,-1.3098636
0.38052976,-0.14895065,0.02543657,-1.9239182,-4.4690466,-1.2690594
0.36867628,-0.14431085,0.024644224,-1.8639884,-4.3298364,-1.2295283
0.35719258,-0.13981579,0.023876593,-1.805928,-4.1949687,-1.1912304
0.34606704,-0.13546093,0.023132905,-1.7496785,-4.064307,-1.154127
0.33528847,-0.13124187,0.02241241,-1.6951832,-3.9377205,-1.1181806
0.324846,-0.12715438,0.02171438,-1.6423872,-3.8150814,-1.0833552
0.31472912,-0.12319433,0.021038117,-1.5912372,-3.696266,-1.0496156
0.30492765,-0.119357735,0.020382935,-1.541682,-3.5811546,-1.0169278
0.2954317,-0.115640745,0.019748177,-1.4936715,-3.4696317,-0.98525906
0.28623176,-0.11203961,0.019133205,-1.4471575,-3.361585,-0.9545774
0.27731854,-0.10855071,0.0185374,-1.4020932,-3.2569056,-0.924852
0.2686831,-0.10517055,0.017960163,-1.3584334,-3.1554887,-0.89605296
0.26031676,-0.10189572,0.017400915,-1.3161341,-3.0572321,-0.8681514
0.25221112,-0.09872293,0.016859092,-1.2751528,-2.9620373,-0.8411193
0.24435805,-0.095649004,0.016334152,-1.2354485,-2.8698087,-0.8149294
0.23674965,-0.09267085,0.015825566,-1.1969812,-2.7804534,-0.78955555
0.22937828,-0.08978547,0.015332826,-1.1597124,-2.693882,-0.76497215
0.22223656,-0.08698999,0.014855436,-1.1236045,-2.6100075,-0.7411547
0.2153173,-0.084281586,0.014392918,-1.0886215,-2.528746,-0.7180791
0.20861357,-0.08165755,0.0139448065,-1.0547283,-2.4500155,-0.6957223
0.20211866,-0.07911525,0.013510653,-1.0218906,-2.3737376,-0.6740619
0.19582605,-0.07665213,0.013090022,-0.9900758,-2.2998352,-0.6530761
0.18972942,-0.07426573,0.012682492,-0.95925194,-2.2282348,-0.63274395
0.18382268,-0.071953654,0.012287655,-0.92938805,-2.1588643,-0.6130451
0.17809987,-0.069713585,0.011905113,-0.90045416,-2.0916543,-0.5939597
0.1725553,-0.067543276,0.011534486,-0.8724214,-2.0265372,-0.57546866
0.1671834,-0.06544055,0.0111754,-0.84526163,-1.9634482,-0.5575534
0.16197878,-0.06340331,0.010827497,-0.8189476,-1.9023236,-0.5401961
0.15693623,-0.061429504,0.010490426,-0.79345304,-1.8431025,-0.5233793
0.1520507,-0.05951716,0.010163852,-0.7687523,-1.7857255,-0.50708616
0.14731729,-0.057664365,0.009847447,-0.7448207,-1.7301351,-0.49130034
0.14273128,-0.055869263,0.009540894,-0.72163427,-1.6762756,-0.47600606
0.13828805,-0.05413005,0.009243886,-0.6991698,-1.6240932,-0.46118802
0.13398318,-0.052444994,0.008956126,-0.67740476,-1.5735354,-0.44683132
0.12981233,-0.050812405,0.008677325,-0.6563175,-1.524552,-0.43292165
0.12577134,-0.049230643,0.008407205,-0.63588667,-1.4770936,-0.41944504
0.121856175,-0.04769813,0.008145495,-0.61609197,-1.4311126,-0.406388
0.118062906,-0.04621333,0.0078919325,-0.5969136,-1.3865634,-0.39373752
0.11438773,-0.044774756,0.0076462654,-0.5783323,-1.3434012,-0.38148087
0.11082697,-0.04338097,0.007408246,-0.5603295,-1.3015827,-0.36960584
0.107377075,-0.042030577,0.007177637,-0.54288715,-1.2610661,-0.35810047
0.10403458,-0.040722225,0.0069542076,-0.52598786,-1.2218109,-0.34695333
0.10079614,-0.039454605,0.0067377337,-0.50961465,-1.1837778,-0.3361532
0.09765852,-0.038226448,0.006527999,-0.4937512,-1.1469288,-0.32568932
0.09461858,-0.037036523,0.0063247937,-0.47838157,-1.1112268,-0.31555116
0.09167328,-0.035883646,0.0061279144,-0.46349043,-1.0766364,-0.30572864
0.08881967,-0.034766655,0.005937164,-0.44906285,-1.0431228,-0.2962119
0.08605489,-0.03368444,0.0057523525,-0.43508443,-1.0106524,-0.28699142
0.083376184,-0.032635916,0.0055732937,-0.42154118,-0.979193,-0.27805796
0.08078086,-0.03162003,0.005399809,-0.4084195,-0.94871277,-0.26940262
0.07826633,-0.030635769,0.005231725,-0.39570633,-0.91918147,-0.26101673
0.07583008,-0.029682146,0.0050688735,-0.38338888,-0.89056945,-0.25289187
0.07346967,-0.028758211,0.004911091,-0.3714549,-0.8628481,-0.24501993
0.071182735,-0.027863037,0.0047582206,-0.3598924,-0.8359897,-0.23739305
0.06896699,-0.02699573,0.004610109,-0.34868982,-0.8099674,-0.2300036
0.06682022,-0.02615542,0.004466608,-0.337836,-0.7847552,-0.22284415
0.06474028,-0.025341269,0.004327574,-0.32732,-0.76032776,-0.21590759
