ax,ay,az,gx,gy,gz
0.26091146,-1.6663787,-5.6900516,20.696552,-40.838554,-5.437322
-0.100684784,-1.6633395,-6.528609,18.134802,-55.55064,-7.1214795
0.0788936,-1.8264285,-6.7691708,16.041721,-67.55992,-6.2600875
0.56094587,-2.3879123,-6.764967,13.892623,-75.226585,-0.58860767
0.9845765,-3.0818613,-6.7633953,14.186292,-80.15798,6.873498
1.1699953,-3.7612205,-6.7591925,17.939388,-85.37688,14.72558
1.1567223,-4.231047,-6.5102487,20.34443,-91.389275,23.634962
1.1363994,-4.362613,-5.9993863,18.133038,-97.80661,33.12863
1.2054961,-4.3391595,-5.288366,13.932939,-103.29289,42.283913
1.3814778,-4.2895327,-4.4601207,10.6856165,-106.511505,49.82112
1.5721812,-4.1541405,-3.525025,9.603473,-106.02139,55.700527
1.6746017,-3.7801373,-2.4825695,9.70156,-103.09215,59.956707
1.7068605,-3.3071446,-1.4733889,9.745848,-98.414185,63.257824
1.7281917,-2.8196096,-0.5296921,9.2936945,-92.24933,65.89065
1.7322078,-2.35913,0.27635074,8.878312,-85.16248,67.62284
1.7117229,-1.9007311,0.960835,8.815206,-76.99084,67.58231
1.6913944,-1.452498,1.5709109,9.143401,-68.18778,65.963
1.6933117,-1.073804,2.0942025,9.232977,-58.67504,63.598015
1.7072333,-0.79078054,2.4597607,8.934203,-49.14827,61.056217
1.7118506,-0.61640483,2.635947,9.688813,-40.00862,58.807796
1.6859584,-0.46990183,2.6459982,10.125849,-32.522675,56.215153
1.6585603,-0.34743604,2.559075,10.477753,-25.95083,53.46578
1.6348704,-0.2354857,2.4268973,11.119596,-20.00793,50.378113
1.6223506,-0.08641547,2.2694237,11.937129,-14.368195,47.030212
1.5989741,0.10109896,2.077313,12.565944,-9.386947,43.44544
1.5523636,0.34619796,1.8427633,13.290181,-5.2412333,39.046154
1.4829155,0.63031024,1.6007981,14.120833,-1.973919,33.83074
1.4235607,0.9354494,1.3844498,14.087663,0.4682682,28.22769
1.3748313,1.2199101,1.2100648,13.323294,2.519304,22.491247
1.329511,1.4343958,1.0965749,11.895471,4.4299603,16.670938
1.2837678,1.5242083,1.0261872,9.946837,6.134724,11.402716
1.2657927,1.4351314,1.028621,8.233304,7.779999,6.6026344
1.2894533,1.2283394,1.0906681,7.0830584,9.618188,2.2249486
1.3483841,0.9318088,1.1874187,6.060791,11.759685,-1.265874
1.4188551,0.5713482,1.2866263,4.9128313,14.024098,-3.6889606
1.5043666,0.16376416,1.3631057,3.9366448,16.461052,-4.8663926
1.5877132,-0.27409634,1.396234,3.40915,19.017237,-5.1994414
1.6524887,-0.6803584,1.3934224,3.3684094,21.534124,-4.631042
1.7008798,-1.0154029,1.3497277,3.8393672,24.092228,-3.300602
1.7294786,-1.29007,1.2638081,4.6229577,26.532179,-1.327529
1.749845,-1.5034274,1.144771,5.7416773,28.923845,1.3214766
1.7579575,-1.6184146,0.9811354,7.0901895,31.183548,3.9582684
1.752625,-1.6711353,0.7759144,8.646,33.108883,6.4328375
1.7380716,-1.6850976,0.52828366,10.287133,34.395237,8.827988
1.7239636,-1.6597885,0.24749628,11.903156,34.81496,11.225692
1.7061383,-1.5961341,-0.057937857,13.294468,34.033573,13.44226
1.7133127,-1.4629323,-0.38014647,14.554664,32.608185,15.5042
1.7264382,-1.2670254,-0.71454537,15.728073,30.566597,16.927656
1.7421407,-1.0093051,-1.0590506,16.617287,27.951231,17.534582
1.7273536,-0.7263615,-1.4104013,17.080276,24.582403,17.447088
1.6855536,-0.4607469,-1.7624333,16.794462,20.0829,17.183912
1.6406964,-0.20598793,-2.1131394,16.347572,14.937109,16.5744
1.6037916,0.030935306,-2.442663,15.630167,9.301818,15.313166
1.5451897,0.2490742,-2.7341883,14.379384,3.238833,13.916626
1.4461317,0.5481813,-2.9403687,11.951843,-3.2942321,11.700531
1.3284445,0.8184567,-3.0487661,8.652864,-10.227322,8.518618
1.2715417,0.9262332,-3.0476558,5.27549,-17.347174,4.900809
1.3523418,0.85150343,-2.9248672,1.7941114,-24.071732,1.6677395
1.5553063,0.6382857,-2.6595297,-1.5685331,-29.793709,-0.921115
1.8266604,0.35049567,-2.2438834,-4.412089,-34.201015,-3.1098082
2.1026084,0.047354892,-1.7364165,-6.1422873,-36.521904,-4.8624935
2.2891986,-0.22547628,-1.2682586,-7.529152,-37.604763,-6.0515647
2.3845632,-0.47767207,-0.89972585,-8.773139,-38.145,-6.6035733
2.4028594,-0.72131747,-0.6130543,-9.629725,-38.28478,-6.553996
2.3708184,-0.91612256,-0.37579936,-9.832433,-37.98579,-6.103556
2.311294,-1.0090102,-0.17351854,-9.599017,-37.079678,-5.7076654
2.232158,-1.0116378,-0.014447648,-9.256167,-35.830715,-5.471931
2.1543193,-0.97575575,0.11017075,-9.362275,-34.411102,-5.166069
2.0784905,-0.9303809,0.20217621,-9.823503,-32.717567,-4.8353896
2.0024564,-0.8929335,0.25357226,-10.364639,-30.7265,-4.558599
1.9350371,-0.8709025,0.2686461,-11.050989,-28.432524,-4.0442085
1.8770089,-0.8529411,0.24961177,-11.9688015,-25.946854,-3.3392613
1.8196923,-0.82661873,0.21129677,-12.943503,-23.34568,-2.7583733
1.76198,-0.80040216,0.2045954,-12.532995,-22.60526,-2.6708903
1.7061622,-0.7750462,0.19811402,-12.135962,-21.889149,-2.5862792
1.6521709,-0.75052,0.19184473,-11.751921,-21.19647,-2.5044367
1.599941,-0.7267939,0.18577996,-11.380408,-20.526388,-2.4252641
1.5494103,-0.7038396,0.1799125,-11.020983,-19.878105,-2.3486674
1.500519,-0.68163013,0.1742354,-10.673219,-19.250858,-2.2745557
1.4532102,-0.6601395,0.16874205,-10.33671,-18.64391,-2.202843
1.4074289,-0.6393427,0.16342607,-10.011066,-18.05656,-2.1334455
1.3631226,-0.619216,0.15828136,-9.695914,-17.488132,-2.0662837
1.3202406,-0.59973633,0.15330206,-9.390895,-16.93798,-2.0012815
1.2787348,-0.5808818,0.14848253,-9.095663,-16.405483,-1.9383649
1.2385582,-0.5626311,0.14381737,-8.809886,-15.890039,-1.8774635
1.1996663,-0.5449639,0.13930136,-8.533247,-15.391077,-1.8185093
1.1620158,-0.5278607,0.13492951,-8.265439,-14.908042,-1.761437
1.1255654,-0.51130265,0.130697,-8.006166,-14.440403,-1.7061838
1.0902752,-0.49527153,0.12659921,-7.755146,-13.987647,-1.6526891
1.0561064,-0.47975,0.122631654,-7.512104,-13.549281,-1.6008947
1.0230224,-0.46472117,0.118790045,-7.276777,-13.124831,-1.5507445
0.9909874,-0.45016882,0.11507024,-7.048911,-12.713839,-1.5021843
0.95996696,-0.43607736,0.11146824,-6.828262,-12.315863,-1.455162
0.9299278,-0.42243174,0.1079802,-6.614593,-11.930477,-1.4096274
0.90083814,-0.40921736,0.104602404,-6.4076777,-11.557272,-1.3655319
0.872667,-0.39642027,0.101331264,-6.207296,-11.195851,-1.3228288
0.84538466,-0.38402689,0.09816332,-6.013236,-10.845833,-1.2814729
0.81896234,-0.3720242,0.09509525,-5.825293,-10.506848,-1.2414207
0.7933722,-0.36039957,0.09212381,-5.6432705,-10.178541,-1.20263
0.7685876,-0.34914085,0.0892459,-5.466977,-9.860568,-1.1650604
0.7445826,-0.33823624,0.08645851,-5.296229,-9.552596,-1.1286725
0.72133213,-0.32767442,0.08375874,-5.130848,-9.254306,-1.0934284
0.6988121,-0.3174444,0.08114379,-4.9706626,-8.965385,-1.0592915
0.67699915,-0.30753562,0.07861094,-4.815507,-8.685537,-1.0262264
0.65587074,-0.29793775,0.07615758,-4.66522,-8.414471,-0.994199
0.635405,-0.28864092,0.07378116,-4.519647,-8.151906,-0.96317613
0.6155809,-0.27963558,0.07147925,-4.378638,-7.897574,-0.9331258
0.596378,-0.2709124,0.06924948,-4.2420473,-7.6512113,-0.9040172
0.5777767,-0.2624625,0.06708955,-4.1097355,-7.4125657,-0.8758204
0.55975777,-0.25427717,0.06499725,-3.9815667,-7.1813927,-0.8485065
0.54230285,-0.24634807,0.062970445,-3.8574097,-6.9574556,-0.8220476
0.5253941,-0.23866706,0.061007056,-3.7371376,-6.7405252,-0.7964165
0.50901425,-0.23122631,0.059105083,-3.6206274,-6.530381,-0.77158725
0.49314666,-0.22401823,0.05726259,-3.5077608,-6.326808,-0.74753433
0.47777507,-0.2170355,0.05547769,-3.3984225,-6.1295986,-0.72423345
0.46288392,-0.210271,0.053748578,-3.2925014,-5.9385533,-0.70166075
0.44845805,-0.20371786,0.052073494,-3.18989,-5.753477,-0.67979336
0.43448284,-0.19736944,0.050450735,-3.090484,-5.5741825,-0.65860903
0.42094406,-0.19121929,0.04887866,-2.9941826,-5.4004874,-0.6380864
0.40782806,-0.18526116,0.04735567,-2.9008882,-5.2322164,-0.61820453
0.39512154,-0.17948906,0.04588023,-2.8105063,-5.069198,-0.5989434
0.38281164,-0.17389712,0.04445084,-2.7229457,-4.911268,-0.58028346
0.37088588,-0.1684797,0.043066062,-2.6381178,-4.7582674,-0.56220585
0.35933226,-0.16323131,0.041724496,-2.5559366,-4.6100407,-0.54469234
0.34813908,-0.15814666,0.04042478,-2.4763193,-4.4664383,-0.5277252
0.3372951,-0.15322064,0.03916561,-2.3991857,-4.3273153,-0.5112874
0.3267893,-0.14844826,0.03794571,-2.324458,-4.192532,-0.49536222
0.31661114,-0.1438247,0.036763858,-2.2520607,-4.0619516,-0.4799337
0.30675036,-0.13934532,0.035618857,-2.1819208,-3.9354432,-0.46498632
0.29719704,-0.1350056,0.034509555,-2.113968,-3.8128793,-0.45050496
0.28794158,-0.13080117,0.033434838,-2.0481334,-3.6941364,-0.43647507
0.2789746,-0.1267278,0.032393623,-1.9843512,-3.579095,-0.42288253
0.27028713,-0.12278142,0.031384863,-1.9225571,-3.4676394,-0.40971366
0.26187044,-0.11895802,0.030407544,-1.8626889,-3.3596575,-0.39695522
0.25371602,-0.115253784,0.029460682,-1.8046865,-3.2550411,-0.38459444
0.24581575,-0.11166498,0.028543327,-1.7484918,-3.1536846,-0.37261882
0.23816164,-0.108188,0.027654557,-1.6940479,-3.0554864,-0.36101636
0.23074602,-0.10481936,0.026793478,-1.6413006,-2.9603481,-0.34977543
0.22356145,-0.101555675,0.02595923,-1.5901965,-2.8681738,-0.3388847
0.2166007,-0.098393664,0.02515097,-1.5406846,-2.7788713,-0.32833332
0.20985681,-0.095330164,0.024367891,-1.4927151,-2.6923506,-0.3181106
0.20332299,-0.09236209,0.023609206,-1.44624,-2.6085253,-0.30820635
0.1969927,-0.08948648,0.022874152,-1.4012126,-2.527311,-0.2986106
0.19085959,-0.08670043,0.022161996,-1.3575876,-2.4486265,-0.28931373
0.18491751,-0.08400116,0.02147202,-1.3153214,-2.3723927,-0.28030646
0.17916049,-0.08138596,0.020803535,-1.2743717,-2.2985334,-0.2715797
0.17358278,-0.07885222,0.02015587,-1.2346973,-2.2269742,-0.26312476
0.16817878,-0.07639738,0.019528374,-1.1962585,-2.1576438,-0.25493312
0.16294307,-0.07401899,0.01892042,-1.1590168,-2.0904725,-0.2469966
0.15787041,-0.07171467,0.0183314,-1.1229349,-2.0253928,-0.23930721
0.15295571,-0.0694821,0.01776072,-1.0879767,-1.96234,-0.2318573
0.14819406,-0.067319065,0.017207813,-1.054107,-1.9012505,-0.22463936
0.14358068,-0.06522337,0.016672121,-1.0212919,-1.8420633,-0.21764618
0.13911095,-0.06319294,0.016153112,-0.9894986,-1.7847191,-0.21087077
0.13478039,-0.061225735,0.015650261,-0.9586953,-1.7291604,-0.20430632
0.13058469,-0.059319776,0.015163069,-0.9288511,-1.6753316,-0.19794627
0.1265196,-0.057473164,0.0146910455,-0.8999362,-1.623179,-0.19178423
0.1225811,-0.05568405,0.01423372,-0.87192154,-1.57265,-0.18581407
0.11876522,-0.053950634,0.013790632,-0.8447791,-1.5236943,-0.18002978
0.115068145,-0.05227119,0.013361339,-0.81848174,-1.4762628,-0.17442559
0.11148618,-0.050644036,0.012945413,-0.79300314,-1.4303081,-0.16899587
0.10801573,-0.04906754,0.012542436,-0.76831776,-1.385784,-0.16373521
0.10465333,-0.047540125,0.012152004,-0.744401,-1.3426462,-0.15863833
0.10139561,-0.046060264,0.011773729,-0.7212287,-1.3008515,-0.15370011
0.0982393,-0.04462647,0.011407229,-0.6987779,-1.2603577,-0.14891565
0.095181264,-0.043237317,0.011052139,-0.67702603,-1.2211248,-0.14428014
0.09221843,-0.04189141,0.010708105,-0.6559513,-1.1831131,-0.13978894
0.08934783,-0.040587407,0.01037478,-0.6355327,-1.1462849,-0.13543755
0.0865666,-0.039323993,0.010051833,-0.6157497,-1.1106032,-0.13122162
0.083871946,-0.038099915,0.009738938,-0.5965826,-1.0760322,-0.12713695
0.08126118,-0.03691394,0.009435784,-0.57801217,-1.0425375,-0.123179436
0.078731686,-0.035764884,0.009142068,-0.5600199,-1.0100855,-0.11934511
0.076280944,-0.034651604,0.008857495,-0.5425877,-0.9786437,-0.11563016
0.07390649,-0.033572976,0.008581781,-0.5256981,-0.9481807,-0.11203085
0.07160594,-0.032527924,0.00831465,-0.5093343,-0.918666,-0.10854358
0.06937702,-0.03151541,0.008055834,-0.49347997,-0.8900701,-0.10516488
0.067217484,-0.030534409,0.0078050755,-0.47811913,-0.86236435,-0.10189135
0.06512517,-0.029583948,0.007562123,-0.46323645,-0.83552104,-0.09871972
0.06309798,-0.028663073,0.007326733,-0.44881707,-0.8095134,-0.09564682
0.061133903,-0.027770866,0.0070986706,-0.43484652,-0.7843153,-0.092669584
