ax,ay,az,gx,gy,gz
-0.16545604,0.27000245,-0.5527323,38.507626,-32.793026,16.0356
0.052506648,0.33051258,-0.16406278,29.117115,-31.563251,11.94294
0.41138026,0.13870955,0.058941998,19.332584,-25.939114,11.278852
0.5660056,-0.0874216,0.10179753,13.658534,-19.813265,10.101609
0.515691,-0.2477497,-0.10434923,11.54171,-16.470028,8.626415
0.39874074,-0.27493146,-0.41259915,10.742773,-16.148312,6.7139454
0.27560413,-0.21385399,-0.7730427,10.655599,-17.74624,4.4751334
0.15803081,-0.062445194,-1.1238959,10.0375,-20.555342,1.6424866
0.08112846,-0.021584775,-1.3816987,7.9757895,-23.70647,0.42857638
0.118196264,-0.17973018,-1.6123643,6.0938544,-26.365143,0.4470581
0.22143368,-0.47721022,-1.8422539,4.6315913,-27.86257,1.8684747
0.2744667,-0.8508384,-2.134119,4.2746077,-29.70034,4.568043
0.24597019,-1.171998,-2.4317672,4.372282,-32.95114,7.1376133
0.18223545,-1.3925626,-2.6202931,3.6408243,-37.904972,9.369338
0.16362602,-1.602275,-2.6190705,2.0760026,-43.10424,12.491136
0.22212051,-1.8277053,-2.5088167,0.34874448,-47.852093,16.228624
0.34762296,-2.0924141,-2.2875645,-1.0860218,-51.11961,20.719034
0.4394302,-2.3329818,-1.9998623,-2.0494835,-52.720856,25.723253
0.47198936,-2.4676178,-1.6708342,-2.0757668,-52.8918,31.120766
0.46596503,-2.4799678,-1.2751514,-1.6535333,-52.41997,36.39537
0.45586476,-2.3636873,-0.84252375,-1.00385,-51.249626,41.022087
0.4341799,-2.1702409,-0.37145072,-0.15989846,-49.711285,44.39818
0.4399984,-1.9292411,0.11476733,0.8170588,-47.63095,46.760975
0.49458712,-1.6477078,0.58731186,1.9850098,-44.598454,47.92971
0.6212616,-1.3671666,1.0211363,3.010189,-40.22948,48.819626
0.7268411,-1.094273,1.3631028,3.8965867,-35.06036,49.05662
0.8016383,-0.8377411,1.6247058,4.5043817,-29.342844,48.790756
0.8415199,-0.5734773,1.8103185,4.7412705,-23.695566,47.946415
0.8483447,-0.24216624,1.9231753,4.910328,-18.301487,45.871147
0.84060675,0.10610997,1.9714495,5.540254,-13.116509,43.154667
0.8224419,0.44574913,1.9758209,6.281488,-8.485887,39.94933
0.85379523,0.7266768,1.982257,7.0962667,-3.869063,36.34699
0.92247885,0.96169114,1.9824069,8.036061,0.47250155,32.16635
1.0007563,1.1783481,1.9568962,9.155219,4.123997,26.884825
1.0653875,1.4159669,1.9095213,9.951643,7.270423,21.040876
1.1041415,1.5897766,1.8669783,10.000615,10.176537,15.037
1.1284559,1.6572602,1.8217057,9.601604,13.016597,9.177182
1.1655114,1.5824327,1.7790011,8.994145,15.999494,3.6655133
1.2122756,1.351531,1.73765,9.006851,19.028261,-0.88614756
1.2718678,0.9969701,1.6902004,9.181897,21.954681,-4.4313006
1.3502215,0.5701789,1.6234663,9.439468,24.58058,-6.8806744
1.4712067,0.08404811,1.5453224,9.678855,27.0727,-7.932174
1.6106653,-0.42005095,1.4361064,10.165924,29.491497,-7.7238936
1.7438935,-0.8903098,1.2938217,11.198045,31.927996,-6.108159
1.84547,-1.2706541,1.0917675,12.611277,34.170856,-3.5935812
1.9165171,-1.5648935,0.8354951,14.272799,36.033386,-0.28936672
1.9550881,-1.7726488,0.51133865,16.198624,37.235527,3.4220781
1.961739,-1.8652993,0.13700043,18.224163,37.71266,6.9764977
1.9264942,-1.8445938,-0.27162075,19.991747,36.86802,10.3033085
1.87301,-1.7028867,-0.71327394,21.290197,34.9041,13.38705
1.8427563,-1.5105437,-1.1432202,22.1243,31.87417,16.167458
1.8314878,-1.2687465,-1.5429671,22.815697,28.168072,17.992868
1.807886,-0.97650903,-1.9011265,23.666353,24.09921,19.055622
1.7674756,-0.583826,-2.2264314,23.650608,19.192556,19.207478
1.727011,-0.1984578,-2.50618,22.668983,13.720248,19.04633
1.6897521,0.1333863,-2.7619019,20.93793,7.573203,18.000835
1.6348122,0.4131777,-2.963118,18.95487,1.2368124,16.30906
1.5602273,0.6744043,-3.0962377,16.805433,-5.0406585,14.090302
1.4907972,0.91830176,-3.1445482,13.698124,-11.426221,11.418645
1.4809016,1.0773124,-3.0804596,10.174394,-17.63459,8.42046
1.5128349,1.0985781,-2.9098477,6.3466682,-23.699404,5.3574953
1.6124951,0.94097775,-2.6154237,2.0735729,-29.379877,2.8506222
1.8695381,0.6382216,-2.1452127,-2.2679424,-33.70102,1.1646913
2.1997626,0.24441993,-1.5745858,-4.8555803,-35.2889,-0.38232806
2.4091926,-0.11214903,-1.0612905,-6.4176555,-35.49083,-1.6228936
2.4801154,-0.38773656,-0.6627753,-7.5814924,-35.095955,-2.2429876
2.4527748,-0.5725338,-0.3704085,-8.582561,-34.31155,-2.1945636
2.3616083,-0.6823411,-0.167222,-9.266697,-33.229507,-1.9642439
2.2432296,-0.73956156,-0.03014067,-9.358654,-31.889505,-1.7202363
2.1367521,-0.73323005,0.06510994,-9.249006,-30.175888,-1.4415693
2.0353503,-0.69829446,0.12518808,-8.7290945,-28.161804,-1.2304853
1.9385215,-0.6377463,0.15802698,-8.257467,-26.115572,-0.97788554
1.8490216,-0.5681173,0.17047377,-8.2413845,-24.239704,-0.7433208
1.7768683,-0.52596384,0.16779464,-8.73109,-22.619215,-0.5455334
1.7142115,-0.50961864,0.14594264,-9.448331,-21.224003,-0.31942344
1.6607249,-0.49121338,0.10392005,-10.930124,-19.95748,0.09820753
1.6082246,-0.4756847,0.100634836,-10.584592,-19.326565,0.095102906
1.5574323,-0.4606612,0.0974565,-10.250299,-18.716177,0.09209928
1.5082879,-0.44612518,0.09438128,-9.926854,-18.125593,0.08919311
1.4607341,-0.4320596,0.0914056,-9.613877,-17.554123,0.086381
1.4147158,-0.41844818,0.088525996,-9.311006,-17.001104,0.08365969
1.37018,-0.4052753,0.085739166,-9.017892,-16.465904,0.081026055
1.3270761,-0.39252588,0.083041936,-8.734201,-15.94791,0.07847709
1.2853553,-0.3801856,0.08043125,-8.459615,-15.446538,0.07600992
1.2449708,-0.36824057,0.07790419,-8.193823,-14.961224,0.073621765
1.2058774,-0.35667747,0.075457916,-7.936528,-14.491427,0.07130997
1.168032,-0.34548345,0.07308974,-7.6874475,-14.036627,0.06907197
1.131393,-0.33464625,0.07079704,-7.4463058,-13.596322,0.066905305
1.09592,-0.32415393,0.06857731,-7.2128386,-13.170031,0.064807594
1.0615743,-0.31399512,0.06642813,-6.986792,-12.757289,0.06277656
1.0283191,-0.3041588,0.06434718,-6.767921,-12.35765,0.060809996
0.9961182,-0.29463434,0.062332205,-6.5559897,-11.97068,0.058905784
0.9649371,-0.2854115,0.060381047,-6.35077,-11.595967,0.05706188
0.93474245,-0.27648047,0.058491614,-6.1520433,-11.2331085,0.055276312
0.9055022,-0.2678317,0.0566619,-5.959597,-10.881719,0.053547177
0.8771852,-0.25945604,0.054889962,-5.7732277,-10.541424,0.051872645
0.84976155,-0.25134462,0.053173926,-5.592738,-10.211864,0.050250936
0.82320243,-0.24348888,0.051511984,-5.417938,-9.892694,0.048680354
0.79747987,-0.23588058,0.04990239,-5.248644,-9.583578,0.04715924
0.7725669,-0.22851178,0.04834346,-5.0846786,-9.284191,0.045686007
0.7484376,-0.22137475,0.046833567,-4.9258704,-8.994222,0.04425911
0.7250668,-0.21446207,0.045371134,-4.7720547,-8.7133665,0.042877067
0.7024301,-0.20776655,0.043954644,-4.6230707,-8.441335,0.041538443
0.68050426,-0.20128126,0.04258263,-4.4787645,-8.177844,0.04024185
0.6592665,-0.19499949,0.04125367,-4.3389874,-7.922622,0.038985945
0.63869476,-0.18891473,0.039966397,-4.2035937,-7.6754055,0.03776943
0.61876804,-0.18302076,0.03871948,-4.0724454,-7.4359393,0.036591057
0.5994657,-0.17731148,0.037511636,-3.9454064,-7.203977,0.03544961
0.58076805,-0.17178103,0.036341626,-3.822347,-6.979281,0.034343913
0.56265587,-0.16642375,0.03520825,-3.7031407,-6.761621,0.033272844
0.5451106,-0.16123417,0.034110356,-3.587666,-6.5507736,0.0322353
0.5281143,-0.15620697,0.03304681,-3.4758043,-6.3465233,0.031230217
0.51164967,-0.15133701,0.032016534,-3.3674417,-6.1486626,0.030256575
0.49569988,-0.14661935,0.031018475,-3.2624676,-5.956989,0.02931338
0.48024872,-0.14204916,0.030051617,-3.1607752,-5.771307,0.02839967
0.46528047,-0.13762182,0.029114977,-3.062261,-5.5914288,0.027514517
0.4507799,-0.13333282,0.028207604,-2.9668252,-5.417171,0.026657023
0.43673232,-0.12917778,0.027328575,-2.8743703,-5.2483563,0.025826314
0.42312348,-0.12515253,0.026477,-2.7848034,-5.0848145,0.02502155
0.4099396,-0.121252954,0.025652014,-2.6980329,-4.9263787,0.024241915
0.39716727,-0.11747512,0.024852784,-2.6139712,-4.7728896,0.02348662
0.3847936,-0.11381522,0.024078501,-2.5325336,-4.6241913,0.0227549
0.3728061,-0.110269524,0.023328384,-2.4536376,-4.480134,0.022046015
0.36119267,-0.10683447,0.022601672,-2.3772032,-4.3405714,0.02135925
0.34994155,-0.10350659,0.02189763,-2.3031535,-4.205363,0.020693911
0.33904138,-0.10028251,0.021215552,-2.2314138,-4.0743723,0.020049328
0.32848123,-0.097159,0.02055475,-2.1619115,-3.947467,0.019424848
0.31825036,-0.09413289,0.019914553,-2.0945768,-3.8245196,0.018819842
0.30833855,-0.09120115,0.01929432,-2.029342,-3.705406,0.018233703
0.29873577,-0.088360816,0.018693423,-1.9661407,-3.590006,0.01766584
0.28943235,-0.085609026,0.018111262,-1.9049101,-3.478204,0.01711568
0.28041896,-0.08294302,0.017547248,-1.8455881,-3.369887,0.01658267
0.27168652,-0.08036012,0.017000815,-1.7881151,-3.2649465,0.016066274
0.26322624,-0.07785772,0.016471412,-1.7324336,-3.1632764,0.015565973
0.25502962,-0.07543331,0.015958507,-1.6784872,-3.064775,0.015081263
0.24708845,-0.07308444,0.015461586,-1.626222,-2.9693432,0.014611659
0.23939471,-0.07080877,0.01498015,-1.5755854,-2.8768852,0.014156687
0.23194069,-0.068604,0.014513714,-1.5265265,-2.7873077,0.013715891
0.22471891,-0.066467926,0.014061811,-1.4789962,-2.7005212,0.0132888295
0.21772213,-0.0643984,0.013623987,-1.4329466,-2.6164386,0.012875072
0.21094333,-0.062393345,0.013199802,-1.3883315,-2.5349755,0.012474204
0.20437568,-0.06045075,0.012788831,-1.3451062,-2.45605,0.012085825
0.19801262,-0.058568668,0.012390661,-1.3032275,-2.379583,0.011709543
0.19184776,-0.05674521,0.012004894,-1.2626532,-2.3054976,0.011344981
0.18587491,-0.054978546,0.011631142,-1.2233428,-2.23372,0.010991775
0.18008809,-0.053266905,0.011269032,-1.1852566,-2.164178,0.010649569
0.1744815,-0.051608574,0.010918199,-1.1483566,-2.0968015,0.010318022
0.16904952,-0.050001886,0.0105782915,-1.1126058,-2.0315237,0.0099968
0.1637867,-0.04844524,0.01024897,-1.0779684,-1.9682786,0.009685582
0.15868777,-0.046937067,0.009929905,-1.0444095,-1.9070032,0.009384055
0.15374762,-0.04547586,0.009620775,-1.0118958,-1.8476359,0.009091917
0.14896132,-0.044060152,0.009321271,-0.9803946,-1.7901173,0.008808878
0.14432405,-0.04268853,0.009031094,-0.9498742,-1.7343897,0.008534651
0.13983119,-0.04135962,0.008749952,-0.92030424,-1.6803974,0.0082689645
0.13547821,-0.040072083,0.008477564,-0.89165497,-1.6280863,0.00801155
0.13126077,-0.03882464,0.008213658,-0.86389774,-1.577404,0.00776215
0.12717465,-0.037616037,0.007957968,-0.8370048,-1.5282997,0.007520516
0.12321576,-0.036445066,0.0077102394,-0.81094915,-1.4807243,0.007286405
0.11938012,-0.03531055,0.007470224,-0.7857048,-1.4346303,0.007059584
0.1156639,-0.03421136,0.0072376817,-0.7612464,-1.3899713,0.006839824
0.11206339,-0.03314639,0.007012379,-0.7375495,-1.3467027,0.0066269063
0.10857497,-0.032114577,0.006794091,-0.7145903,-1.3047812,0.006420618
0.105195165,-0.03111489,0.006582599,-0.692346,-1.2641649,0.0062207514
0.101920575,-0.030146323,0.0063776914,-0.6707941,-1.2248131,0.0060271076
0.09874793,-0.029207911,0.0061791628,-0.64991325,-1.1866864,0.005839492
0.09567406,-0.028298713,0.005986815,-0.6296825,-1.1497467,0.005657718
0.092695884,-0.02741782,0.0058004553,-0.6100815,-1.1139569,0.005481602
0.08981042,-0.026564352,0.005619897,-0.5910907,-1.0792814,0.0053109694
0.08701479,-0.025737451,0.00544496,-0.57269114,-1.0456854,0.005145649
0.08430619,-0.024936294,0.005275469,-0.55486435,-1.0131352,0.004985475
0.08168191,-0.024160078,0.0051112543,-0.53759253,-0.9815984,0.004830287
0.079139315,-0.023408026,0.0049521513,-0.5208584,-0.95104325,0.0046799304
0.07667588,-0.022679385,0.0047980016,-0.5046452,-0.9214393,0.004534254
0.07428913,-0.021973426,0.0046486505,-0.48893672,-0.89275694,0.004393113
0.07197668,-0.021289444,0.0045039486,-0.47371724,-0.86496747,0.0042563654
0.06973621,-0.020626752,0.0043637515,-0.45897156,-0.8380431,0.0041238745
0.06756549,-0.01998469,0.004227918,-0.44468486,-0.8119568,0.0039955084
0.06546234,-0.019362617,0.0040963134,-0.4308429,-0.7866826,0.003871138
0.06342467,-0.018759908,0.0039688055,-0.41743186,-0.7621951,0.0037506393
0.06145042,-0.01817596,0.0038452668,-0.4044383,-0.73846996,0.0036338915
