ax,ay,az,gx,gy,gz
0.6572787,-0.96546334,-0.50000453,85.06168,-81.010735,50.6041
0.79103315,0.8691553,-0.66771877,64.0463,-94.292854,50.601192
1.0579575,2.9590192,-0.41477072,24.866865,-93.94,43.972675
1.7338817,3.242012,0.3252266,4.763785,-82.68717,35.538643
2.2066548,3.0111594,0.8823793,0.8131321,-66.51678,28.719358
2.8004897,2.9048886,1.2859464,2.3855953,-49.095028,19.471724
3.4287052,2.9895418,1.551855,9.711129,-29.996405,9.732198
3.6298072,3.2758658,1.4464396,10.983479,-15.995061,3.914857
3.6117284,3.2927446,1.4178342,9.474228,-6.7859645,-1.8843588
3.5421786,3.1298795,1.5263432,9.870787,-0.18169978,-8.712196
3.4840515,2.9392362,1.6584823,11.677082,4.981805,-15.163936
3.531862,2.81998,1.7814674,14.089019,10.021352,-21.440113
3.6656709,2.8382595,1.8434788,16.384663,16.430227,-28.54822
3.741444,2.8863616,1.8207709,18.536205,22.64723,-35.280525
3.7140539,2.8227105,1.7654328,20.621624,27.850721,-41.498116
3.645479,2.6748168,1.7126207,22.549402,31.969425,-47.329266
3.6169004,2.5153658,1.6514794,24.662638,35.707363,-52.94681
3.6277046,2.387161,1.5594232,26.039728,39.672752,-58.49896
3.590433,2.2615778,1.396594,27.678825,43.579437,-63.32577
3.4648898,2.085484,1.2023131,28.487514,46.71879,-67.260056
3.268441,1.8247901,0.98628205,29.810116,48.76717,-70.37254
3.0345297,1.5577523,0.7453734,30.8699,49.45134,-72.795616
2.8296862,1.3278291,0.49637923,31.416384,48.708664,-75.053345
2.6912801,1.1115298,0.2419873,31.756327,47.55428,-76.92845
2.588493,0.8980915,-0.005304268,31.324556,46.23512,-77.90481
2.506369,0.69987226,-0.24379429,30.422571,45.18303,-77.943115
2.4126961,0.5240021,-0.49437955,29.115948,44.225887,-77.65998
2.2892842,0.37333962,-0.759826,27.39165,43.099003,-77.3877
2.1383762,0.24288444,-1.0306623,24.855804,41.492676,-76.92267
1.9717803,0.11652991,-1.2947484,21.895441,39.55864,-75.99199
1.8023195,0.011231241,-1.5465201,18.501305,37.33389,-74.77601
1.6392246,-0.057949625,-1.7811122,14.808065,34.779186,-73.777336
1.482855,-0.119383365,-1.9953784,10.785946,31.670094,-73.18922
1.2995913,-0.21047094,-2.169609,6.6643786,28.159012,-72.30864
1.1058586,-0.35095832,-2.2865958,2.7529244,24.16893,-71.17634
0.9032853,-0.53932583,-2.3678267,-0.3594587,19.679602,-69.63044
0.73122066,-0.72108775,-2.4076602,-3.102205,14.812296,-67.56706
0.6219755,-0.8654506,-2.4010208,-5.365341,10.205462,-64.96215
0.5307381,-0.98006386,-2.3641033,-7.519535,5.9060855,-61.945816
0.4353842,-1.081239,-2.3056676,-9.6816845,1.6840552,-58.76124
0.36107633,-1.2077328,-2.2014074,-11.675758,-2.4363673,-55.55757
0.33043972,-1.3501505,-2.0512006,-12.975626,-6.1388197,-52.255405
0.33486906,-1.4927047,-1.8833152,-13.755682,-8.926546,-48.324455
0.35123917,-1.6331269,-1.7004268,-14.185428,-10.9022,-43.823616
0.3520008,-1.7394202,-1.5090969,-14.539167,-12.477445,-39.027626
0.34293106,-1.836601,-1.2913853,-14.725351,-13.935743,-34.375427
0.3547034,-1.9345711,-1.0426846,-14.457254,-15.180121,-29.870907
0.41164798,-2.0269156,-0.7796309,-13.687156,-15.526149,-24.994581
0.5188186,-2.0700479,-0.53167504,-12.716893,-14.955165,-19.78903
0.6238949,-2.0373285,-0.3175112,-11.743566,-13.773519,-14.637915
0.70292145,-1.9636232,-0.13138677,-10.571422,-12.357933,-10.191784
0.73521054,-1.9107425,0.032642618,-8.82982,-11.1545105,-6.637767
0.77188456,-1.8934127,0.17830981,-6.0553937,-10.037625,-3.736763
0.8582716,-1.8221503,0.2809149,-3.1030507,-8.70693,-0.749881
0.99421847,-1.7332639,0.3527716,0.36223578,-6.881798,2.2553232
1.1400114,-1.5530345,0.37129292,3.7422633,-4.5941153,5.182107
1.2626987,-1.3123605,0.34399015,6.3969574,-2.2553847,7.5164895
1.3533583,-1.090247,0.2966337,8.82369,-0.1851761,8.474326
1.406696,-0.90095174,0.20876466,11.077766,1.5237393,8.9472065
1.4547181,-0.7123242,0.09519095,13.027094,2.957212,9.492762
1.5137801,-0.487114,-0.0338024,14.378321,4.2430162,9.882264
1.5709364,-0.25381562,-0.17376618,15.31447,5.384932,9.670862
1.6036768,-0.053545747,-0.3231161,15.791988,6.230701,8.490412
1.6050415,0.10092006,-0.48181677,15.885013,7.0138183,7.118486
1.5820355,0.2434869,-0.6545986,15.193265,7.6011653,5.827059
1.5432146,0.35659158,-0.83146834,13.964634,8.011675,4.5424685
1.4822524,0.44069865,-1.0141591,12.578185,8.130487,3.2076218
1.4042188,0.4968521,-1.1981649,10.734806,7.5911713,1.9354247
1.3229957,0.52224684,-1.3626997,8.592788,6.6996083,0.79956645
1.2442032,0.5283294,-1.5104413,6.2655306,5.5654044,-0.23017474
1.1573697,0.5204863,-1.6462557,3.9555702,4.0161953,-1.4354956
1.0712873,0.5129035,-1.766753,1.2972482,2.0720465,-2.9229739
0.9836365,0.49296492,-1.85653,-1.6336735,-0.15475102,-4.5822277
0.8912928,0.44834247,-1.8908292,-4.961676,-2.542421,-5.9700227
0.79437745,0.36229143,-1.8826298,-8.366071,-4.9870768,-7.0376997
0.70487374,0.22513327,-1.8346995,-11.322998,-7.3923073,-7.952626
0.6285958,0.047243353,-1.7577949,-13.633553,-9.682399,-8.689123
0.56989604,-0.15707396,-1.6614735,-15.051606,-11.697499,-8.913958
0.5247445,-0.35580334,-1.550165,-16.146317,-13.419962,-8.484373
0.4715327,-0.5364984,-1.4254022,-17.047796,-14.838454,-7.3971066
0.40375173,-0.70578295,-1.2918459,-17.574038,-16.032299,-5.9103866
0.32339022,-0.87940395,-1.1613961,-17.50884,-17.2242,-4.302484
0.250457,-1.0484811,-1.03168,-16.890842,-18.441137,-2.3296075
0.20752956,-1.2067255,-0.8972606,-15.903155,-19.43291,0.042387277
0.17336051,-1.3399191,-0.76142824,-14.741906,-20.103333,2.865777
0.12885402,-1.451866,-0.6264848,-13.527696,-20.507011,6.1776757
0.08561131,-1.5599257,-0.49418566,-12.1875105,-20.70241,9.834027
0.08518435,-1.6776218,-0.35951588,-10.438211,-20.355526,13.569109
0.1926267,-1.7241935,-0.22235988,-7.868135,-19.072403,16.739437
0.36115074,-1.572379,-0.12795413,-5.9994836,-17.07641,19.600496
0.5475694,-1.3236042,-0.053336095,-4.993202,-14.239417,22.05907
0.70440394,-1.0512464,-0.009861574,-4.0188255,-11.2764,23.830008
0.79498106,-0.7839145,-0.0113371285,-3.359974,-9.129404,25.067211
0.8611325,-0.61203134,-0.0121714575,-2.7525384,-7.5067863,25.879477
0.9515636,-0.49034473,-0.0074425642,-1.5437671,-5.822808,26.30142
1.0509602,-0.32237127,-0.028005792,-0.41325533,-4.0488706,26.536324
1.1528795,-0.1335299,-0.067959994,0.3629243,-2.0370245,26.426079
1.2364899,0.034106307,-0.122532174,1.1699575,0.20135336,25.729845
1.2833762,0.16999602,-0.19885187,1.7704005,2.5923598,24.62452
1.2956104,0.2646833,-0.28129774,2.1574464,4.8432856,22.962933
1.2768205,0.3157586,-0.35980734,2.2807078,6.809903,20.83318
1.2369503,0.30589867,-0.34857196,2.20949,6.5972557,20.18264
1.1983327,0.29634848,-0.33768952,2.1405096,6.391289,19.552536
1.1609275,0.28709817,-0.32714877,2.0736952,6.1917896,18.942217
1.1246963,0.27813813,-0.3169388,2.0089772,5.9985504,18.351051
1.0896013,0.26945916,-0.30704907,1.9462893,5.8113723,17.778427
1.0556066,0.26105225,-0.2974694,1.8855667,5.630062,17.223755
1.0226773,0.2529088,-0.28818992,1.826747,5.454434,16.686464
0.9907794,0.24502043,-0.27920112,1.7697697,5.284307,16.166004
0.95988035,0.23737906,-0.27049378,1.7145766,5.1195073,15.66184
0.92994845,0.22997688,-0.26205897,1.661111,4.959866,15.173458
0.9009531,0.22280632,-0.2538881,1.6093184,4.8052197,14.700357
0.8728647,0.21586004,-0.24597281,1.5591458,4.655411,14.242055
0.8456547,0.20913099,-0.23830505,1.5105422,4.510287,13.798083
0.81929535,0.2026123,-0.23087698,1.463458,4.369699,13.367992
0.79375976,0.19629733,-0.22368108,1.4178454,4.2335057,12.951343
0.7690221,0.19017969,-0.21671002,1.373658,4.1015677,12.547711
0.74505717,0.18425316,-0.20995672,1.3308508,3.9737513,12.156689
0.72184074,0.17851171,-0.20341434,1.2893807,3.8499267,11.777879
0.6993492,0.17294954,-0.19707625,1.2492055,3.7299685,11.410897
0.6775599,0.16756102,-0.19093601,1.2102845,3.6137555,11.055373
0.6564507,0.1623407,-0.18498746,1.1725783,3.5011697,10.710945
0.6360002,0.15728329,-0.17922454,1.136049,3.3920977,10.377267
0.61618793,0.1523837,-0.17364143,1.1006595,3.286429,10.054
0.59699374,0.14763695,-0.16823252,1.066374,3.184057,9.740819
0.5783983,0.14303829,-0.16299233,1.0331581,3.0848784,9.437407
0.5603828,0.13858305,-0.15791558,1.0009781,2.9887931,9.143458
0.5429292,0.13426675,-0.15299715,0.9698017,2.8957045,8.858677
0.5260198,0.13008505,-0.1482321,0.93959755,2.8055186,8.582776
0.5096376,0.12603374,-0.14361562,0.91033506,2.7181447,8.315477
0.4937662,0.12210871,-0.13914305,0.88198483,2.6334944,8.056512
0.4783895,0.118306056,-0.13480991,0.8545184,2.5514832,7.805619
0.46349213,0.114621915,-0.13061184,0.8279081,2.4720283,7.5625463
0.44905904,0.11105261,-0.1265446,0.8021272,2.3950496,7.3270497
0.43507576,0.107594535,-0.122604124,0.7771497,2.32047,7.0988927
0.42152825,0.104244225,-0.11878644,0.7529506,2.2482145,6.8778453
0.4084029,0.10099831,-0.11508772,0.72950554,2.1782105,6.663686
0.39568648,0.097853534,-0.11150424,0.706791,2.1103878,6.456199
0.38336626,0.09480674,-0.10803241,0.6847841,2.0446782,6.255177
0.3714299,0.09185486,-0.104668744,0.6634629,1.9810157,6.0604177
0.35986537,0.08899495,-0.10140987,0.6428059,1.9193364,5.8717256
0.3486611,0.086224124,-0.098252505,0.6227923,1.8595786,5.6889114
0.3378058,0.08353961,-0.0951935,0.6034022,1.8016822,5.511792
0.32728866,0.08093871,-0.092229776,0.58461607,1.7455891,5.3401895
0.3170991,0.07841883,-0.08935836,0.5664151,1.6912433,5.173932
0.3072269,0.07597742,-0.08657638,0.5487809,1.63859,5.0128527
0.29766217,0.07361206,-0.083881035,0.531696,1.5875766,4.85679
0.2883953,0.071320355,-0.081269644,0.51514316,1.538152,4.705588
0.27941704,0.06910002,-0.07873957,0.49910584,1.4902664,4.5590944
0.27071837,0.06694884,-0.07628829,0.48356792,1.4438722,4.417163
0.26229057,0.064864635,-0.07391334,0.46851388,1.3989228,4.279651
0.2541252,0.06284534,-0.07161235,0.4539286,1.355373,4.146422
0.24621414,0.060888924,-0.06938301,0.4397975,1.3131794,4.0173407
0.23854938,0.058993425,-0.06722309,0.42610642,1.2722995,3.8922791
0.23112328,0.057156947,-0.06513042,0.41284162,1.2326926,3.7711117
0.22392842,0.05537765,-0.06310291,0.39998987,1.1943189,3.653717
0.21695757,0.053653758,-0.06113853,0.38753828,1.1571399,3.5399776
0.21020377,0.051983535,-0.059235312,0.37547436,1.1211187,3.4297795
0.20366025,0.050365318,-0.05739135,0.36378607,1.0862188,3.3230124
0.19732046,0.048797484,-0.0556048,0.35246167,1.0524057,3.2195694
0.19117804,0.04727846,-0.05387387,0.34148985,1.0196452,3.119347
0.18522687,0.045806732,-0.052196834,0.33085963,0.9879047,3.0222452
0.17946097,0.04438082,-0.050572008,0.32056037,0.9571524,2.9281662
0.17387459,0.042999305,-0.048997767,0.3105817,0.9273575,2.837016
0.16846213,0.041660797,-0.047472537,0.30091375,0.8984902,2.748704
0.16321816,0.04036396,-0.04599479,0.29154676,0.87052155,2.663141
0.15813744,0.039107498,-0.044563048,0.28247142,0.84342366,2.580242
0.1532149,0.037890147,-0.043175876,0.27367857,0.81716937,2.4999235
0.1484456,0.0367107,-0.041831892,0.26515946,0.7917324,2.4221053
0.14382477,0.035567965,-0.040529747,0.25690556,0.7670873,2.34671
0.13934779,0.034460805,-0.039268136,0.2489086,0.74320936,2.2736616
0.1350102,0.03338811,-0.0380458,0.24116059,0.72007483,2.202887
0.13080761,0.03234881,-0.036861517,0.23365378,0.69766045,2.134316
0.12673587,0.031341866,-0.0357141,0.22638066,0.6759438,2.0678794
0.122790866,0.030366266,-0.0346024,0.21933395,0.65490323,2.0035112
0.11896867,0.029421035,-0.03352531,0.21250659,0.6345176,1.9411466
0.115265466,0.028505228,-0.03248175,0.20589177,0.61476666,1.8807234
0.111677535,0.027617931,-0.03147067,0.19948287,0.59563047,1.8221811
0.108201295,0.026758255,-0.030491067,0.19327347,0.57708997,1.7654611
0.10483327,0.025925338,-0.029541958,0.18725736,0.5591266,1.7105068
