ax,ay,az,gx,gy,gz
1.1836472,-0.004545496,1.1354648,-0.8881899,-62.311474,-43.557667
1.2533795,0.0795726,0.9613329,2.58868,-56.556004,-44.847622
1.2564886,-0.04503132,0.7977034,0.92383265,-53.03285,-37.179016
1.5276158,-0.34907472,0.86950463,-2.738938,-49.40361,-29.272705
1.9211235,-0.6758018,1.0813137,-2.9090297,-43.78653,-24.97816
2.314307,-0.84827507,1.2350019,-2.3468556,-37.92413,-22.23845
2.9346986,-0.8630795,1.4705015,-1.6460854,-27.920357,-21.190052
3.4174182,-0.74494374,1.622494,-0.6721657,-17.171247,-21.050682
3.6744878,-0.6746843,1.6945031,1.3796138,-8.358316,-22.163054
3.891015,-0.65566665,1.7675949,4.3976703,-1.0031278,-24.699116
4.184644,-0.62398416,1.8192139,9.190931,7.140469,-28.156727
4.5331645,-0.41023952,1.8001556,13.504971,15.822083,-30.600225
4.8372226,-0.07199823,1.7486763,15.07431,24.38369,-32.31593
5.112048,0.13167469,1.7107887,15.440944,33.00487,-35.108875
5.2634735,0.14534183,1.6230005,16.610313,41.031593,-38.61161
5.309936,0.07801886,1.4728128,18.430809,48.098465,-41.16108
5.3100677,-0.0060372227,1.2507977,20.297577,54.40446,-42.273373
5.3232274,-0.12730199,1.03788,22.546715,60.664272,-42.80798
5.296961,-0.22916074,0.84389216,25.328175,67.05273,-43.494396
5.1677623,-0.26764432,0.62889785,27.895561,73.11487,-44.626167
4.912212,-0.22086035,0.36522627,28.735031,77.80185,-45.809616
4.5892615,-0.30524796,0.07984701,29.711216,81.495964,-47.385254
4.242612,-0.33341855,-0.22347738,30.904638,84.31311,-49.248436
3.8935559,-0.27213213,-0.5379239,31.337954,86.2456,-50.96528
3.551045,-0.22611691,-0.838952,30.954912,87.59314,-52.220394
3.2012246,-0.23907971,-1.1142399,30.219282,88.27164,-53.12012
2.806912,-0.2440291,-1.3842568,29.345022,88.21325,-53.918987
2.3978746,-0.21811074,-1.6528769,28.08868,87.03615,-54.82296
2.0127165,-0.15514655,-1.9000689,26.298183,85.099,-55.752842
1.6708742,-0.07853972,-2.111087,23.871983,82.49664,-56.650658
1.3805195,-0.023973925,-2.2704067,21.161915,79.56287,-57.317577
1.1228143,-0.010751031,-2.3982353,18.36377,76.496864,-57.694824
0.88830066,-0.011281264,-2.518288,15.645376,73.213135,-57.84803
0.6624629,0.021592986,-2.6398387,12.924457,69.56343,-57.735527
0.45424956,0.09527911,-2.7558455,9.779644,65.2999,-57.52708
0.2588635,0.16751942,-2.854306,5.916413,60.275387,-57.413605
0.081481814,0.14923157,-2.9188194,1.6343013,54.876873,-57.264336
-0.07964476,0.02507477,-2.9524605,-2.4253395,49.22668,-57.263836
-0.20685199,-0.18397418,-2.9613123,-5.809126,43.634182,-57.30172
-0.3025134,-0.4190563,-2.9499655,-8.248093,38.309322,-56.64819
-0.38475403,-0.61369586,-2.919554,-10.046569,33.183315,-54.28783
-0.45661256,-0.75080585,-2.836098,-11.7245245,28.163761,-51.094704
-0.49890706,-0.8888208,-2.7003624,-13.234914,23.257711,-47.958187
-0.5027548,-1.0623577,-2.5274892,-14.393444,18.55388,-45.502476
-0.44732192,-1.3073866,-2.337207,-14.850996,14.450095,-43.82868
-0.33117658,-1.5823839,-2.1306117,-14.018909,11.697621,-41.13912
-0.19949208,-1.7654433,-1.9005072,-12.730294,9.76229,-36.61811
-0.08039311,-1.821265,-1.6565979,-11.550541,8.200734,-30.857235
0.031177105,-1.8312798,-1.4144392,-10.823767,6.55603,-25.724419
0.17936777,-1.9186083,-1.1619034,-9.835966,4.88518,-22.927723
0.4102524,-2.1016257,-0.9093567,-6.8157563,4.514545,-21.740667
0.64799553,-2.2527335,-0.72032475,-2.5208302,5.35243,-19.075235
0.80026555,-2.326639,-0.6199922,2.5406175,6.609093,-15.010409
0.86309,-2.302569,-0.5968084,7.3143587,7.4145126,-11.011056
0.89204055,-2.2939699,-0.6052623,11.724565,7.7289767,-8.4120245
0.91391915,-2.3019574,-0.6307637,16.657265,7.8022404,-6.8614206
0.9395708,-2.1290252,-0.6986097,20.8702,7.557712,-4.9037313
1.0128977,-1.8840802,-0.7795387,24.244814,7.3520393,-3.1587822
1.1044084,-1.6178863,-0.8653766,26.966158,7.373077,-2.060571
1.1792474,-1.3444738,-0.9543858,29.042084,7.671702,-1.3811162
1.2264361,-1.043705,-1.0528595,30.277576,8.177851,-0.5670089
1.2404824,-0.6633999,-1.1694305,30.56813,8.62478,0.19089945
1.2376553,-0.27266002,-1.2898341,29.818893,8.9634495,0.39777145
1.2171915,0.08991151,-1.4074652,28.144989,9.2687845,-0.034224752
1.1672509,0.40062144,-1.5196742,25.558466,9.402604,-1.0896307
1.088126,0.6234386,-1.6206998,22.264572,9.1771145,-2.6087558
0.984703,0.7506872,-1.7106041,18.89666,8.558296,-4.095855
0.8864688,0.8061052,-1.7829479,15.382836,7.647989,-5.3472433
0.7942833,0.8284898,-1.8404684,11.901341,6.5440817,-6.4454584
0.69631773,0.82876116,-1.885382,8.29891,5.091791,-7.4952555
0.6147341,0.7968971,-1.9173689,4.6590858,3.4216423,-8.636385
0.54924357,0.70141816,-1.9371976,1.0701851,1.6904781,-9.770713
0.47543907,0.551652,-1.9439232,-2.124866,-0.10365023,-10.764819
0.39023757,0.36463735,-1.9267359,-4.823661,-2.1116269,-11.445501
0.32376748,0.16846074,-1.8811581,-7.004613,-4.1406794,-11.643638
0.2795986,-0.035378538,-1.8181481,-8.401493,-5.9681497,-11.14771
0.25425774,-0.22093423,-1.7423674,-9.314806,-7.5526776,-10.249249
0.23277324,-0.38668323,-1.6536396,-9.913118,-8.941103,-9.133292
0.20520157,-0.5407119,-1.5514766,-10.314837,-10.311427,-7.8166304
0.19270998,-0.6733292,-1.4271139,-10.337921,-11.506558,-6.4694676
0.1810628,-0.7915517,-1.2989538,-10.041098,-12.474646,-4.935071
0.17416662,-0.9124504,-1.1685951,-9.450239,-13.28474,-3.18303
0.17667808,-1.0190808,-1.0377401,-8.561559,-13.890232,-1.3317864
0.19457649,-1.0956615,-0.9056767,-7.3061223,-14.265219,0.6289088
0.23596856,-1.1313013,-0.7740728,-5.795589,-14.384635,2.6054468
0.29676184,-1.125828,-0.65104157,-4.2432637,-14.017286,4.5245347
0.34271562,-1.1068774,-0.55101913,-2.7826395,-13.470096,6.252087
0.3502843,-1.1311603,-0.48103592,-1.1522224,-13.118392,7.6680474
0.35911703,-1.2058078,-0.42394024,1.1420076,-13.126186,8.671512
0.42044473,-1.2275634,-0.3701636,4.004116,-13.137557,9.558905
0.53768545,-1.1703751,-0.32708466,6.815531,-12.636129,10.490805
0.66348416,-1.0556597,-0.30829355,9.0447035,-11.726325,11.341553
0.7508658,-0.97872853,-0.3026812,11.037061,-10.503322,12.020144
0.78635496,-0.935836,-0.319401,13.187932,-9.194877,12.702083
0.78090084,-0.8659892,-0.35820898,15.564839,-8.162618,13.7424135
0.77636945,-0.71591455,-0.40385976,17.672024,-7.3748217,14.9770565
0.7930837,-0.5022019,-0.4566052,18.90939,-6.7092023,15.747224
0.8203353,-0.31182244,-0.5100945,19.457243,-5.913854,16.273735
0.8361046,-0.16809195,-0.5606804,19.52629,-4.893739,16.943867
0.8301658,-0.07405795,-0.6107362,19.326256,-3.7608128,17.825514
0.8076731,-0.001190358,-0.6599671,18.92091,-2.7207088,18.601286
0.7676514,0.089839816,-0.70927423,18.251955,-1.9229522,18.986732
0.74368525,0.087035015,-0.68713063,17.682127,-1.8629175,18.393965
0.7204716,0.08431827,-0.6656823,17.130192,-1.8047678,17.81981
0.6979865,0.08168679,-0.6449071,16.595577,-1.7484429,17.263672
0.6762066,0.07913785,-0.62478346,16.07773,-1.6938846,16.72498
0.65510947,0.07666881,-0.6052908,15.576118,-1.6410369,16.203173
0.63467354,0.07427715,-0.58640885,15.090225,-1.5898452,15.69772
0.6148777,0.071960405,-0.56811845,14.619554,-1.5402571,15.208099
0.59570175,0.0697162,-0.55040073,14.163618,-1.4922216,14.733809
0.57712597,0.06754224,-0.53323764,13.721955,-1.4456897,14.274366
0.5591315,0.0654363,-0.5166115,13.294111,-1.4006138,13.829298
0.5416998,0.063396245,-0.5005055,12.87965,-1.3569479,13.398152
0.5248133,0.06141998,-0.48490313,12.478149,-1.3146474,12.980489
0.5084547,0.059505496,-0.46978852,12.089201,-1.2736694,12.575882
0.4926073,0.057650845,-0.45514628,11.712408,-1.233972,12.18392
0.4772551,0.055854145,-0.44096157,11.347389,-1.195515,11.804206
0.4623825,0.054113574,-0.42721996,10.993772,-1.1582594,11.436354
0.44797435,0.05242736,-0.4139075,10.651199,-1.1221673,11.079989
0.43401614,0.0507938,-0.40101075,10.319324,-1.0872022,10.734754
0.42049366,0.049211238,-0.38851663,9.997808,-1.0533286,10.400295
0.40739328,0.047678072,-0.37641248,9.686329,-1.0205125,10.076276
0.39470175,0.046192758,-0.3646861,9.38457,-0.9887204,9.762369
0.38240623,0.044753786,-0.3533256,9.092228,-0.9579204,9.458258
0.3704943,0.043359708,-0.34231955,8.809006,-0.9280812,9.163633
0.35895395,0.04200912,-0.33165678,8.534618,-0.8991729,8.878201
0.34777355,0.040700655,-0.3213266,8.268789,-0.8711662,8.601669
0.33694184,0.039432995,-0.3113186,8.0112505,-0.84403294,8.333763
0.32644787,0.038204867,-0.3016227,7.761742,-0.81774575,8.07421
0.3162811,0.03701503,-0.29222906,7.5200133,-0.7922782,7.8227496
0.3064313,0.035862286,-0.2831283,7.2858205,-0.7676046,7.579129
0.29688853,0.034745473,-0.2743112,7.058928,-0.74370015,7.343103
0.2876432,0.033663474,-0.26576898,6.839108,-0.7205408,7.1144333
0.27868605,0.0326152,-0.25749296,6.626139,-0.69810325,6.892891
0.27000803,0.031599592,-0.24947488,6.419808,-0.676365,6.6782527
0.26160043,0.030615637,-0.24170665,6.219906,-0.65530413,6.4703035
0.25345483,0.029662339,-0.2341805,6.026233,-0.63489956,6.268834
0.24556303,0.028738746,-0.22688884,5.838595,-0.6151307,6.073642
0.23791711,0.027843928,-0.21982436,5.6568027,-0.59597784,5.884531
0.23050939,0.026976988,-0.21297997,5.480674,-0.57742167,5.701312
0.22333243,0.026137054,-0.2063488,5.3100324,-0.55944353,5.523801
0.21637906,0.025323287,-0.19992422,5.1447062,-0.54202545,5.351819
0.20964229,0.024534868,-0.19369975,4.9845304,-0.52514994,5.185195
0.20311534,0.023771007,-0.18766916,4.8293433,-0.5088001,5.023761
0.19679171,0.023030937,-0.1818264,4.6789904,-0.4929595,4.8673544
0.190665,0.022313919,-0.17616563,4.53332,-0.47761226,4.71582
0.18472913,0.02161923,-0.17068115,4.392186,-0.46274298,4.5690045
0.17897812,0.020946177,-0.16536747,4.255448,-0.4483368,4.4267616
0.17340621,0.020294085,-0.16021928,4.122968,-0.43437928,4.2889485
0.1680078,0.0196623,-0.15523142,3.9946141,-0.4208564,4.155427
0.16277753,0.019050188,-0.15039888,3.870257,-0.40775463,4.0260634
0.1577101,0.018457139,-0.14571682,3.7497723,-0.39506084,3.9007285
0.15280049,0.017882556,-0.14118056,3.6330392,-0.38276234,3.7792962
0.14804374,0.017325863,-0.13678555,3.519941,-0.37084678,3.6616452
0.1434351,0.016786506,-0.13252738,3.4103646,-0.35930225,3.5476573
0.13896997,0.016263941,-0.1284018,3.3042002,-0.34811717,3.437219
0.13464387,0.015757648,-0.12440468,3.201341,-0.33728036,3.3302188
0.13045245,0.01526712,-0.12053201,3.1016846,-0.32678095,3.2265506
0.12639154,0.014791863,-0.11677992,3.0051308,-0.31660843,3.1261098
0.12245707,0.014331403,-0.11314465,2.9115834,-0.30675265,3.0287964
0.118645094,0.013885279,-0.10962256,2.8209484,-0.29720372,2.9345126
0.1149518,0.013453045,-0.10621012,2.7331352,-0.28795207,2.8431642
0.111373484,0.013034267,-0.102903925,2.6480558,-0.27898845,2.75466
0.10790657,0.012628527,-0.09970066,2.5656254,-0.2703039,2.668911
0.10454759,0.01223542,-0.09659712,2.4857612,-0.26188976,2.5858316
0.101293184,0.01185455,-0.0935902,2.4083831,-0.2537375,2.5053387
0.0981401,0.0114855375,-0.09067689,2.333414,-0.24583909,2.4273515
0.09508517,0.011128012,-0.08785428,2.2607791,-0.23818654,2.3517923
0.09212534,0.010781618,-0.08511954,2.1904051,-0.23077223,2.2785852
0.08925766,0.010446006,-0.082469925,2.122222,-0.22358873,2.2076573
0.08647924,0.010120844,-0.079902805,2.0561616,-0.21662886,2.1389375
0.08378732,0.009805803,-0.0774156,1.9921575,-0.20988566,2.0723567
0.08117921,0.00950057,-0.075005814,1.930146,-0.20335238,2.0078487
0.07865228,0.0092048375,-0.072671056,1.8700647,-0.19702247,1.9453489
0.07620401,0.008918312,-0.07040897,1.811854,-0.19088961,1.8847946
0.07383196,0.008640707,-0.06821731,1.7554553,-0.18494767,1.8261254
0.07153375,0.0083717415,-0.06609386,1.7008121,-0.1791907,1.7692825
0.06930708,0.00811115,-0.064036526,1.6478701,-0.17361292,1.7142091
0.06714972,0.00785867,-0.062043227,1.596576,-0.1682088,1.66085
0.06505953,0.00761405,-0.06011198,1.5468786,-0.16297288,1.6091521
