ax,ay,az,gx,gy,gz
0.26091146,3.0236638,-0.7872799,-11.762835,-5.492777,31.350285
-1.4390805,2.6593268,-0.84098727,-13.719287,-21.254889,25.195625
-2.2204697,2.4029505,-0.6758536,-13.072863,-35.96447,16.461542
-1.8022233,2.1755364,-0.33829972,-11.157521,-44.477783,5.1549683
-0.6648968,2.0428398,0.115567476,-6.2704973,-43.0359,-5.56851
0.32885304,2.1332238,0.43702048,-2.2531478,-33.721977,-11.15189
0.7046749,2.2630737,0.63069844,-1.3479503,-25.467922,-12.609151
0.8747414,2.2209663,0.82024014,-0.71837157,-19.536888,-13.716749
1.079272,2.2633545,0.95557314,0.9131855,-15.144671,-16.27119
1.3592864,2.4754128,1.0040052,1.9953376,-11.512714,-19.662443
1.6988751,2.6984887,0.9929049,0.602333,-7.370292,-21.995775
2.0871782,2.77564,0.9712887,-2.3890197,-1.9974973,-22.75627
2.405104,2.7000718,0.9417643,-6.332083,4.7192054,-22.497711
2.5906014,2.4686165,0.87106323,-8.93133,11.916213,-22.751554
2.6131105,2.2586086,0.7283255,-9.149966,17.986214,-25.043802
2.5164347,2.2825847,0.50927734,-8.942047,21.784843,-29.83617
2.440999,2.3589725,0.3110758,-10.9425125,23.34133,-35.91011
2.4212227,2.3758388,0.1566211,-12.966833,24.920753,-40.40748
2.3750925,2.35459,-0.0005855814,-15.5177,26.302256,-43.50219
2.3272228,2.270487,-0.14604354,-17.784536,27.86872,-45.889942
2.2132392,2.175995,-0.3068697,-18.701601,29.011353,-47.838535
1.965275,2.1629179,-0.5119633,-20.062294,28.785439,-49.58128
1.718446,2.132629,-0.6992493,-22.255585,28.05989,-51.236027
1.4760896,2.015379,-0.86924183,-24.669252,27.144415,-52.504967
1.2259028,1.7829471,-1.025784,-27.01707,25.866901,-53.244617
0.9685739,1.4535296,-1.1736591,-27.927887,23.608408,-53.725292
0.7079761,1.151914,-1.307405,-27.77516,20.649117,-54.059917
0.4715112,1.0159521,-1.4393928,-27.791082,17.181063,-54.46351
0.28015628,0.9553202,-1.5589644,-28.904667,13.510508,-54.833233
0.1160597,0.8277656,-1.6549382,-30.526041,9.975419,-54.72404
-0.060370315,0.5968871,-1.736404,-32.46198,6.4379883,-53.612835
-0.21717101,0.26145083,-1.7864758,-33.71895,3.0319452,-51.873425
-0.33010247,-0.103675775,-1.808428,-33.458935,-0.0621302,-50.09541
-0.4349532,-0.3345188,-1.8378462,-32.732166,-3.212694,-48.128647
-0.5286255,-0.44603327,-1.861231,-32.826294,-6.709774,-45.842396
-0.56629765,-0.5765129,-1.8340992,-33.731606,-9.938973,-42.776806
-0.5247953,-0.81568205,-1.7254697,-34.48266,-12.277833,-39.162056
-0.4835448,-1.1170951,-1.5973052,-34.487305,-13.823974,-35.15751
-0.49095234,-1.4485649,-1.4666631,-33.104603,-15.173887,-31.111153
-0.5235707,-1.6975935,-1.3216923,-30.914366,-17.067339,-27.083357
-0.47984985,-1.8270434,-1.1246723,-28.400703,-18.986261,-23.371468
-0.30523497,-1.9005417,-0.8745911,-25.904089,-20.087387,-19.695639
-0.045105834,-2.0058508,-0.6124224,-23.14894,-19.640028,-16.026152
0.21977884,-2.097806,-0.37108722,-19.282032,-17.604008,-12.468595
0.37872583,-2.0252209,-0.21088491,-15.110025,-15.283095,-9.152481
0.4673476,-1.8357916,-0.10479746,-12.084351,-13.763652,-6.1959424
0.59525174,-1.687035,0.0050253347,-9.984008,-12.464863,-3.972288
0.75832933,-1.7196167,0.10531135,-7.426795,-10.636862,-1.8620006
0.9318244,-1.7787836,0.17383043,-3.4382708,-8.012213,0.23456526
1.0796541,-1.6931819,0.17895576,2.0917695,-4.88275,2.2173505
1.1654005,-1.2613316,0.09126631,5.209899,-2.4042413,3.5979652
1.2165352,-0.7489328,-0.028222563,4.9019055,-0.67865425,4.351898
1.2452809,-0.49180007,-0.11567509,4.042844,1.1281608,4.6917863
1.1957434,-0.41766417,-0.20669262,3.252627,2.65794,4.7549925
1.1250575,-0.46262953,-0.2916421,3.6240666,3.9043698,4.700597
1.0569737,-0.46521586,-0.39570728,4.831849,4.7624927,4.9805613
1.0162321,-0.33913416,-0.52951914,5.925356,5.5231004,5.36873
0.9786996,-0.08087962,-0.6867135,6.5412774,6.2602243,5.442806
0.9037329,0.24943791,-0.86392236,5.681537,6.552217,4.762502
0.7792158,0.4948923,-1.0343457,4.1584806,6.114138,3.4880745
0.6228716,0.65415645,-1.1850848,2.1023037,4.983718,2.2407525
0.47883624,0.7365059,-1.3159682,-0.1567541,3.242327,1.1972681
0.38156378,0.7592416,-1.4164788,-2.3451562,1.3760699,0.40507597
0.31941164,0.80034477,-1.504876,-4.6055765,-0.41785303,-0.27711037
0.25202546,0.83402014,-1.5862488,-7.371613,-2.2287552,-0.78269356
0.16696765,0.8273729,-1.6528672,-10.492019,-4.279635,-1.1338484
0.061338443,0.77249473,-1.7041804,-13.7060175,-6.6775427,-1.3615865
-0.021144606,0.65379316,-1.7412199,-16.834875,-9.40058,-1.6714303
-0.037268247,0.49612606,-1.7488778,-19.811771,-11.958024,-1.8285793
-0.0047988473,0.3231357,-1.722862,-22.373795,-13.820728,-1.4004794
0.0003846315,0.1589655,-1.6856775,-24.65805,-15.30654,-0.0013608304
-0.055174533,-0.019851934,-1.6336066,-26.72486,-17.201033,1.4658275
-0.08289041,-0.24956661,-1.543437,-28.353155,-19.420523,2.6557903
-0.042456757,-0.5116447,-1.4143416,-29.21933,-21.408175,3.7233374
0.057124842,-0.7760173,-1.257678,-29.167652,-22.719585,5.260487
0.1888902,-0.98436666,-1.0917424,-28.343155,-23.165285,7.429159
0.28790525,-1.0353783,-0.94209516,-27.163515,-22.847818,9.95926
0.32959762,-1.0146164,-0.8041381,-26.349955,-22.68331,12.152619
0.35816735,-1.0303112,-0.65510076,-25.435658,-22.774525,13.71437
0.40195495,-1.1022176,-0.501996,-24.135315,-22.83583,15.040818
0.47312295,-1.2167262,-0.35140902,-21.923218,-22.422163,16.482113
0.5731636,-1.2694014,-0.21244186,-19.242502,-21.453066,18.122929
0.66819483,-1.2422715,-0.08895307,-16.288904,-19.908386,19.7321
0.73911315,-1.1486088,0.003190617,-13.683377,-18.058302,20.980692
0.773639,-1.0816987,0.06231511,-11.391416,-16.24636,21.80768
0.775189,-1.1079907,0.10168203,-8.400365,-14.712758,22.351429
0.806881,-1.1194776,0.12042832,-4.3516483,-12.986766,23.247496
0.84355426,-0.9868063,0.107648,-0.20602955,-11.135795,24.111174
0.8784646,-0.73005927,0.063921034,2.986689,-9.362891,24.380932
0.90160984,-0.46677452,0.0064155785,4.696862,-7.7515445,24.318851
0.90184134,-0.2857464,-0.05045484,5.4483867,-6.1951694,24.606714
0.8421303,-0.19841924,-0.123496436,6.4340806,-5.3819366,25.374733
0.753446,-0.12615973,-0.20680842,7.499368,-5.1408772,25.795542
0.70126855,0.015252908,-0.29480696,8.202452,-5.069786,25.809607
0.6775487,0.15923446,-0.38527954,8.325812,-4.9360013,25.804144
0.66280234,0.2587038,-0.4654213,8.317407,-4.325475,26.220686
0.6446133,0.2993865,-0.5344998,8.631745,-3.2132716,27.064863
0.62671643,0.3003433,-0.599588,9.142176,-1.8061084,28.017859
0.6179136,0.2848341,-0.6591888,9.768141,-0.35171518,28.774916
0.61294925,0.29730386,-0.7120091,10.09031,0.9558399,29.159227
0.605455,0.32777745,-0.74611485,9.611222,2.0983665,28.526821
0.5865489,0.31754223,-0.7228165,9.311101,2.0328426,27.636038
0.5682369,0.30762854,-0.70025015,9.020408,1.9693772,26.77324
0.55049974,0.2980261,-0.67839235,8.738842,1.9079044,25.93753
0.53331923,0.28872505,-0.6572204,8.466112,1.8483607,25.128048
0.51667756,0.2797157,-0.63671255,8.201937,1.7906846,24.343956
0.50055766,0.2709888,-0.6168477,7.9460425,1.7348168,23.584444
0.4849429,0.26253536,-0.5976053,7.6981683,1.6806996,22.848734
0.46981728,0.25434676,-0.57896566,7.458058,1.6282777,22.136068
0.45516524,0.24641453,-0.5609096,7.2254663,1.5774971,21.445719
0.44097185,0.2387306,-0.5434188,7.000155,1.5283061,20.77698
0.42722255,0.23128709,-0.5264753,6.7818933,1.4806542,20.129162
0.41390336,0.22407642,-0.51006174,6.5704594,1.4344931,19.50161
0.40100065,0.21709123,-0.4941615,6.365637,1.3897753,18.893682
0.38850132,0.21032442,-0.47875828,6.1672173,1.3464553,18.304758
0.3763926,0.20376909,-0.4638365,5.9749994,1.3044895,17.734241
0.36466226,0.19741859,-0.44938093,5.7887874,1.2638348,17.181551
0.35329834,0.19126646,-0.43537694,5.6083922,1.2244501,16.646124
0.34228936,0.18530647,-0.42181033,5.4336314,1.1862955,16.12742
0.33162412,0.1795326,-0.40866733,5.2643275,1.1493323,15.624914
0.32129183,0.17393897,-0.39593464,5.100309,1.113523,15.138095
0.31128207,0.16851994,-0.3835994,4.94141,1.0788314,14.666471
0.3015847,0.16327004,-0.37164912,4.78747,1.0452225,14.209566
0.2921899,0.15818395,-0.36007172,4.6383333,1.0126624,13.766917
0.2830882,0.15325652,-0.3488555,4.4938498,0.981118,13.338079
0.27427042,0.14848281,-0.33798918,4.3538733,0.95055765,12.922618
0.26572767,0.143858,-0.32746178,4.218262,0.9209505,12.520115
0.25745136,0.13937742,-0.31726268,4.0868807,0.89226663,12.130165
0.2494331,0.13503654,-0.30738163,3.959596,0.8644773,11.752374
0.24166484,0.130831,-0.29780865,3.8362796,0.8375543,11.386362
0.23413877,0.1267566,-0.2885341,3.716808,0.8114707,11.031761
0.22684732,0.12280919,-0.27954867,3.6010606,0.78620017,10.688214
0.21978313,0.11898482,-0.27084336,3.488921,0.7617173,10.355376
0.21293911,0.11527965,-0.26240933,3.3802764,0.7379976,10.032911
0.2063084,0.111689955,-0.25423816,3.275018,0.715017,9.720496
0.19988431,0.10821212,-0.2463216,3.1730394,0.6927526,9.417816
0.1936604,0.104842655,-0.23865175,3.0742388,0.671182,9.124568
0.1876304,0.101578176,-0.23122087,2.9785163,0.65028346,8.840457
0.18178828,0.09841541,-0.22402151,2.8857765,0.63003606,8.565198
0.17612818,0.095351174,-0.21704644,2.7959256,0.6104194,8.298514
0.1706444,0.0923824,-0.21028866,2.7088742,0.5914139,8.040139
0.16533145,0.08950611,-0.2037414,2.6245344,0.57300043,7.7898126
0.160184,0.086719416,-0.19739808,2.5428216,0.5551606,7.547283
0.15519688,0.08401952,-0.19125235,2.4636543,0.53787637,7.3123083
0.15036508,0.08140372,-0.18529804,2.3869526,0.5211305,7.0846524
0.1456838,0.07886938,-0.17952918,2.31264,0.50490624,6.8640866
0.14114828,0.07641398,-0.17393999,2.2406416,0.48918724,6.6503906
0.13675404,0.07403505,-0.16852486,2.1708856,0.47395778,6.44335
0.13249664,0.071730204,-0.16327839,2.103302,0.45920262,6.2427564
0.12837182,0.06949714,-0.15819529,2.0378232,0.44490695,6.04841
0.124375455,0.06733361,-0.15327047,1.9743832,0.43105647,5.860116
0.12050353,0.06523745,-0.14849901,1.9129188,0.4176373,5.677685
0.11675217,0.06320656,-0.14387615,1.8533684,0.40463594,5.5009346
0.11311763,0.061238915,-0.13939722,1.7956722,0.39203945,5.3296885
0.10959625,0.059332535,-0.13505775,1.7397726,0.3798352,5.163774
0.10618452,0.057485513,-0.1308534,1.6856135,0.3680109,5.003026
0.10287902,0.055696003,-0.12677997,1.6331407,0.3565548,4.8472824
0.09967644,0.05396221,-0.122833356,1.5823016,0.3454554,4.6963887
0.09657357,0.052282397,-0.11900962,1.5330455,0.33470157,4.550193
0.093567304,0.050654884,-0.11530494,1.485323,0.32428256,4.4085484
0.090654634,0.049078044,-0.1117156,1.4390862,0.31418794,4.2713146
0.08783265,0.047550295,-0.10823801,1.3942889,0.3044076,4.138353
0.08509852,0.04607011,-0.10486869,1.3508863,0.29493174,4.0095305
0.08244952,0.044636007,-0.10160426,1.308835,0.2857509,3.8847194
0.07988298,0.043246552,-0.09844147,1.2680929,0.2768559,3.7637935
0.07739635,0.04190035,-0.09537714,1.2286191,0.26823777,3.6466324
0.07498713,0.040596064,-0.0924082,1.1903741,0.259888,3.5331187
0.072652906,0.03933238,-0.0895317,1.1533198,0.25179812,3.4231389
0.07039136,0.038108032,-0.08674474,1.1174191,0.24396011,3.316583
0.06820021,0.036921803,-0.084044546,1.082636,0.23636611,3.213344
0.06607727,0.035772502,-0.0814284,1.0489358,0.2290085,3.1133192
0.064020425,0.03465898,-0.078893706,1.0162846,0.22187994,3.016408
0.062027607,0.03358012,-0.07643792,0.98464984,0.2149733,2.9225137
0.060096826,0.032534845,-0.07405858,0.9539999,0.20828165,2.8315423
0.05822615,0.03152211,-0.0717533,0.924304,0.20179832,2.743403
0.056413706,0.0305409,-0.06951979,0.8955326,0.19551682,2.6580071
0.054657683,0.029590236,-0.067355804,0.8676568,0.18943085,2.57527
0.052956324,0.028669165,-0.06525919,0.84064883,0.18353434,2.4951081
0.051307928,0.027776765,-0.06322783,0.81448156,0.17782137,2.4174416
0.04971084,0.026912145,-0.06125971,0.7891288,0.17228624,2.342193
