ax,ay,az,gx,gy,gz
1.4445586,3.1673014,0.104546405,-31.128466,-25.634779,27.965708
1.2646644,2.7159436,0.14812101,-32.873066,-21.679731,26.884266
0.9891123,2.4335148,0.32129884,-34.794266,-23.21421,26.066248
1.0926385,2.427024,0.65024716,-33.941536,-24.210281,22.688332
1.8448473,2.1172457,1.1063741,-29.568892,-20.517214,15.466009
2.8676002,1.8840299,1.4942205,-23.594723,-11.657346,7.1188626
3.69519,1.8841683,1.7358264,-18.972683,-0.6374673,0.7713727
4.0173726,1.9276274,1.9091411,-15.752415,7.396398,-3.4673774
4.1929393,1.9444207,2.1899636,-13.123754,11.951487,-8.642607
4.66318,2.0232255,2.478261,-10.431339,16.808626,-15.733245
5.2342877,2.0665777,2.6443598,-7.9667883,23.712057,-23.391682
5.7063823,2.0658386,2.6498427,-5.892238,32.448845,-30.036963
5.9977565,2.082045,2.5102856,-4.044945,41.962524,-35.55073
5.979682,2.0704806,2.2216084,-1.8122027,50.44161,-40.882133
5.5931444,1.888619,1.828077,1.4744232,55.445004,-47.9119
5.19114,1.6806563,1.457988,4.6627207,58.211735,-56.604992
4.903043,1.5004879,1.1206884,7.509605,60.614883,-65.269005
4.6781597,1.3343,0.8004629,9.105269,63.080387,-71.343636
4.456741,1.201797,0.5235579,8.459437,66.00678,-73.13782
4.180111,1.0816447,0.32029733,6.9524026,68.96073,-74.5567
3.8665082,0.90960467,0.15886177,5.6834316,71.676834,-77.490265
3.5682445,0.68014795,-0.010047465,5.866752,74.171616,-81.612274
3.2497787,0.48130178,-0.24224131,6.8537245,75.44952,-84.57691
2.925572,0.35987604,-0.47998267,5.8979487,74.50004,-84.857414
2.7037446,0.31676334,-0.648146,4.623631,73.2142,-85.28744
2.5206788,0.28050023,-0.79821956,2.7427058,71.793,-86.26949
2.3927262,0.21185635,-0.9238804,0.7613903,70.65728,-87.08451
2.2600727,0.15496828,-1.0611274,-0.93723035,70.02708,-86.87288
2.0341563,0.08171795,-1.245823,-2.8366396,68.45705,-85.57098
1.7986501,-0.012596568,-1.432542,-4.790541,66.12944,-84.23151
1.5995003,-0.10443015,-1.5965639,-6.730642,63.509514,-82.6035
1.4236217,-0.19034801,-1.7432252,-8.870699,60.927853,-80.43451
1.2647548,-0.2981898,-1.872643,-11.051157,58.616505,-77.8237
1.0837018,-0.42277864,-1.9991055,-13.140996,56.24663,-74.66093
0.8301197,-0.52119553,-2.1312575,-15.247494,53.237427,-71.21392
0.5620279,-0.56026334,-2.2461367,-18.002321,49.346085,-67.861496
0.33028927,-0.633364,-2.319015,-21.259722,44.914967,-64.84465
0.1303409,-0.77741754,-2.3534336,-24.066893,40.39888,-61.967396
-0.06844481,-0.93223745,-2.3739638,-26.438946,35.66488,-58.37834
-0.22727014,-1.0727875,-2.363288,-28.19275,31.048786,-54.366737
-0.3741105,-1.1675092,-2.3314166,-29.503368,26.388947,-50.168667
-0.4926962,-1.237547,-2.2721426,-30.884031,21.451084,-46.13806
-0.5323563,-1.3337528,-2.1755214,-31.973549,16.729471,-42.78494
-0.5088536,-1.469341,-2.0667288,-32.733784,12.654132,-39.644108
-0.43693185,-1.6584041,-1.9436401,-33.0621,9.254592,-35.9472
-0.3630559,-1.8242513,-1.8022553,-33.194252,6.2499905,-31.429638
-0.28463373,-1.9538502,-1.6244203,-33.33783,3.2871406,-26.877203
-0.14687185,-2.1118312,-1.4014698,-33.090374,0.6100181,-23.204685
0.065497674,-2.316028,-1.1548151,-31.410738,-0.8778613,-20.134907
0.3248165,-2.5240314,-0.93006825,-28.551645,-1.1502211,-16.546862
0.54206014,-2.6114178,-0.74554396,-24.935215,-0.66470927,-11.849027
0.6744929,-2.5279355,-0.59171206,-21.453812,-0.24090089,-7.0410323
0.7806444,-2.3673828,-0.43895072,-18.477873,-0.07787723,-3.6127207
0.8928513,-2.2497866,-0.28986898,-15.532599,0.107425146,-2.1871243
1.0340132,-2.243897,-0.16756602,-11.871875,0.7711235,-0.9783254
1.1925514,-2.18958,-0.09870644,-7.477777,2.135496,1.2092154
1.3308405,-2.000186,-0.083819956,-3.1294923,3.8475163,3.5638509
1.4162846,-1.707256,-0.11574662,0.27555817,5.4536643,4.9152775
1.4447304,-1.4252771,-0.17152175,2.7670152,6.583551,4.974041
1.4478662,-1.2373229,-0.23964708,5.09242,7.4844313,4.9511733
1.4491698,-1.0462192,-0.31625175,7.2545247,8.422928,5.204692
1.4257733,-0.80504483,-0.41593084,8.988975,9.229694,5.3346486
1.3987303,-0.52494156,-0.52852964,10.029944,9.899919,4.8643975
1.3644315,-0.24139075,-0.64865327,10.050937,10.458449,3.806205
1.291575,0.009774306,-0.7795816,9.305332,10.71895,2.6704462
1.1977017,0.20259663,-0.90510947,7.977675,10.664816,1.5597464
1.0876905,0.33089775,-1.0265359,6.4838314,10.279989,0.38503468
0.9716058,0.42105103,-1.1483077,4.790501,9.386839,-0.8866958
0.88158756,0.49408963,-1.2531475,2.803228,8.221554,-2.3320532
0.8157862,0.53251046,-1.3437972,0.5418667,7.064138,-3.532465
0.76421255,0.53644234,-1.4224479,-1.8229327,6.1648827,-4.2439737
0.6939693,0.5221203,-1.50046,-4.2897654,5.4739995,-4.3981833
0.58394194,0.49245802,-1.5831969,-6.766125,4.643151,-4.1984434
0.44902647,0.461965,-1.6621304,-9.269322,3.2511888,-4.1310973
0.33716702,0.4183758,-1.7156004,-11.949451,1.5994393,-4.201327
0.2604862,0.35260582,-1.7459605,-14.872159,-0.096772134,-4.126318
0.20748763,0.2788338,-1.759903,-18.135584,-1.7202907,-3.5424497
0.16164547,0.18917526,-1.7600956,-21.713083,-3.2505035,-2.6209419
0.10416393,0.06632716,-1.7457666,-25.33629,-4.929452,-1.5983809
0.022122035,-0.09886011,-1.6969051,-28.549713,-6.8831224,-0.5415706
-0.05846796,-0.28946117,-1.6131401,-30.974867,-9.090952,0.5734221
-0.118234426,-0.49381712,-1.5055673,-32.67053,-11.410206,1.7562516
-0.14024805,-0.71192515,-1.374965,-33.53213,-13.604969,3.0642595
-0.13973723,-0.9404827,-1.2271754,-32.997963,-15.4606695,4.5797577
-0.137609,-1.1462302,-1.0845907,-31.483694,-17.143793,6.067799
-0.14079279,-1.3130878,-0.9540697,-29.14964,-18.834429,7.354931
-0.1330788,-1.440222,-0.8353728,-26.141138,-20.612825,8.3519745
-0.08056585,-1.5382409,-0.717291,-22.432056,-22.334541,9.125768
0.04122853,-1.5836331,-0.5918682,-17.866968,-23.29535,9.748642
0.23894209,-1.6023856,-0.4587423,-12.825325,-23.309378,10.307718
0.44535348,-1.6071978,-0.32414085,-6.9360785,-22.17958,11.089947
0.6097102,-1.5564314,-0.21300264,-0.7385422,-20.14524,12.187602
0.70985633,-1.4346194,-0.13264877,4.9723215,-17.583052,13.466389
0.7264142,-1.224726,-0.09526606,8.814161,-15.283385,14.448782
0.6553293,-0.9774531,-0.109490894,11.18662,-13.829652,14.180079
0.6041578,-0.8805891,-0.14287418,13.276111,-13.3284645,12.728831
0.6389801,-0.84033495,-0.17864323,15.356924,-13.23044,11.063883
0.7627498,-0.77862746,-0.20656495,17.20046,-12.608986,10.319397
0.887683,-0.6864293,-0.24735582,18.125795,-11.146973,11.305257
0.9418623,-0.6038497,-0.30301362,18.743626,-9.504084,12.481263
0.94008636,-0.5423885,-0.36647797,19.342024,-8.052044,12.852049
0.9092322,-0.5081213,-0.42735404,20.10647,-6.8686337,12.631778
0.8884636,-0.4608816,-0.4849752,20.96123,-5.646162,12.420332
0.8797091,-0.37151867,-0.550807,21.333828,-4.199186,12.579421
0.86929446,-0.25718412,-0.6299277,21.058508,-2.723309,12.8039875
0.84216905,-0.24915896,-0.61027145,20.4014,-2.6383312,12.404453
0.81589407,-0.24138542,-0.5912315,19.764894,-2.5560174,12.017445
0.7904425,-0.23385546,-0.57278824,19.148333,-2.476283,11.642564
0.76578814,-0.22656138,-0.55492264,18.551086,-2.3990464,11.279426
0.7419058,-0.21949568,-0.53761643,17.97254,-2.3242283,10.927658
0.718771,-0.21265116,-0.52085197,17.412104,-2.251752,10.586902
0.69636005,-0.2060208,-0.5046121,16.869202,-2.1815434,10.256807
0.67465013,-0.19959785,-0.48888016,16.343283,-2.113531,9.937037
0.6536191,-0.19337574,-0.47364017,15.833811,-2.0476453,9.627268
0.6332455,-0.18734814,-0.45887664,15.340264,-1.9838195,9.327183
0.61350876,-0.18150893,-0.4445745,14.8621435,-1.9219884,9.036475
0.5943886,-0.17585216,-0.43071926,14.398962,-1.8620893,8.754852
0.5758658,-0.17037211,-0.4172968,13.95025,-1.8040613,8.482026
0.55792147,-0.16506322,-0.40429357,13.515551,-1.7478456,8.217721
0.5405374,-0.15992008,-0.3916964,13.094426,-1.6933852,7.9616685
0.5236961,-0.15493752,-0.37949246,12.686448,-1.6406251,7.71361
0.5073805,-0.15011047,-0.36766946,12.291205,-1.5895119,7.4732943
0.49157405,-0.14543408,-0.35621545,11.908297,-1.5399938,7.2404785
0.4762608,-0.14090359,-0.34511882,11.537336,-1.4920207,7.0149274
0.46142533,-0.13651446,-0.3343684,11.177949,-1.4455444,6.796413
0.44705263,-0.13226224,-0.32395333,10.829773,-1.400518,6.584715
0.4331282,-0.12814265,-0.3138631,10.492456,-1.3568957,6.3796196
0.41963804,-0.12415153,-0.30408755,10.165659,-1.314634,6.1809206
0.40656853,-0.12028486,-0.29461682,9.849052,-1.2736901,5.9884176
0.3939065,-0.116538756,-0.28544137,9.542317,-1.2340227,5.8019166
0.38163924,-0.112909436,-0.276552,9.245145,-1.195592,5.6212296
0.36975437,-0.109393254,-0.26793972,8.957236,-1.1583594,5.4461756
0.35823995,-0.10598667,-0.2595959,8.678301,-1.1222873,5.276578
0.3470844,-0.10268626,-0.2515121,8.40806,-1.0873394,5.112266
0.33627653,-0.09948871,-0.24368027,8.146241,-1.0534807,4.953075
0.32580546,-0.0963908,-0.23609248,7.892581,-1.0206771,4.798845
0.31566066,-0.09338942,-0.22874112,7.6468253,-0.98889565,4.6494203
0.30583197,-0.090481564,-0.22161883,7.4087267,-0.9581045,4.5046515
0.2963095,-0.087664306,-0.21471845,7.178046,-0.92827266,4.364393
0.2870837,-0.084934816,-0.20803304,6.954553,-0.89937025,4.228505
0.27814528,-0.08229036,-0.2015559,6.738022,-0.8713682,4.09685
0.26948535,-0.079728276,-0.19528052,6.528236,-0.8442385,3.969296
0.26109514,-0.077246,-0.18920062,6.324985,-0.8179538,3.8457153
0.25296628,-0.07484105,-0.18331012,6.1280646,-0.7924879,3.7259839
0.24509062,-0.072511,-0.17760307,5.937278,-0.7678152,3.6099818
0.23746024,-0.07025353,-0.17207378,5.7524333,-0.7439109,3.4975927
0.2300675,-0.06806636,-0.1667167,5.5733457,-0.7207511,3.3887038
0.22290501,-0.06594731,-0.16152644,5.3998356,-0.6983126,3.2832062
0.21596558,-0.06389425,-0.15649784,5.231729,-0.6765728,3.180994
0.20924225,-0.061905127,-0.15162583,5.068857,-0.65551007,3.081965
0.20272829,-0.059977945,-0.14690553,4.911058,-0.6351033,2.9860196
0.19641717,-0.058110774,-0.14233223,4.758172,-0.61533195,2.893062
0.19030257,-0.056301747,-0.13790132,4.610047,-0.5961762,2.8029993
0.18437837,-0.05454905,-0.1336084,4.466534,-0.577617,2.7157407
0.17863862,-0.052850924,-0.12944914,4.32749,-0.55963564,2.6311991
0.17307761,-0.051205676,-0.1254194,4.1927752,-0.5422142,2.54929
0.16768974,-0.049611654,-0.12151511,4.062255,-0.5253352,2.469931
0.16246963,-0.048067264,-0.11773239,3.9357986,-0.5089817,2.393043
0.15741204,-0.046570957,-0.11406745,3.8132794,-0.49313742,2.318549
0.15251191,-0.045121238,-0.110516615,3.6945748,-0.4777864,2.2463741
0.14776435,-0.043716654,-0.10707633,3.579566,-0.46291333,2.1764467
0.1431646,-0.0423558,-0.10374315,3.468138,-0.44850332,2.108696
0.13870806,-0.041037314,-0.10051375,3.360179,-0.43454194,2.0430548
0.13439026,-0.039759874,-0.09738489,3.255581,-0.42101523,1.9794571
0.13020688,-0.038522206,-0.09435344,3.1542392,-0.4079096,1.9178395
0.12615374,-0.03732307,-0.09141636,3.0560527,-0.39521202,1.8581401
0.12222678,-0.036161263,-0.08857072,2.9609227,-0.38290972,1.8002993
0.118422076,-0.03503563,-0.085813664,2.8687544,-0.3709904,1.7442591
0.11473581,-0.03394503,-0.083142444,2.7794554,-0.35944214,1.6899635
0.11116431,-0.03288839,-0.08055438,2.6929362,-0.3482534,1.6373582
0.107703984,-0.03186464,-0.07804688,2.6091106,-0.33741298,1.5863905
0.10435139,-0.03087276,-0.07561745,2.5278943,-0.32691002,1.5370095
0.10110315,-0.029911757,-0.07326364,2.4492064,-0.31673402,1.4891657
0.09795604,-0.02898067,-0.070983104,2.3729682,-0.30687478,1.4428113
0.09490689,-0.02807857,-0.06877356,2.299103,-0.29732248,1.3978999
0.09195266,-0.027204549,-0.06663281,2.2275374,-0.28806752,1.3543866
0.0890904,-0.026357736,-0.064558685,2.1581995,-0.2791007,1.3122277
0.086317234,-0.025537286,-0.06254913,2.09102,-0.27041295,1.2713814
0.08363039,-0.024742374,-0.060602136,2.0259318,-0.26199567,1.2318064
0.081027195,-0.023972208,-0.058715746,1.9628698,-0.25384042,1.1934634
