ax,ay,az,gx,gy,gz
0.10000091,4.1373105,0.77455246,6.6027875,-18.643805,-11.263739
0.11143568,5.278301,1.1216336,-10.79292,-24.417725,-17.122501
0.28418866,5.8628106,1.4287597,-27.266329,-17.867887,-26.08664
0.46187282,6.04989,1.1399455,-37.25146,-11.327144,-35.10544
0.5548299,6.0457683,0.5987408,-47.72467,-7.2617846,-43.051533
0.55005884,5.955118,-0.03802146,-58.583675,-5.7974,-50.007317
0.4313014,5.7839713,-0.72853285,-70.014465,-7.9927735,-56.15482
0.3013252,5.484639,-1.3567942,-79.74683,-11.7821245,-61.684635
0.1528873,4.970222,-1.9482867,-85.80882,-15.398045,-66.82667
-0.018141896,4.2610784,-2.4795125,-88.67589,-18.96524,-71.472
-0.18117385,3.3525698,-2.928865,-88.99546,-22.746971,-75.030174
-0.2896257,2.3600361,-3.2528987,-86.53402,-26.418995,-76.47994
-0.34737554,1.4342716,-3.4340026,-81.64219,-30.216719,-74.12618
-0.3992228,0.6235379,-3.4790463,-76.07664,-33.785862,-70.54992
-0.43017146,-0.13569398,-3.4529564,-69.85699,-36.911793,-66.98633
-0.39403468,-0.87795573,-3.34552,-62.688854,-39.354477,-62.68472
-0.29077595,-1.5757667,-3.1611004,-55.05125,-41.167606,-56.86352
-0.114925064,-2.201225,-2.9023023,-46.594574,-41.476833,-48.45985
0.09881331,-2.655938,-2.6056006,-37.47522,-40.854492,-39.52994
0.2868235,-2.9367695,-2.3032613,-27.88019,-39.355095,-31.243507
0.4455121,-3.0584376,-2.023181,-18.067976,-37.499462,-24.43844
0.6024143,-3.0487108,-1.7510891,-9.272077,-35.752983,-18.57751
0.7733506,-2.9267995,-1.4760863,-1.9624636,-33.806595,-12.49296
0.93812305,-2.6969035,-1.2187355,4.014482,-31.566872,-6.332972
1.0605551,-2.365037,-0.9993171,9.394331,-28.468973,-0.8185808
1.1043721,-1.924855,-0.85512936,13.867605,-25.501657,2.9767895
1.0908473,-1.4038075,-0.74831915,17.291351,-23.080969,5.1897473
1.0662129,-0.7888901,-0.64380074,18.523256,-21.144186,6.0141773
1.02525,-0.12248107,-0.56457174,17.425934,-20.065426,6.004868
1.0025758,0.49418503,-0.4975273,15.106266,-19.143879,5.215655
1.0026761,1.0399017,-0.47948998,11.894735,-18.29289,3.6270757
1.0189242,1.4919615,-0.5137303,8.092838,-17.436796,1.2542882
1.0279319,1.8552706,-0.59850484,3.9413013,-16.560633,-1.9762716
1.0183594,2.114225,-0.74971855,-0.30739796,-16.052372,-5.6719093
0.9949666,2.291188,-0.9190897,-4.5454254,-16.019192,-9.703975
0.9385003,2.3847318,-1.0939673,-8.547334,-16.71258,-13.961881
0.8465352,2.41326,-1.2522173,-12.536331,-18.229689,-18.267809
0.7433699,2.369376,-1.3889141,-15.883908,-20.372282,-22.489227
0.6612454,2.2363663,-1.5352904,-19.06358,-23.06807,-26.68108
0.62009996,2.017763,-1.668123,-21.754358,-25.790972,-30.631056
0.6095967,1.7248678,-1.776808,-24.109089,-28.456976,-34.315125
0.60010535,1.3667359,-1.8548702,-25.86716,-31.109999,-37.495842
0.59697235,0.981916,-1.9124464,-26.790007,-34.24905,-39.535313
0.65626293,0.5726056,-1.9286903,-27.169058,-37.23028,-40.530422
0.7451561,0.15778835,-1.9228209,-26.720133,-39.663536,-40.75676
0.8187162,-0.23762342,-1.9004135,-25.392857,-41.538795,-40.519737
0.8639419,-0.6167252,-1.8592563,-23.380892,-42.965935,-39.698406
0.8928913,-0.9794343,-1.7973056,-20.682375,-43.851543,-37.928623
0.9211933,-1.3261594,-1.7099112,-17.511278,-44.148144,-35.35151
0.9545149,-1.6470603,-1.6136593,-14.279117,-43.52874,-31.915947
0.9843125,-1.9328634,-1.5300272,-10.866147,-42.204716,-27.654945
1.0124604,-2.1726332,-1.4639095,-7.217809,-40.618225,-22.439379
1.0555402,-2.3483005,-1.4006059,-2.919048,-38.965633,-16.182371
1.1205508,-2.3833492,-1.3505254,2.8219943,-37.612686,-10.042797
1.2061344,-2.2787206,-1.2712336,8.59621,-36.663887,-4.8109207
1.3465179,-2.098344,-1.1361182,14.085358,-35.049065,-0.19864894
1.5179545,-1.8155035,-0.97870183,18.663855,-32.507675,4.2735357
1.6563885,-1.4183782,-0.8359203,21.15063,-29.18796,8.01005
1.69669,-0.92557895,-0.7353008,22.359938,-25.859558,10.617729
1.6610655,-0.43064886,-0.6801778,22.808565,-23.068932,11.826548
1.5769666,0.016068567,-0.64752734,22.279833,-20.917923,11.9201765
1.4551854,0.39615428,-0.64498323,20.984583,-19.30887,11.332285
1.3099414,0.6983567,-0.6741024,18.769798,-18.582264,10.313121
1.1734227,0.88087785,-0.717177,16.407167,-18.103144,9.185516
1.0609921,0.9887943,-0.7698406,13.986208,-17.756332,7.823659
0.9843801,1.0303501,-0.8219588,11.493058,-17.417442,6.24371
0.95145464,1.010373,-0.8649365,8.836148,-17.115503,4.645036
0.9539354,0.9367183,-0.8948179,6.1908584,-16.892096,3.192142
0.9890364,0.80913836,-0.9117823,3.6754293,-16.711266,2.0375776
1.036993,0.6636979,-0.91443586,1.4991359,-16.384703,1.3576033
1.0848804,0.5189957,-0.90343726,-0.27233788,-15.808603,1.3104931
1.1182377,0.39035082,-0.8832332,-1.4785255,-15.001262,1.8102726
1.082729,0.37795553,-0.85518676,-1.4315761,-14.524909,1.7527889
1.0483898,0.36596853,-0.8280642,-1.3861731,-14.064245,1.6971984
1.0151778,0.354375,-0.80183196,-1.3422605,-13.618704,1.6434329
0.9830527,0.34316084,-0.7764581,-1.2997848,-13.187742,1.5914266
0.9519755,0.33231252,-0.751912,-1.2586949,-12.77084,1.5411171
0.9219094,0.32181716,-0.72816443,-1.2189417,-12.367499,1.4924442
0.8928188,0.3116623,-0.7051874,-1.1804782,-11.977246,1.4453504
0.8646697,0.3018361,-0.682954,-1.1432598,-11.599624,1.399781
0.8374295,0.2923272,-0.6614385,-1.107243,-11.234194,1.3556828
0.8110669,0.28312463,-0.6406162,-1.0723866,-10.880538,1.3130054
0.7855519,0.27421793,-0.6204633,-1.0386509,-10.538251,1.2717003
0.7608556,0.26559702,-0.60095716,-1.0059975,-10.206948,1.2317203
0.73695034,0.25725225,-0.58207566,-0.9743902,-9.886257,1.1930209
0.7138094,0.24917428,-0.56379795,-0.9437934,-9.575819,1.155559
0.69140714,0.24135417,-0.54610366,-0.9141733,-9.2752905,1.1192927
0.66971886,0.2337833,-0.52897334,-0.8854973,-8.984341,1.0841825
0.6487209,0.22645341,-0.5123882,-0.8577339,-8.702651,1.0501897
0.6283903,0.21935648,-0.49633023,-0.830853,-8.429914,1.0172772
0.60870516,0.21248482,-0.480782,-0.80482537,-8.165835,0.9854097
0.5896441,0.20583105,-0.46572673,-0.779623,-7.9101295,0.9545524
0.57118666,0.199388,-0.45114827,-0.75521874,-7.662522,0.9246724
0.5533132,0.19314879,-0.43703103,-0.7315866,-7.422748,0.89573777
0.53600466,0.18710677,-0.42336,-0.7087013,-7.190552,0.8677176
0.51924264,0.18125555,-0.4101206,-0.68653876,-6.965688,0.84058225
0.50300944,0.17558892,-0.39729893,-0.6650753,-6.747918,0.8143029
0.487288,0.17010091,-0.3848814,-0.64428854,-6.5370135,0.78885204
0.47206172,0.16478579,-0.37285504,-0.6241565,-6.3327513,0.76420283
0.4573147,0.15963794,-0.36120722,-0.60465807,-6.134919,0.74032944
0.44303155,0.15465203,-0.34992576,-0.585773,-5.9433093,0.717207
0.4291974,0.14982285,-0.3389989,-0.5674816,-5.7577224,0.6948114
0.41579783,0.14514536,-0.32841533,-0.54976475,-5.577966,0.6731193
0.40281898,0.14061475,-0.31816408,-0.5326042,-5.403854,0.6521084
0.39024743,0.13622631,-0.3082345,-0.5159822,-5.235205,0.6317567
0.37807018,0.13197552,-0.2986164,-0.49988154,-5.0718465,0.6120435
0.3662747,0.127858,-0.28929982,-0.48428565,-4.913609,0.59294826
0.35484886,0.1238695,-0.2802752,-0.4691785,-4.76033,0.5744514
0.34378093,0.12000594,-0.27153325,-0.45454457,-4.611853,0.55653393
0.33305955,0.11626336,-0.26306504,-0.44036886,-4.4680247,0.5391775
0.32267377,0.11263792,-0.2548619,-0.42663684,-4.3286986,0.5223643
0.31261298,0.10912593,-0.24691543,-0.41333452,-4.193732,0.5060773
0.30286685,0.10572378,-0.23921752,-0.4004483,-4.062987,0.49029967
0.29342553,0.102428034,-0.23176034,-0.38796502,-3.9363303,0.47501543
0.28427935,0.09923531,-0.22453628,-0.375872,-3.8136334,0.46020904
0.275419,0.096142374,-0.217538,-0.36415693,-3.6947713,0.44586536
0.2668355,0.09314608,-0.21075839,-0.3528079,-3.579623,0.43196988
0.25852016,0.090243384,-0.20419055,-0.34181342,-3.4680717,0.41850847
0.2504645,0.08743134,-0.19782785,-0.3311623,-3.3600044,0.4054675
0.2426604,0.08470711,-0.19166382,-0.32084376,-3.2553117,0.3928337
0.23509993,0.08206792,-0.18569224,-0.31084737,-3.1538873,0.38059437
0.22777545,0.07951112,-0.17990704,-0.301163,-3.0556285,0.36873704
0.22067955,0.07703411,-0.17430238,-0.29178083,-2.9604366,0.35724977
0.21380506,0.07463438,-0.16887261,-0.28269145,-2.8682146,0.34612092
0.20714505,0.07230953,-0.16361225,-0.27388564,-2.77887,0.33533928
0.2006928,0.0700572,-0.15851597,-0.2653545,-2.6923125,0.32489395
0.1944418,0.06787511,-0.15357865,-0.25708947,-2.6084545,0.31477442
0.18838573,0.06576108,-0.1487953,-0.24908218,-2.527212,0.3049705
0.1825185,0.06371297,-0.1441611,-0.24132459,-2.4485025,0.29547226
0.17683421,0.061728716,-0.13967142,-0.23380886,-2.3722472,0.2862702
0.17132713,0.059806325,-0.13532168,-0.22652745,-2.2983694,0.27735502
0.16599174,0.05794386,-0.13110754,-0.21947302,-2.2267945,0.2687177
0.16082263,0.056139447,-0.12702477,-0.21263847,-2.1574504,0.26034966
0.15581463,0.054391272,-0.123069234,-0.20601694,-2.0902677,0.25224242
0.15096273,0.05269758,-0.119236976,-0.19960177,-2.025179,0.24438782
0.146262,0.05105667,-0.115524136,-0.19338651,-1.9621181,0.236778
0.14170775,0.049466886,-0.111926995,-0.18736492,-1.9010226,0.22940531
0.13729541,0.04792664,-0.108441934,-0.18153095,-1.8418306,0.22226234
0.13302054,0.04643438,-0.10506545,-0.17587876,-1.7844828,0.21534191
0.12887885,0.044988614,-0.10179417,-0.17040265,-1.7289217,0.20863709
0.12486619,0.043587886,-0.09862479,-0.16509713,-1.6750914,0.20214114
0.12097853,0.042230792,-0.09555414,-0.1599569,-1.622938,0.19584754
0.11721196,0.040915973,-0.09257914,-0.15497677,-1.5724093,0.18975
0.11356272,0.039642107,-0.08969681,-0.15015177,-1.5234543,0.18384238
0.11002714,0.038407918,-0.08690426,-0.14547706,-1.4760243,0.17811877
0.10660168,0.03721217,-0.084198676,-0.14094794,-1.4300714,0.17257342
0.103282906,0.03605366,-0.08157736,-0.13655987,-1.3855497,0.16720077
0.10006748,0.034931235,-0.07903769,-0.13230847,-1.3424145,0.16199546
0.0969522,0.033843763,-0.0765771,-0.12818947,-1.3006227,0.15695225
0.09393393,0.032790154,-0.07419314,-0.12419874,-1.2601324,0.15206608
0.09100966,0.031769358,-0.07188342,-0.120332286,-1.2209029,0.14733209
0.088176444,0.030780349,-0.06964562,-0.11658623,-1.1828951,0.1427455
0.08543145,0.029822135,-0.0674775,-0.11295682,-1.1460708,0.13830173
0.082771935,0.02889376,-0.0653769,-0.10944042,-1.1103932,0.13399634
0.080195226,0.02799429,-0.06334171,-0.10603353,-1.0758263,0.12982501
0.07769875,0.02712283,-0.061369877,-0.1027327,-1.0423359,0.12578356
0.07528,0.026278501,-0.059459448,-0.09953465,-1.0098882,0.12186794
0.072936565,0.025460461,-0.057608496,-0.09643618,-0.9784508,0.11807424
0.07066609,0.02466789,-0.05581518,-0.09343418,-0.94799215,0.11439866
0.068466306,0.023899999,-0.054077692,-0.09052564,-0.9184818,0.11083751
0.066335015,0.023156013,-0.0523943,-0.08770765,-0.8898903,0.10738724
0.06427007,0.02243519,-0.05076332,-0.08497741,-0.862189,0.104044385
0.062269423,0.021736808,-0.04918312,-0.082332164,-0.83535004,0.1008056
0.060331058,0.02106017,-0.047652114,-0.07976927,-0.8093467,0.09766766
0.058453035,0.020404598,-0.04616877,-0.07728616,-0.78415287,0.0946274
0.056633484,0.019769434,-0.044731606,-0.07488036,-0.7597434,0.0916818
0.054870576,0.019154044,-0.043339185,-0.07254946,-0.7360938,0.08882789
0.05316255,0.018557811,-0.041990113,-0.070291124,-0.71318054,0.08606283
0.051507697,0.017980142,-0.04068304,-0.06810309,-0.6909805,0.08338386
0.04990436,0.017420454,-0.039416652,-0.06598317,-0.6694716,0.08078828
0.04835094,0.01687819,-0.03818969,-0.06392925,-0.6486323,0.078273505
0.046845876,0.016352806,-0.037000924,-0.061939266,-0.62844175,0.07583701
0.045387663,0.015843779,-0.035849165,-0.06001123,-0.6088797,0.07347637
0.043974847,0.015350598,-0.034733262,-0.058143213,-0.58992666,0.07118921
0.04260601,0.014872769,-0.033652097,-0.05633335,-0.57156354,0.06897326
0.041279785,0.014409815,-0.032604586,-0.054579824,-0.55377215,0.066826284
0.039994847,0.013961271,-0.031589683,-0.052880883,-0.53653455,0.06474614
0.038749903,0.013526692,-0.030606374,-0.051234834,-0.51983356,0.06273075
0.037543718,0.01310564,-0.029653674,-0.049640022,-0.50365245,0.0607781
0.036375076,0.012697695,-0.02873063,-0.048094854,-0.48797503,0.058886234
