ax,ay,az,gx,gy,gz
-0.32182112,6.060055,-3.6409423,5.215502,-51.047737,-49.938637
-0.24376577,6.1596103,-3.6481168,-22.919159,-52.520145,-60.256702
-0.42481437,5.8856916,-4.117639,-44.073547,-57.757324,-68.33885
-0.44371,5.5107217,-4.4029284,-60.10464,-62.474445,-73.244835
-0.39858374,4.853939,-4.575587,-71.28319,-64.11734,-74.918236
-0.43638432,4.1299305,-4.769444,-77.59709,-64.84958,-76.448814
-0.51482946,3.4325752,-4.920529,-81.50538,-65.507324,-79.28397
-0.666655,2.6499827,-5.0057893,-83.074776,-67.292366,-81.45473
-0.83162165,1.8098307,-4.9998546,-82.27129,-69.43661,-82.02048
-0.96236014,0.9600437,-4.9258094,-79.52351,-71.54659,-80.1563
-1.0560682,0.15945792,-4.8274217,-75.25985,-73.85669,-76.7104
-1.0533054,-0.58399725,-4.6498237,-69.70143,-75.22353,-71.905174
-0.8902225,-1.3163176,-4.3832846,-63.272133,-75.30446,-66.449036
-0.66859025,-1.9704798,-4.110223,-56.377716,-74.356926,-60.397476
-0.45964473,-2.5074453,-3.8778324,-48.991947,-73.73015,-54.72537
-0.2675354,-2.9504857,-3.6408215,-40.067394,-73.27289,-49.128864
-0.079872034,-3.2883275,-3.3822465,-30.340527,-72.58017,-42.764797
0.118612275,-3.508032,-3.122469,-21.02805,-71.657646,-36.0199
0.31291997,-3.591959,-2.855205,-12.861913,-70.576294,-29.021402
0.5103521,-3.5247946,-2.551772,-5.9134016,-68.80462,-21.900038
0.68067276,-3.3377008,-2.239531,-0.2398902,-66.42912,-15.249377
0.8209085,-3.051259,-1.9102331,4.080213,-63.146534,-9.228668
0.8883314,-2.6164935,-1.5772495,7.53019,-59.98649,-4.282232
0.9028885,-2.0969024,-1.2386901,9.554933,-57.027077,-0.8190567
0.8877786,-1.5644636,-0.93692213,10.663889,-54.377033,1.0677392
0.89978784,-1.0885878,-0.66731644,10.912551,-51.667557,2.009953
0.97692883,-0.67003417,-0.44635403,10.201323,-48.332508,2.5433016
1.0849125,-0.29271677,-0.31028473,8.833951,-44.868305,2.7617135
1.1815947,0.06711295,-0.23796819,7.0710034,-41.50888,2.550799
1.2480413,0.4189225,-0.21986392,4.8148503,-38.440723,1.6214283
1.2786038,0.73885596,-0.24264777,2.4718904,-35.67583,0.11850471
1.2670642,1.0133097,-0.29702273,0.11383992,-33.124023,-1.8258847
1.2029486,1.2290088,-0.39543262,-2.0549135,-30.853048,-3.9658744
1.10708,1.418543,-0.5139043,-4.3741736,-29.026423,-6.4238787
0.99216354,1.5747558,-0.6338698,-6.747656,-27.534164,-9.312716
0.8621361,1.6821456,-0.7507559,-8.974655,-26.357761,-12.715801
0.7173092,1.7365286,-0.8709646,-11.24382,-26.198841,-16.535564
0.5830218,1.7099004,-0.97698885,-13.74555,-26.76854,-20.224073
0.47641003,1.6270912,-1.0743989,-16.140379,-27.847599,-23.671873
0.40476274,1.4904417,-1.1586317,-18.130163,-28.99863,-26.825747
0.34611818,1.318666,-1.2462627,-19.513393,-30.423698,-29.898457
0.2988718,1.1120608,-1.3129734,-20.367899,-31.850157,-32.576393
0.26459658,0.85776967,-1.3663498,-20.741852,-33.22223,-34.380585
0.2550878,0.58111656,-1.4040768,-20.49895,-34.30439,-35.159264
0.2615599,0.30369508,-1.4510804,-19.75798,-35.665108,-35.349274
0.29455283,0.041899916,-1.482144,-19.277113,-37.55842,-35.136837
0.34102675,-0.21751858,-1.4760642,-18.717087,-39.25355,-34.267456
0.37477493,-0.4683895,-1.4541457,-17.840672,-40.626545,-33.31197
0.39350042,-0.7281413,-1.4324567,-16.535276,-41.757298,-32.230328
0.40596032,-0.99662644,-1.4101659,-14.7661295,-42.895126,-30.659554
0.4346973,-1.2761034,-1.3698562,-12.285719,-43.725147,-28.137173
0.47165897,-1.5517428,-1.3209951,-9.038324,-43.968098,-24.654797
0.52128,-1.8092204,-1.2774992,-5.212959,-43.590126,-20.748169
0.61234397,-2.0436485,-1.2346735,-0.193487,-42.19096,-16.141779
0.77909714,-2.2240403,-1.1802887,5.21962,-39.418343,-10.582503
1.0060445,-2.2837715,-1.1167185,11.315682,-35.780952,-3.6627884
1.1901238,-2.123078,-1.0551373,17.32196,-32.619385,2.6533983
1.2140112,-1.7254097,-0.97428215,21.90705,-30.282177,6.47103
1.1940497,-1.2813524,-0.8672476,24.539263,-28.389593,8.126001
1.1847649,-0.8616403,-0.74359316,25.773764,-26.576181,8.535278
1.1929256,-0.45347956,-0.61608094,25.697893,-24.660175,8.232275
1.1978524,-0.072598524,-0.50962,24.335419,-22.79148,7.2220783
1.1676396,0.23192284,-0.45200893,22.641575,-20.847687,5.738089
1.0894276,0.47717232,-0.45394328,20.43946,-19.602793,3.5673635
1.0118738,0.60345083,-0.46765137,18.224567,-18.807129,1.5752165
0.9517376,0.6375362,-0.48949674,16.594822,-18.048418,0.6368535
0.88290685,0.65069073,-0.5372964,15.2238455,-17.829903,0.3406385
0.8168489,0.639056,-0.5811783,14.264287,-17.728111,-0.12324822
0.7655307,0.6007616,-0.6191778,13.839929,-17.59857,-0.9497098
0.7345516,0.54359597,-0.64458597,13.776189,-17.463638,-1.8847381
0.72364485,0.47493047,-0.65163577,13.763161,-17.333202,-2.4096887
0.73227274,0.3950303,-0.6373075,13.608883,-17.201277,-2.0381033
0.7688767,0.32094675,-0.5907778,13.325989,-16.88763,-1.0120896
0.74449146,0.3107678,-0.5720411,12.90335,-16.352034,-0.97999084
0.72090673,0.300923,-0.5539194,12.494584,-15.834017,-0.9489457
0.6980937,0.2914003,-0.53639066,12.099195,-15.332951,-0.9189164
0.676025,0.28218833,-0.5194338,11.716704,-14.848232,-0.8898668
0.6546741,0.273276,-0.5030286,11.346657,-14.379282,-0.8617623
0.63401604,0.26465285,-0.48715568,10.988616,-13.925548,-0.8345696
0.6140266,0.25630876,-0.47179645,10.642163,-13.486499,-0.808257
0.5946826,0.24823414,-0.45693317,10.306897,-13.0616255,-0.782794
0.57596177,0.24041964,-0.44254875,9.982432,-12.650441,-0.75815135
0.5578428,0.23285638,-0.4286268,9.668399,-12.252477,-0.73430103
0.54030526,0.22553581,-0.4151516,9.364443,-11.867281,-0.711216
0.52332944,0.21844971,-0.40210795,9.070222,-11.494424,-0.6888703
0.5068964,0.21159017,-0.38948137,8.785408,-11.133488,-0.6672391
0.4909879,0.2049496,-0.37725785,8.5096855,-10.784073,-0.6462984
0.47558647,0.19852069,-0.36542392,8.242752,-10.445795,-0.62602514
0.4606752,0.1922964,-0.35396665,7.9843135,-10.118284,-0.60639715
0.4462379,0.18626992,-0.3428735,7.7340894,-9.801183,-0.587393
0.43225887,0.18043476,-0.33213252,7.4918084,-9.494146,-0.5689921
0.41872308,0.1747846,-0.3217321,7.257209,-9.196846,-0.5511746
0.40561596,0.1693134,-0.31166103,7.0300393,-8.90896,-0.53392136
0.3929235,0.16401528,-0.3019086,6.8100567,-8.630183,-0.517214
0.3806322,0.1588846,-0.2924644,6.597027,-8.360217,-0.5010347
0.36872903,0.15391594,-0.28331843,6.3907237,-8.098775,-0.48536628
0.35720137,0.14910404,-0.27446097,6.1909294,-7.8455815,-0.47019216
0.3460371,0.14444381,-0.26588273,5.9974327,-7.600369,-0.4554964
0.33522448,0.13993038,-0.2575747,5.8100314,-7.3628807,-0.44126353
0.3247522,0.13555902,-0.24952818,5.628528,-7.1328673,-0.42747864
0.31460935,0.13132516,-0.24173476,5.4527345,-6.910089,-0.41412735
0.3047853,0.12722437,-0.23418632,5.2824664,-6.6943135,-0.40119573
0.29526988,0.12325242,-0.226875,5.1175475,-6.4853168,-0.38867038
0.28605324,0.11940518,-0.21979326,4.957807,-6.2828817,-0.3765383
0.2771258,0.11567867,-0.21293375,4.803079,-6.0867996,-0.36478692
0.26847842,0.11206905,-0.20628938,4.653204,-5.8968678,-0.35340416
0.26010212,0.10857258,-0.19985332,4.508028,-5.7128906,-0.34237826
0.2519883,0.105185695,-0.19361895,4.367401,-5.5346785,-0.33169785
0.24412864,0.10190489,-0.18757987,4.2311797,-5.3620486,-0.321352
0.23651509,0.098726824,-0.18172988,4.0992236,-5.1948247,-0.3113301
0.22913985,0.09564823,-0.17606302,3.9713974,-5.0328345,-0.3016219
0.22199538,0.09266596,-0.17057344,3.8475714,-4.875913,-0.2922175
0.21507439,0.089776985,-0.1652556,3.7276182,-4.7239003,-0.28310725
0.20836982,0.086978346,-0.16010405,3.6114163,-4.576641,-0.2742819
0.20187485,0.08426719,-0.15511355,3.4988472,-4.433985,-0.2657324
0.19558288,0.08164078,-0.15027902,3.389796,-4.2957883,-0.25745013
0.1894875,0.07909643,-0.14559554,3.2841525,-4.161909,-0.24942665
0.18358253,0.07663156,-0.14105837,3.181809,-4.0322123,-0.24165381
0.17786199,0.07424367,-0.1366629,3.0826619,-3.9065661,-0.23412374
0.17232007,0.07193035,-0.13240469,2.9866107,-3.7848432,-0.22682877
0.16695116,0.069689244,-0.1282794,2.893558,-3.6669204,-0.21976157
0.16174984,0.06751809,-0.12428289,2.8034098,-3.5526783,-0.21291494
0.15671083,0.0654147,-0.120411105,2.7160752,-3.4420016,-0.20628199
0.15182908,0.06337693,-0.116660126,2.6314654,-3.3347783,-0.19985601
0.14709961,0.06140275,-0.11302617,2.5494955,-3.2309003,-0.19363052
0.14251767,0.059490148,-0.10950558,2.4700825,-3.1302626,-0.18759921
0.13807866,0.057637196,-0.106094785,2.3931465,-3.0327637,-0.18175603
0.13377807,0.055842035,-0.10279037,2.3186097,-2.9383056,-0.17609508
0.1296116,0.05410285,-0.09958899,2.2463973,-2.846793,-0.17061065
0.12557502,0.05241789,-0.096487425,2.1764364,-2.7581334,-0.16529721
0.121664286,0.05078546,-0.09348256,2.1086564,-2.6722379,-0.16014943
0.11787546,0.04920392,-0.09057136,2.0429895,-2.5890203,-0.15516211
0.114204735,0.047671676,-0.087750904,1.9793694,-2.5083961,-0.15033026
0.110648416,0.046187185,-0.08501835,1.9177321,-2.4302852,-0.145649
0.10720293,0.044748962,-0.08237097,1.8580158,-2.3546083,-0.14111362
0.10386481,0.043355554,-0.079806075,1.8001603,-2.2812898,-0.13671958
0.100630715,0.04200557,-0.077321105,1.7441077,-2.210256,-0.13246247
0.09749738,0.040697645,-0.07491356,1.6898016,-2.1414354,-0.128338
0.09446168,0.03943047,-0.07258103,1.6371874,-2.074759,-0.124342024
0.09152055,0.038202774,-0.07032117,1.5862124,-2.01016,-0.12047055
0.08867104,0.037013326,-0.068131715,1.5368254,-1.9475734,-0.11671968
0.0859103,0.03586093,-0.06601045,1.488977,-1.8869364,-0.11308566
0.083235554,0.03474443,-0.06395528,1.4426188,-1.8281882,-0.109564826
0.08064412,0.033662707,-0.06196411,1.3977048,-1.7712699,-0.106153674
0.07813341,0.032614674,-0.060034964,1.3541896,-1.7161245,-0.10284876
0.075700894,0.031599287,-0.058165904,1.3120298,-1.6626966,-0.099646784
0.073344134,0.030615523,-0.056355055,1.2711831,-1.6109327,-0.09654453
0.07106078,0.029662397,-0.0546006,1.2316085,-1.560781,-0.09353889
0.06884852,0.028738951,-0.052900787,1.1932663,-1.512191,-0.09062686
0.06670517,0.027844265,-0.051253904,1.156118,-1.4651142,-0.08780551
0.06462856,0.02697744,-0.04965831,1.1201267,-1.4195035,-0.08507202
0.06261661,0.026137607,-0.0481124,1.0852561,-1.375313,-0.08242364
0.06066731,0.025323926,-0.04661463,1.0514714,-1.3324986,-0.07985774
0.05877871,0.024535581,-0.045163494,1.0187386,-1.2910173,-0.07737173
0.056948915,0.023771783,-0.043757547,0.9870251,-1.2508277,-0.07496314
0.055176098,0.023031767,-0.042395372,0.956299,-1.2118894,-0.07262953
0.053458475,0.022314794,-0.041075613,0.92652965,-1.1741636,-0.070368595
0.051794335,0.021620143,-0.03979695,0.89768714,-1.1376123,-0.06817804
0.050182007,0.02094712,-0.038558092,0.86974263,-1.1021991,-0.0660557
0.048619878,0.020295052,-0.037357807,0.8426682,-1.0678885,-0.06399944
0.047106385,0.019663285,-0.03619489,0.81643665,-1.034646,-0.062007193
0.04564001,0.019051187,-0.03506818,0.7910218,-1.0024385,-0.06007697
0.044219293,0.018458147,-0.03397655,0.76639825,-0.97123384,-0.058206845
0.0428428,0.017883569,-0.032918904,0.7425413,-0.9410006,-0.056394942
0.041509166,0.017326878,-0.031894185,0.71942705,-0.9117086,-0.054639447
0.04021705,0.01678752,-0.030901369,0.6970324,-0.8833285,-0.052938607
0.03896516,0.01626495,-0.02993946,0.67533493,-0.8558319,-0.051290713
0.03775224,0.015758652,-0.029007496,0.6543129,-0.8291914,-0.049694125
0.036577083,0.015268113,-0.028104547,0.63394535,-0.8033802,-0.04814724
0.03543851,0.0147928465,-0.027229706,0.61421186,-0.7783725,-0.046648506
0.034335382,0.0143323755,-0.0263821,0.59509265,-0.75414336,-0.045196433
0.033266593,0.013886238,-0.02556088,0.57656866,-0.7306684,-0.04378956
0.032231074,0.013453989,-0.024765225,0.55862135,-0.7079243,-0.042426486
0.031227794,0.013035197,-0.02399434,0.5412327,-0.6858882,-0.041105844
0.030255742,0.012629441,-0.02324745,0.52438533,-0.664538,-0.039826315
0.029313954,0.012236316,-0.022523811,0.5080625,-0.64385253,-0.038586613
0.028401481,0.011855429,-0.0218227,0.4922477,-0.62381095,-0.037385505
0.027517412,0.011486399,-0.021143412,0.47692525,-0.60439324,-0.036221787
0.026660863,0.011128856,-0.02048527,0.46207976,-0.58558,-0.035094295
0.025830979,0.010782443,-0.019847617,0.44769642,-0.5673524,-0.034001898
