ax,ay,az,gx,gy,gz
-0.73546124,4.389131,-2.9800272,24.470222,39.00763,14.426496
-0.29403305,5.216215,-3.2882884,-4.783049,25.947369,8.279836
0.25245118,5.437191,-3.4009802,-32.567547,14.54434,-0.27366698
0.7975273,5.351462,-3.1635215,-49.488026,17.289286,-4.4949665
0.98762804,5.446473,-3.1794007,-58.546425,23.030493,-11.929533
0.97229904,5.468405,-3.2139218,-64.21058,30.208702,-20.26815
0.7979864,5.3333273,-3.3343947,-66.0571,38.223736,-27.733192
0.32850114,5.1033177,-3.6772869,-68.22558,39.832417,-36.589207
-0.19365808,4.7835445,-3.9691105,-70.50504,37.63243,-44.463333
-0.66769665,4.4005575,-4.206254,-72.63679,33.295147,-51.299732
-1.0200257,3.913329,-4.382987,-75.11279,27.17786,-56.654133
-1.2223972,3.3288374,-4.4840455,-75.987526,20.545544,-59.666035
-1.322333,2.646875,-4.525809,-74.47571,14.255082,-60.925606
-1.400534,1.9736296,-4.542414,-71.734665,7.6955714,-61.611954
-1.4209272,1.2775925,-4.515238,-67.94056,1.4170359,-61.868935
-1.3364389,0.54548025,-4.4180183,-63.297413,-3.659241,-60.592308
-1.1924622,-0.18809125,-4.2850046,-57.767124,-7.46255,-56.63497
-1.0716525,-0.88001746,-4.140321,-51.607975,-10.760628,-51.42571
-0.9944233,-1.4578769,-4.0043316,-44.026733,-14.035211,-45.893448
-0.93465257,-1.9016079,-3.8676925,-35.76184,-17.59693,-40.63311
-0.83300483,-2.2208679,-3.702528,-27.202045,-20.983843,-35.379875
-0.6747784,-2.4224846,-3.503174,-19.211752,-24.307068,-29.774658
-0.44063407,-2.4822927,-3.2255044,-11.773799,-26.835955,-22.753529
-0.18569359,-2.3913786,-2.9055026,-5.369242,-28.70513,-15.314042
0.041446242,-2.149944,-2.5665004,0.18913354,-30.031708,-8.888234
0.23211813,-1.7629774,-2.1996295,4.230959,-30.702005,-4.4528694
0.40609765,-1.3293672,-1.815745,6.934345,-30.23476,-2.0730112
0.56216794,-0.8737558,-1.4387484,8.374907,-29.11655,-0.36771888
0.71189386,-0.4252128,-1.0977792,8.355962,-27.657652,0.9938633
0.85914886,-0.0154852895,-0.80767673,7.3567367,-25.9546,2.044121
0.9957705,0.35080835,-0.5772575,6.07127,-23.47933,2.4549105
1.0889986,0.68214744,-0.42738914,4.510466,-20.288843,1.3889413
1.1208551,0.952241,-0.37330565,2.8570337,-17.065947,-0.46445343
1.1130981,1.1741564,-0.37538204,0.7578877,-14.204882,-2.711701
1.0823369,1.3530252,-0.42177522,-1.3905859,-11.915787,-5.0454345
1.0441681,1.5064905,-0.48809692,-3.8041146,-10.36033,-7.417174
1.0097433,1.6334038,-0.55670303,-6.5666175,-9.356739,-9.946083
0.9916652,1.6996858,-0.60619396,-9.131364,-8.008011,-12.589815
0.9712792,1.7364292,-0.67007947,-11.5298195,-6.5392547,-15.340866
0.9366412,1.752027,-0.7563352,-13.799755,-5.213262,-18.25037
0.87727696,1.7504331,-0.8687778,-16.027027,-4.47205,-21.417011
0.7965571,1.7063679,-0.9874472,-18.60924,-4.5415306,-24.858982
0.70834875,1.5781257,-1.1037834,-20.792894,-4.8835626,-28.337524
0.610461,1.4107279,-1.2277312,-22.4426,-5.65205,-31.787766
0.51489234,1.2035669,-1.351224,-23.812586,-6.923982,-34.954132
0.4328168,0.9600546,-1.4660646,-24.609764,-8.475601,-37.510574
0.34422064,0.7054285,-1.5718883,-24.77997,-10.683704,-39.325336
0.24101089,0.45949826,-1.653864,-24.648096,-13.509685,-40.875893
0.1652528,0.18832865,-1.7026918,-24.226004,-16.501375,-41.989796
0.13157703,-0.11072039,-1.733691,-23.400497,-19.447428,-42.358208
0.13408712,-0.4326568,-1.7514082,-22.071928,-22.109913,-41.962986
0.15029454,-0.7735553,-1.7621678,-19.897228,-24.323786,-40.913105
0.15165439,-1.0992566,-1.7731532,-16.463531,-25.986568,-39.246586
0.15758665,-1.4091898,-1.7797341,-12.129584,-27.365553,-36.9849
0.19563088,-1.6877872,-1.7751381,-6.8225155,-28.185743,-34.06934
0.28296474,-1.9128636,-1.7670813,-0.4156416,-28.157965,-30.705168
0.3945061,-2.0611389,-1.7711233,7.018047,-27.416677,-27.389408
0.49841225,-2.081552,-1.7857032,14.357166,-26.716167,-23.915405
0.58578974,-1.9977692,-1.7895678,20.663685,-26.734686,-20.099234
0.6474569,-1.8620784,-1.7701033,25.801794,-27.665073,-15.63737
0.6934045,-1.6515907,-1.7045183,29.676256,-29.462738,-10.876852
0.7475277,-1.3734387,-1.5724168,32.216766,-30.805948,-7.0482125
0.81554043,-1.0420338,-1.3828894,34.108746,-30.999794,-4.557927
0.8734975,-0.71217775,-1.186173,35.528,-29.911667,-3.0786123
0.89989656,-0.3908796,-1.0129733,36.287796,-28.081282,-2.011436
0.8805381,-0.07826936,-0.87827647,36.24166,-26.22325,-1.2589775
0.832545,0.20010827,-0.78173906,35.608307,-24.539791,-0.90173906
0.77788734,0.41949758,-0.73056215,34.65075,-23.461868,-1.3375897
0.7534909,0.57664436,-0.6882913,33.483677,-22.466967,-2.045362
0.7685259,0.6731454,-0.65320647,32.12212,-21.474201,-2.3635497
0.8123207,0.7419147,-0.61015254,30.428907,-20.49509,-1.9443297
0.8608942,0.80169314,-0.5522479,28.32029,-19.111818,-1.0422142
0.89265174,0.8298689,-0.47987214,26.172838,-17.243216,-0.25711617
0.86434096,0.8035493,-0.4646528,25.342756,-16.69634,-0.24896163
0.8369595,0.77809364,-0.44993305,24.539923,-16.167418,-0.24107477
0.810474,0.75347096,-0.435695,23.76336,-15.655801,-0.23344599
0.78485256,0.7296516,-0.4219214,23.01213,-15.160876,-0.2260661
0.76006466,0.70660704,-0.40859592,22.285341,-14.682052,-0.21892628
0.736081,0.68431026,-0.39570278,21.582134,-14.218763,-0.21201812
0.71287364,0.6627351,-0.38322693,20.901686,-13.77047,-0.20533353
0.69041556,0.64185655,-0.37115392,20.243208,-13.336651,-0.19886479
0.668681,0.6216507,-0.35946986,19.605944,-12.916808,-0.19260447
0.6476453,0.6020945,-0.34816146,18.989168,-12.510464,-0.1865454
0.6272845,0.5831657,-0.3372159,18.392185,-12.117158,-0.18068077
0.6075759,0.5648433,-0.32662094,17.814322,-11.73645,-0.17500396
0.5884974,0.5471066,-0.3163647,17.254934,-11.367914,-0.16950867
0.57002795,0.5299362,-0.30643588,16.713404,-11.011142,-0.16418879
0.55214715,0.513313,-0.29682353,16.189133,-10.665742,-0.15903847
0.53483546,0.4972189,-0.2875171,15.681549,-10.331334,-0.15405208
0.51807404,0.48163632,-0.27850646,15.190098,-10.007556,-0.14922416
0.50184464,0.4665484,-0.26978186,14.714247,-9.694056,-0.1445495
0.4861298,0.45193884,-0.26133388,14.253483,-9.390494,-0.14002307
0.47091267,0.43779197,-0.25315344,13.807312,-9.096547,-0.13563998
0.45617697,0.42409268,-0.24523182,13.375257,-8.8119,-0.13139556
0.441907,0.41082636,-0.23756057,12.956856,-8.536249,-0.12728529
0.42808762,0.39797893,-0.23013154,12.551667,-8.269302,-0.12330481
0.41470423,0.38553685,-0.2229369,12.159262,-8.010777,-0.119449906
0.40174273,0.37348697,-0.21596904,11.779226,-7.760402,-0.11571652
0.38918948,0.3618166,-0.20922066,11.411161,-7.5179133,-0.11210073
0.37703136,0.35051364,-0.2026847,11.054682,-7.2830567,-0.10859875
0.36525568,0.33956617,-0.19635431,10.7094145,-7.055588,-0.10520692
0.35385016,0.3289628,-0.19022293,10.375001,-6.8352685,-0.101921715
0.34280294,0.31869256,-0.18428415,10.051093,-6.6218715,-0.09873971
0.33210257,0.30874482,-0.17853186,9.737354,-6.415174,-0.09565762
0.321738,0.2991092,-0.17296006,9.433462,-6.2149634,-0.09267224
0.31169853,0.28977582,-0.16756304,9.139101,-6.0210323,-0.08978051
0.3019738,0.28073508,-0.1623352,8.853969,-5.833181,-0.086979434
0.29255378,0.2719776,-0.1572712,8.577772,-5.6512165,-0.08426613
0.28342888,0.2634945,-0.15236583,8.310226,-5.4749517,-0.08163783
0.2745897,0.25527698,-0.14761405,8.051058,-5.3042064,-0.07909182
0.26602715,0.24731669,-0.143011,7.8000026,-5.138806,-0.0766255
0.25773257,0.23960547,-0.138552,7.5568023,-4.9785805,-0.074236356
0.24969743,0.23213546,-0.13423246,7.3212094,-4.8233666,-0.071921945
0.24191354,0.22489905,-0.13004799,7.0929832,-4.6730065,-0.0696799
0.234373,0.21788886,-0.12599435,6.8718925,-4.527347,-0.06750795
0.22706814,0.21109776,-0.1220674,6.657711,-4.3862405,-0.065403886
0.21999152,0.20451885,-0.11826314,6.4502225,-4.249542,-0.06336556
0.21313596,0.19814548,-0.114577726,6.249215,-4.1171145,-0.06139091
0.20649451,0.19197114,-0.111007415,6.054486,-3.9888227,-0.05947793
0.20006044,0.18598959,-0.10754859,5.8658366,-3.8645368,-0.057624687
0.19382724,0.1801948,-0.10419774,5.6830773,-3.7441308,-0.055829294
0.18778859,0.17458087,-0.10095148,5.5060225,-3.6274834,-0.05408995
0.18193841,0.16914214,-0.097806536,5.334493,-3.5144763,-0.05240488
0.17627077,0.16387312,-0.094759725,5.168316,-3.4049952,-0.050772395
0.17077994,0.15876849,-0.09180796,5.0073233,-3.29893,-0.049190838
0.16546041,0.1538231,-0.08894829,4.8513527,-3.1961732,-0.04765862
0.1603068,0.14903194,-0.086177796,4.700247,-3.0966215,-0.046174187
0.1553139,0.1443902,-0.08349371,4.5538535,-3.0001745,-0.04473605
0.15047668,0.1398932,-0.08089332,4.412025,-2.9067347,-0.043342758
0.1457903,0.13553642,-0.07837401,4.2746186,-2.8162086,-0.041992906
0.14125,0.13131547,-0.07593324,4.1414957,-2.7285044,-0.04068514
0.13685125,0.1272261,-0.07356856,4.0125227,-2.6435344,-0.03941814
0.13258961,0.12326418,-0.07127758,3.88757,-2.561213,-0.03819063
0.12846078,0.11942575,-0.06905801,3.7665117,-2.4814572,-0.03700138
0.12446064,0.11570695,-0.06690761,3.6492262,-2.404187,-0.03584919
0.12058514,0.112104036,-0.064824216,3.5355954,-2.3293247,-0.034732908
0.116830416,0.10861339,-0.06280575,3.4255056,-2.2567952,-0.033651408
0.11319268,0.1052315,-0.060850173,3.3188457,-2.1865256,-0.03260361
0.10966828,0.10195498,-0.058955524,3.2155092,-2.1184452,-0.031588454
0.106253676,0.09878054,-0.057119902,3.1153922,-2.052486,-0.030604925
0.102945454,0.095704995,-0.055341464,3.018394,-1.9885814,-0.029652035
0.09974028,0.092725255,-0.053618427,2.9244173,-1.9266677,-0.02872883
0.096634954,0.089838326,-0.05194906,2.833368,-1.8666825,-0.027834382
0.09362635,0.087041326,-0.050331697,2.7451549,-1.8085657,-0.026967794
0.09071145,0.084331445,-0.048764706,2.6596892,-1.7522591,-0.026128199
0.08788735,0.081705965,-0.04724652,2.5768855,-1.6977063,-0.025314754
0.085151196,0.079162255,-0.04577562,2.4966605,-1.6448525,-0.02452664
0.08250026,0.07669777,-0.044350527,2.418934,-1.5936447,-0.023763075
0.07993187,0.07431003,-0.04296981,2.3436284,-1.5440316,-0.023023287
0.07744347,0.071996644,-0.041632097,2.2706678,-1.4959637,-0.022306537
0.07503256,0.0697553,-0.040336043,2.199979,-1.4493924,-0.021612108
0.07269673,0.067583755,-0.039080344,2.1314917,-1.4042716,-0.020939304
0.07043363,0.06547982,-0.037863746,2.065137,-1.3605556,-0.020287449
0.068241,0.06344141,-0.03668503,2.0008483,-1.318201,-0.01965589
0.066116646,0.061466467,-0.035543017,1.9385614,-1.277165,-0.019043999
0.06405844,0.059553016,-0.034436565,1.878214,-1.237407,-0.01845116
0.062064312,0.057699144,-0.03336456,1.8197457,-1.1988868,-0.01787678
0.060132273,0.05590299,-0.032325935,1.7630976,-1.1615659,-0.017320283
0.05826039,0.054162763,-0.031319648,1.7082134,-1.125407,-0.016781112
0.056446787,0.052476715,-0.03034469,1.655038,-1.0903739,-0.016258728
0.05468965,0.050843164,-0.029400086,1.6035181,-1.0564315,-0.015752608
0.052987218,0.049260467,-0.028484892,1.5536023,-1.0235459,-0.015262246
0.051337786,0.04772705,-0.027598191,1.5052406,-0.99168414,-0.014787151
0.049739707,0.046241365,-0.026739096,1.4583843,-0.9608143,-0.014326845
0.048191383,0.04480194,-0.025906745,1.4129869,-0.9309055,-0.013880871
0.046691258,0.043407325,-0.02510031,1.3690028,-0.9019278,-0.013448781
0.045237835,0.042056125,-0.024318976,1.326388,-0.8738523,-0.0130301425
0.04382966,0.04074699,-0.02356197,1.2850999,-0.84665084,-0.012624537
0.042465325,0.03947861,-0.022828529,1.245097,-0.8202961,-0.012231559
0.041143462,0.03824972,-0.02211792,1.2063396,-0.7947619,-0.011850813
0.03986275,0.037059084,-0.021429434,1.1687887,-0.7700226,-0.011481921
0.038621902,0.03590551,-0.02076238,1.1324067,-0.74605334,-0.011124513
0.037419688,0.03478785,-0.020116093,1.0971574,-0.7228303,-0.010778231
0.036254894,0.03370498,-0.019489923,1.0630052,-0.7003302,-0.010442729
0.035126362,0.03265582,-0.018883247,1.0299163,-0.6785305,-0.0101176705
0.034032963,0.031639323,-0.018295456,0.99785745,-0.6574095,-0.009802731
0.0329736,0.030654466,-0.017725961,0.9667965,-0.6369459,-0.009497596
0.03194721,0.029700268,-0.017174197,0.93670255,-0.6171194,-0.009201959
0.030952774,0.028775774,-0.016639607,0.9075453,-0.59791,-0.008915525
0.029989293,0.027880058,-0.016121658,0.87929577,-0.57929856,-0.008638008
