ax,ay,az,gx,gy,gz
-1.4963772,4.280948,-4.968227,-31.461193,39.00763,-26.022964
-1.2026938,4.265726,-4.3749175,-25.486206,43.48326,-32.730206
-0.8944925,4.526286,-4.154868,-20.405972,45.64451,-34.895027
-0.84418637,5.2104535,-4.204841,-27.856943,41.597713,-42.713688
-0.7654238,5.7279024,-4.238218,-35.58353,38.37593,-53.74701
-0.7075977,5.9329605,-4.3651123,-46.26002,34.520027,-66.05383
-0.636006,5.716592,-4.529518,-55.337902,29.497309,-74.71968
-0.6961991,5.3067217,-4.7330313,-63.125668,22.323645,-79.35075
-0.8336728,4.8257976,-4.8819914,-69.03893,14.262682,-81.11372
-0.99639344,4.3210497,-4.9984303,-72.27129,6.592065,-82.1461
-1.1516601,3.8042066,-5.0995007,-73.65986,-1.144846,-83.24553
-1.2491286,3.2497072,-5.1388297,-72.8614,-8.350107,-83.62465
-1.2710037,2.6957006,-5.1097426,-71.145164,-14.980983,-83.1642
-1.2923242,2.1822236,-5.042647,-69.717186,-21.875013,-82.176445
-1.2801417,1.6474,-4.9070787,-67.48965,-27.659561,-80.591225
-1.2601295,1.1168665,-4.7593613,-64.8162,-32.685223,-78.73577
-1.2219723,0.5754776,-4.5750785,-61.02494,-36.25735,-75.84848
-1.1611888,0.031112,-4.3726993,-56.72309,-38.97865,-72.113625
-1.07237,-0.47595268,-4.1715198,-52.446487,-41.103493,-67.84355
-0.93595195,-0.95471317,-3.9815385,-47.804596,-42.74319,-63.166733
-0.7668509,-1.4127647,-3.8004768,-42.307056,-43.6671,-58.132595
-0.5999142,-1.8214457,-3.6432118,-35.141933,-44.786976,-52.442547
-0.42147607,-2.1186767,-3.475811,-27.79902,-46.259426,-46.52096
-0.21996218,-2.3519614,-3.299869,-20.476536,-47.735203,-40.35649
0.015624564,-2.497619,-3.1049888,-13.062862,-48.50422,-33.799694
0.2359628,-2.5148504,-2.898329,-5.5926795,-48.547314,-27.394989
0.4140918,-2.3938692,-2.669126,0.7464953,-47.611816,-21.626879
0.49967137,-2.152305,-2.4503872,6.7268534,-46.513184,-16.77568
0.50472397,-1.8300446,-2.238324,11.925275,-45.45639,-12.928063
0.4404164,-1.4232363,-2.0382202,15.579557,-44.831074,-10.398973
0.3944286,-1.010941,-1.8267878,17.500027,-44.51632,-9.043133
0.44848698,-0.6608138,-1.5916135,18.171274,-43.854824,-7.9077797
0.59522325,-0.36282736,-1.333936,18.123117,-42.278057,-6.4163785
0.7218598,-0.054377485,-1.0933753,17.110779,-39.89299,-5.074057
0.80772984,0.26773608,-0.894447,16.195015,-36.656082,-4.5996833
0.8460876,0.6002693,-0.76651573,14.763249,-33.643143,-5.1296253
0.89389175,0.89863974,-0.66297644,12.217266,-30.733955,-6.0321565
0.9348923,1.1506493,-0.60011846,9.135303,-27.949928,-6.849129
0.9586944,1.3765593,-0.56131285,5.7776556,-25.196154,-7.920001
0.96894395,1.5795883,-0.5400933,2.432963,-22.333158,-9.563119
0.9707563,1.7694657,-0.53907615,-0.99636275,-19.268345,-12.1890745
0.96477455,1.9174529,-0.5702095,-4.279734,-16.206059,-16.187546
0.9490295,1.9840405,-0.63193405,-7.2811427,-13.346505,-20.597347
0.90628076,1.9942323,-0.7173261,-10.059707,-11.005024,-24.847986
0.81726354,1.9575782,-0.8315577,-12.3907795,-9.607226,-28.772116
0.70772266,1.867938,-0.95497,-14.541424,-9.298813,-32.18389
0.60798115,1.728979,-1.0690118,-15.929227,-9.494007,-35.008335
0.5039221,1.5738162,-1.1899112,-16.651463,-10.001547,-38.029964
0.38950405,1.3974863,-1.3279965,-17.013939,-11.10472,-41.344757
0.29858893,1.1883467,-1.4526635,-17.161358,-12.74998,-44.334198
0.24575213,0.9510636,-1.5587809,-17.066301,-14.917836,-46.55874
0.22626105,0.6963947,-1.6381619,-16.27024,-17.571774,-47.765663
0.2401163,0.45892334,-1.6683232,-15.28422,-20.11871,-48.449554
0.26173317,0.22671904,-1.681418,-13.886614,-22.377056,-49.05292
0.28539518,-0.009869336,-1.695152,-12.1669035,-24.288553,-49.728893
0.3031369,-0.2693306,-1.7226042,-10.3473425,-26.252546,-50.206757
0.32763043,-0.5676371,-1.7375462,-8.1526,-28.136908,-49.268276
0.35877678,-0.8614249,-1.7464753,-5.65909,-29.965178,-47.66161
0.4159884,-1.1464199,-1.7566527,-2.6327794,-31.231474,-45.913116
0.50999385,-1.454154,-1.796696,1.6060755,-31.375235,-44.437466
0.62400687,-1.8085632,-1.8853825,7.545199,-30.46514,-42.653038
0.7287479,-2.12157,-1.9742042,15.028376,-29.403013,-38.51668
0.7992097,-2.2905436,-2.013852,22.75241,-29.281239,-32.04268
0.8627879,-2.1242764,-1.9203817,29.491306,-30.200794,-24.02502
0.96559155,-1.6856676,-1.7244924,34.323776,-31.72702,-16.787317
1.1300353,-1.1503235,-1.4263437,36.79827,-32.11541,-12.313035
1.3316803,-0.71090287,-1.0944755,39.065533,-28.83868,-11.5858965
1.4891491,-0.3943892,-0.8413173,40.951595,-24.178915,-11.7404785
1.5745443,-0.14536287,-0.6665152,41.72557,-19.358036,-10.963976
1.5693612,0.06344402,-0.59245735,41.743793,-15.157768,-9.1410675
1.4747537,0.25599682,-0.61352074,41.69728,-12.014712,-7.678187
1.3482786,0.41948995,-0.67267585,41.301067,-9.730874,-7.4534492
1.2313191,0.5193732,-0.7488645,40.64661,-7.976045,-7.6043944
1.1197342,0.57892287,-0.8252712,39.763985,-6.7881117,-7.510346
1.0058882,0.62378275,-0.89083815,38.554577,-6.1786356,-6.968846
0.90348893,0.677491,-0.92517793,36.93858,-5.8923244,-6.1437736
0.8219754,0.7339677,-0.92134714,35.082,-5.588356,-5.200895
0.7598843,0.7828906,-0.8793941,33.59233,-4.9492335,-4.225082
0.7359063,0.7581867,-0.8516451,32.532333,-4.793062,-4.0917606
0.7127044,0.7342824,-0.8247941,31.506643,-4.641945,-3.9627542
0.6902517,0.7111498,-0.7988102,30.51407,-4.495707,-3.8379133
0.6685223,0.6887626,-0.77366334,29.553476,-4.3541803,-3.7170944
0.6474916,0.66709507,-0.749325,28.623766,-4.217204,-3.60016
0.62713563,0.6461229,-0.7257676,27.723888,-4.0846233,-3.4869776
0.6074317,0.62582237,-0.7029648,26.852833,-3.9562886,-3.3774204
0.58835775,0.60617095,-0.680891,26.009628,-3.8320572,-3.2713661
0.56989264,0.5871468,-0.6595218,25.19334,-3.7117915,-3.1686974
0.55201614,0.56872904,-0.63883376,24.403069,-3.595359,-3.0693007
0.53470856,0.5508974,-0.61880416,23.637949,-3.4826324,-2.9730678
0.5179511,0.5336326,-0.5994112,22.897148,-3.3734884,-2.8798933
0.5017255,0.5169158,-0.58063376,22.179863,-3.2678092,-2.7896767
0.48601443,0.500729,-0.5624517,21.485321,-3.1654806,-2.7023203
0.4708009,0.48505494,-0.5448455,20.812773,-3.066393,-2.6177306
0.4560687,0.46987668,-0.5277963,20.161505,-2.97044,-2.5358171
0.4418021,0.45517817,-0.511286,19.530819,-2.8775196,-2.4564927
0.42798603,0.44094378,-0.49529698,18.92005,-2.7875335,-2.3796728
0.4146058,0.42715845,-0.4798124,18.328547,-2.7003863,-2.3052766
0.40164736,0.4138077,-0.46481597,17.755692,-2.615986,-2.2332256
0.38909712,0.40087745,-0.45029187,17.20088,-2.5342445,-2.163444
0.3769419,0.3883542,-0.43622497,16.663532,-2.4550757,-2.095859
0.365169,0.37622488,-0.42260048,16.143085,-2.3783972,-2.0303998
0.35376617,0.36447683,-0.4094043,15.638999,-2.3041291,-1.9669982
0.34272155,0.35309786,-0.3966227,15.150749,-2.232194,-1.9055885
0.33202374,0.34207612,-0.3842424,14.677829,-2.1625175,-1.8461068
0.32166162,0.3314003,-0.3722506,14.219749,-2.0950277,-1.7884917
0.31162453,0.32105932,-0.3606349,13.776037,-2.0296547,-1.7326838
0.30190212,0.31104255,-0.34938338,13.346236,-1.9663311,-1.6786256
0.29248434,0.30133966,-0.33848447,12.929904,-1.904992,-1.6262612
0.2833616,0.2919407,-0.32792696,12.526613,-1.8455743,-1.5755373
0.2745245,0.28283605,-0.31770003,12.135951,-1.788017,-1.5264016
0.26596403,0.27401638,-0.3077932,11.757516,-1.7322613,-1.4788039
0.2576714,0.26547268,-0.29819635,11.390923,-1.6782502,-1.4326955
0.24963816,0.25719625,-0.2888997,11.035795,-1.6259286,-1.3880293
0.24185613,0.2491786,-0.27989376,10.691774,-1.5752432,-1.34476
0.23431738,0.2414116,-0.27116936,10.358507,-1.5261422,-1.3028433
0.22701424,0.23388736,-0.26271763,10.035656,-1.478576,-1.2622367
0.2199393,0.22659822,-0.25452998,9.722894,-1.4324958,-1.2228988
0.21308537,0.21953677,-0.24659811,9.4199,-1.3878552,-1.1847898
0.2064455,0.21269587,-0.23891397,9.12637,-1.3446088,-1.147871
0.20001295,0.20606858,-0.23146975,8.842006,-1.3027127,-1.112105
0.19378124,0.19964817,-0.22425795,8.566519,-1.2621245,-1.0774556
0.18774402,0.19342819,-0.21727124,8.299631,-1.2228034,-1.0438877
0.18189523,0.18740231,-0.21050258,8.041073,-1.1847093,-1.0113674
0.17622893,0.18156447,-0.20394512,7.7905817,-1.147804,-0.9798619
0.17073941,0.17590874,-0.19759224,7.5479054,-1.1120499,-0.94933933
0.16542114,0.17042945,-0.19143754,7.3128,-1.0774113,-0.9197688
0.16026874,0.16512106,-0.18547481,7.0850267,-1.043853,-0.8911207
0.15527703,0.15997821,-0.17969804,6.864357,-1.0113412,-0.8633659
0.15044096,0.15499574,-0.17410138,6.6505685,-0.97984326,-0.83647656
0.1457557,0.1501686,-0.16867924,6.4434457,-0.9493274,-0.8104257
0.14121647,0.14549196,-0.16342613,6.24278,-0.9197629,-0.7851869
0.13681877,0.14096111,-0.15833677,6.04837,-0.89111996,-0.7607349
0.13255814,0.13657148,-0.15340605,5.860019,-0.8633699,-0.7370451
0.12843029,0.13231866,-0.14862901,5.6775393,-0.8364847,-0.7140936
0.124431096,0.12819839,-0.14400084,5.5007463,-0.8104373,-0.69185746
0.120556526,0.124206506,-0.1395169,5.329462,-0.7852017,-0.6703142
0.116802685,0.12033902,-0.13517268,5.1635156,-0.76075244,-0.6494422
0.11316581,0.116592035,-0.13096383,5.00274,-0.73706496,-0.6292206
0.109642245,0.11296179,-0.1268861,4.846973,-0.71411544,-0.609629
0.106228456,0.10944464,-0.12293541,4.696059,-0.691881,-0.59064776
0.10292102,0.106037065,-0.1191078,4.5498466,-0.67033917,-0.5722578
0.09971661,0.10273564,-0.11539942,4.408189,-0.64946836,-0.5544408
0.096612014,0.09953705,-0.11180656,4.2709436,-0.6292477,-0.53717875
0.093604125,0.096438095,-0.1083256,4.1379733,-0.60965693,-0.5204544
0.09068993,0.09343566,-0.10495307,4.0091443,-0.5906763,-0.50425094
0.087866485,0.090526745,-0.10168558,3.8843284,-0.57228684,-0.48855215
0.08513098,0.08770842,-0.098519854,3.7633996,-0.5544701,-0.47334233
0.08248068,0.084977865,-0.09545272,3.646237,-0.5372083,-0.45860615
0.0799129,0.08233235,-0.09248111,3.532723,-0.52048403,-0.4443289
0.07742509,0.079769224,-0.08960203,3.422744,-0.50428057,-0.4304963
0.075014755,0.077285916,-0.08681261,3.3161898,-0.48858172,-0.4170944
0.072679475,0.07487993,-0.08411005,3.2129538,-0.4733717,-0.4041099
0.07041692,0.072548866,-0.08149165,3.1129322,-0.45863533,-0.39152968
0.06822481,0.07029039,-0.07895478,3.0160253,-0.4443578,-0.37934119
0.066100955,0.06810223,-0.0764969,2.9221358,-0.43052486,-0.36753222
0.06404323,0.065982215,-0.07411555,2.8311698,-0.41712263,-0.35609093
0.06204958,0.0639282,-0.07180835,2.743036,-0.4041377,-0.3450059
0.060118,0.06193814,-0.069572985,2.6576464,-0.39155704,-0.334266
0.05824656,0.060010042,-0.06740722,2.5749154,-0.3793681,-0.3238605
0.05643339,0.058141973,-0.065308884,2.4947603,-0.36755866,-0.31377897
0.054676667,0.056332067,-0.06327587,2.4171004,-0.3561169,-0.3040113
0.05297464,0.054578505,-0.061306164,2.3418586,-0.34503132,-0.29454774
0.0513256,0.052879542,-0.059397772,2.2689595,-0.33429092,-0.2853788
0.0497279,0.05123347,-0.0575488,2.1983297,-0.32388487,-0.27649534
0.048179943,0.049638648,-0.055757385,2.1298988,-0.31380278,-0.26788843
0.04668018,0.04809347,-0.054021746,2.0635984,-0.3040346,-0.2595495
0.0452271,0.0465964,-0.052340135,1.9993619,-0.2945705,-0.25147015
0.04381926,0.045145936,-0.05071088,1.9371252,-0.28540102,-0.24364232
0.042455245,0.043740626,-0.049132343,1.876826,-0.27651703,-0.23605818
0.041133694,0.042379063,-0.047602948,1.8184041,-0.2679096,-0.22871013
0.039853286,0.04105989,-0.04612116,1.7618009,-0.2595701,-0.22159085
0.03861274,0.03978178,-0.04468551,1.7069596,-0.2514902,-0.21469319
0.037410807,0.03854346,-0.043294545,1.6538256,-0.24366187,-0.20801026
0.03624629,0.03734369,-0.04194688,1.6023457,-0.23607722,-0.20153536
0.035118025,0.036181264,-0.04064117,1.5524684,-0.22872867,-0.19526201
0.034024883,0.035055026,-0.039376106,1.5041437,-0.22160889,-0.18918397
0.03296577,0.033963848,-0.038150422,1.4573233,-0.21471074,-0.18329513
0.03193963,0.032906637,-0.036962893,1.4119605,-0.20802732,-0.17758961
0.030945428,0.031882335,-0.035812333,1.3680097,-0.20155194,-0.17206168
0.029982176,0.030889919,-0.034697585,1.325427,-0.19527815,-0.16670585
