ax,ay,az,gx,gy,gz
-1.8181983,0.6309148,-7.6646147,-36.122147,-167.73698,-37.121246
-1.6222758,0.0930242,-7.8158383,-37.115986,-186.80853,-34.90556
-1.1073834,-0.5588093,-7.54637,-34.825714,-193.71861,-29.739893
-0.76602775,-0.9973064,-7.3225255,-29.9759,-196.9776,-24.371778
-0.54503745,-1.151738,-7.1022263,-23.194252,-198.87695,-20.345755
-0.32095793,-1.1385422,-6.845514,-18.042675,-201.54962,-17.998983
-0.027944867,-1.1665821,-6.527587,-14.334952,-205.37234,-17.721096
0.42180568,-1.4042684,-6.052497,-12.571869,-208.17326,-16.821066
0.86174756,-1.7478098,-5.533936,-11.680015,-209.49962,-14.202562
1.2223951,-2.0972452,-4.9994273,-11.677772,-210.24301,-9.963976
1.5221449,-2.3961697,-4.4318075,-12.808849,-210.83727,-4.34349
1.7780935,-2.6473775,-3.8801854,-13.582603,-210.90901,1.3417134
2.0195472,-2.845599,-3.348587,-11.779372,-210.192,5.2170606
2.2533586,-2.9290352,-2.8371458,-7.852576,-208.6259,7.5425925
2.475669,-2.8586204,-2.3185875,-3.090448,-206.01486,8.575687
2.6577225,-2.685311,-1.8110545,1.403637,-202.45291,9.0636015
2.7984462,-2.4433634,-1.3341254,5.0049224,-197.95909,9.33334
2.9526267,-2.135169,-0.8801702,7.5486226,-193.2554,9.766823
3.159944,-1.8076915,-0.42828035,8.808274,-188.0325,10.071649
3.412101,-1.5093079,0.021149581,9.232793,-181.82285,9.904756
3.6967292,-1.2435722,0.4712786,8.8743925,-174.06311,9.221638
3.968255,-1.0325397,0.88039994,7.580851,-164.20985,8.188801
4.169141,-0.9246535,1.1722578,6.516232,-153.77725,7.1948185
4.3059955,-0.8686195,1.3884554,5.5144215,-143.21214,6.534743
4.389911,-0.833811,1.5519053,4.4751964,-132.61464,6.1585813
4.436204,-0.80525273,1.671531,3.5222323,-121.99323,5.750402
4.4532146,-0.7933542,1.7434154,2.8909414,-111.31707,5.4255133
4.4374967,-0.80601114,1.7696662,2.6025999,-100.96167,5.15994
4.4093976,-0.8314614,1.7779489,2.6350873,-90.686806,4.9009557
4.369118,-0.85634243,1.7659228,2.8278303,-80.44791,4.745646
4.318587,-0.8711962,1.7286526,3.0342493,-70.54904,4.5566845
4.2709975,-0.8885218,1.677195,3.2634408,-60.45656,4.3414927
4.19716,-0.90755075,1.5962654,3.3551104,-50.579594,4.0163054
4.1151137,-0.92309374,1.5030245,3.0786064,-40.91205,3.7041326
4.030565,-0.92980856,1.4035666,2.2360926,-31.27366,3.356436
3.947834,-0.9361752,1.2865489,1.2104774,-21.833426,2.9145236
3.8687537,-0.9543233,1.1491951,0.43521446,-13.004083,2.4395308
3.7758574,-0.9985965,0.9907326,0.35964125,-5.312501,2.1111274
3.6730947,-1.0402211,0.84625417,0.61023647,1.7133467,2.0804882
3.5563004,-1.0709648,0.6992871,1.3534266,8.214394,2.1271648
3.4223285,-1.0900464,0.5376185,2.7319775,14.135416,2.028064
3.2768955,-1.0850946,0.37090358,4.3416915,19.233215,1.7779689
3.127192,-1.0358051,0.21714592,5.6327763,23.766954,1.4521344
2.9628956,-0.9719373,0.063679144,6.7645063,27.755125,0.9725224
2.7846744,-0.9030926,-0.10116401,7.984691,31.017801,0.30402127
2.5997815,-0.8272999,-0.26594236,9.225829,33.515877,-0.49977946
2.4155774,-0.74275994,-0.42275035,10.2009115,35.3105,-1.5653638
2.2313097,-0.65098715,-0.58124924,10.947955,36.588455,-2.7697885
2.04886,-0.55,-0.74254125,11.481977,37.36576,-4.113285
1.8628985,-0.4380812,-0.91384244,11.719717,37.49159,-5.5631003
1.6748385,-0.32097733,-1.0963799,11.680569,36.78498,-7.1767116
1.4954562,-0.2093516,-1.28042,11.292643,35.013725,-8.980197
1.3296078,-0.107548214,-1.4703925,10.474947,32.59205,-10.798743
1.1728538,-0.0264688,-1.6697892,9.277891,29.705145,-12.555021
1.0151048,0.035594817,-1.8925134,8.181966,26.294746,-14.332915
0.85022634,0.09428466,-2.142086,7.285517,21.980616,-16.383757
0.6861641,0.15570132,-2.4055443,6.200976,16.418844,-18.524403
0.5267843,0.21457118,-2.6594832,4.7315726,10.153891,-20.443666
0.36716807,0.27463174,-2.8857367,2.8701432,3.2300477,-22.238344
0.2169694,0.3294312,-3.0924196,1.0489929,-4.2927084,-24.203875
0.096136294,0.38353267,-3.2866826,-0.71784836,-12.460194,-26.445059
0.03473854,0.44040552,-3.4699333,-2.7530668,-21.716068,-28.90241
0.1083032,0.45060495,-3.5919366,-5.3585896,-31.324749,-31.22895
0.3072382,0.37823015,-3.6191525,-8.330683,-40.434235,-33.004784
0.5809372,0.22886972,-3.5593677,-11.393202,-48.17446,-34.238514
0.85360956,0.027004058,-3.4561574,-13.747562,-54.33936,-35.06168
1.0809706,-0.19069819,-3.3441765,-15.486021,-59.33845,-35.03733
1.2695893,-0.41099635,-3.211921,-16.974422,-63.741074,-34.26206
1.4385499,-0.6298617,-3.0524933,-17.827993,-67.35441,-33.07035
1.5847975,-0.8105691,-2.8579676,-17.903725,-70.05473,-31.49816
1.7069731,-0.9170232,-2.636109,-17.426966,-71.89747,-30.141588
1.819594,-0.96532,-2.3998325,-16.55459,-72.82127,-29.800339
1.9385265,-1.0078923,-2.1578388,-16.052156,-73.22807,-29.51108
2.055064,-1.0849006,-1.9239746,-15.846985,-73.25756,-29.006802
2.1666987,-1.1974276,-1.694461,-15.383648,-72.883896,-28.441717
2.2793956,-1.3155128,-1.4639767,-14.610986,-72.04347,-27.703926
2.3959715,-1.4167211,-1.2293466,-13.782475,-70.45289,-26.52325
2.510871,-1.486528,-0.99268514,-12.965507,-68.28368,-25.255695
2.6253555,-1.5477276,-0.765217,-12.188519,-65.458786,-23.879036
2.7320678,-1.616468,-0.5589833,-11.421291,-62.055656,-22.333357
2.8196456,-1.6970078,-0.3895576,-10.457714,-58.1048,-20.64529
2.8774548,-1.7832322,-0.26355568,-9.079418,-53.70864,-18.81177
2.904652,-1.8699877,-0.18209197,-7.5169525,-49.17733,-16.706947
2.9202876,-1.9508156,-0.1252175,-5.8760405,-44.57075,-14.378013
2.9280705,-2.0267923,-0.08684812,-4.078655,-39.837494,-11.887809
2.9240177,-2.0937142,-0.06653646,-1.9975977,-34.975758,-9.362234
2.9076345,-2.144691,-0.06805744,0.31392258,-30.045105,-6.7525134
2.8748035,-2.1817467,-0.09788686,2.6666389,-25.265865,-4.1513157
2.8341756,-2.2116032,-0.14194195,5.0153027,-20.699966,-1.4989641
2.7829928,-2.2318294,-0.19656846,7.407905,-16.338484,1.1762033
2.7168002,-2.2368784,-0.2599553,9.896633,-12.188098,3.8199875
2.6432498,-2.2207868,-0.3312276,12.596955,-8.287797,6.362757
2.5687416,-2.1761246,-0.40637803,15.257615,-4.5587864,8.842181
2.4919598,-2.1140065,-0.4845644,17.709965,-0.99359375,11.31767
2.4039657,-2.038899,-0.5714785,20.069542,2.3367324,13.657641
2.2990174,-1.9550928,-0.67165947,22.472944,5.336677,15.706135
2.1800292,-1.8636137,-0.78215426,24.832943,7.774467,17.556412
2.0504143,-1.7533276,-0.8923227,26.914454,9.753883,19.434221
1.9221952,-1.6267672,-0.9952714,28.632866,11.287613,21.243351
1.7996675,-1.4919444,-1.0870448,30.098913,12.469887,22.778172
1.6856163,-1.351649,-1.1650313,31.446386,13.38813,23.984465
1.5773983,-1.2024615,-1.2281696,32.72293,13.991634,24.765947
1.474672,-1.033609,-1.2746822,33.824062,14.33797,25.246582
1.3833803,-0.84973764,-1.3026913,34.581978,14.541987,25.416838
1.3000406,-0.65103847,-1.3168386,34.988472,14.646256,25.122667
1.2202197,-0.43482545,-1.3202449,35.056545,14.66157,24.199697
1.1487043,-0.19568928,-1.3144342,34.497906,14.524057,22.33643
1.0891316,0.049553946,-1.2976067,33.200897,14.307065,20.074581
1.0290545,0.27816343,-1.2817742,31.011698,14.0131235,17.523767
0.9656192,0.47900027,-1.2750762,28.3295,13.652227,14.7026005
0.90148777,0.6456732,-1.2785974,25.516188,13.213196,11.571969
0.8442893,0.80532247,-1.2826009,22.577763,12.7631445,8.225286
0.7970794,0.99056184,-1.2952709,19.206087,12.403303,4.7168856
0.7433031,1.1668913,-1.3375334,15.310054,12.054715,1.0898829
0.6743448,1.3175724,-1.4265082,10.96889,11.405008,-2.7205372
0.5975368,1.410746,-1.5645965,6.3772044,9.919555,-7.018703
0.5553535,1.4330058,-1.7044785,1.6189587,7.080513,-11.7303915
0.6320031,1.3604586,-1.7700614,-3.5213187,4.0391603,-16.057152
0.78169864,1.2081623,-1.7708073,-9.033591,1.58348,-19.558386
0.95145977,0.98116726,-1.7344201,-14.487845,-0.06715876,-22.183886
1.105359,0.6980421,-1.686644,-19.035872,-1.0349088,-24.253902
1.2296865,0.39035633,-1.6257474,-21.876972,-1.4248135,-25.763012
1.3212239,0.09735086,-1.5366265,-23.925877,-1.3918282,-26.677416
1.3800931,-0.16760299,-1.438075,-25.511581,-1.0024407,-26.96057
1.4029855,-0.40208077,-1.3425982,-26.658068,-0.33999285,-26.824207
1.3975972,-0.6118011,-1.2572638,-27.346727,0.4785894,-26.49627
1.3752149,-0.8048262,-1.1803844,-27.455004,1.4066007,-25.97517
1.338643,-0.9828928,-1.109204,-27.210104,2.3114018,-25.204178
1.2959235,-1.1510776,-1.0458804,-26.413979,3.058707,-24.078945
1.2569029,-1.2943671,-0.9808251,-25.205482,3.6515663,-22.65615
1.2320541,-1.4105176,-0.9058703,-23.6716,4.339987,-21.06862
1.193686,-1.3665917,-0.8776601,-22.93443,4.2048326,-20.41251
1.1565137,-1.324035,-0.8503291,-22.220234,4.073891,-19.77685
1.1205001,-1.2828048,-0.82385,-21.5283,3.9470308,-19.161001
1.0856088,-1.2428595,-0.7981961,-20.85793,3.824124,-18.564346
1.0518048,-1.204159,-0.77334166,-20.208448,3.7050474,-17.986284
1.0190542,-1.1666644,-0.7492616,-19.579206,3.5896811,-17.426235
0.98732394,-1.1303381,-0.72593194,-18.96957,3.4779096,-16.883635
0.9565823,-1.0951436,-0.70332915,-18.37893,3.3696203,-16.357943
0.92679846,-1.0610454,-0.68143046,-17.806686,3.2647047,-15.848625
0.8979424,-1.0280097,-0.660214,-17.252274,3.1630576,-15.355176
0.86998534,-0.9960029,-0.6396585,-16.71513,3.064577,-14.877098
0.8428991,-0.96499324,-0.6197433,-16.19472,2.969164,-14.413913
0.8166565,-0.9349494,-0.60044837,-15.690517,2.876723,-13.965154
0.7912313,-0.9058414,-0.58175445,-15.20202,2.787161,-13.530373
0.766598,-0.87763995,-0.56364274,-14.728737,2.700389,-13.109134
0.74273187,-0.8503168,-0.54609513,-14.270195,2.616319,-12.701014
0.7196091,-0.8238446,-0.52909404,-13.825933,2.5348673,-12.305604
0.6972063,-0.79819685,-0.5126224,-13.395507,2.4559524,-11.922508
0.6755012,-0.7733478,-0.4966637,-12.978485,2.379495,-11.551343
0.65447205,-0.7492725,-0.48120195,-12.574449,2.3054183,-11.191735
0.63409775,-0.725947,-0.4662217,-12.182995,2.2336485,-10.843327
0.6143579,-0.7033478,-0.4517079,-11.80373,2.1641135,-10.505766
0.5952326,-0.6814523,-0.43764603,-11.436275,2.0967438,-10.178717
0.5767029,-0.6602385,-0.42402202,-11.080261,2.0314717,-9.861852
0.55875015,-0.6396853,-0.4108222,-10.7353325,1.9682319,-9.5548525
0.5413564,-0.619772,-0.3980334,-10.401144,1.9069613,-9.257412
0.5245042,-0.60047877,-0.38564277,-10.07736,1.8475983,-8.969232
0.5081767,-0.5817862,-0.37363794,-9.763658,1.7900836,-8.690025
0.4923575,-0.56367564,-0.36200687,-9.4597225,1.7343597,-8.419511
0.47703084,-0.5461289,-0.35073793,-9.16525,1.6803707,-8.157419
0.46218136,-0.5291285,-0.33981982,-8.879945,1.6280625,-7.903487
0.4477942,-0.51265734,-0.3292416,-8.603522,1.5773828,-7.6574607
0.43385497,-0.49669898,-0.31899276,-8.335707,1.5282809,-7.419094
0.42034966,-0.48123744,-0.30906296,-8.076227,1.4807076,-7.188148
0.40726483,-0.46625727,-0.29944232,-7.824827,1.4346155,-6.964392
0.39458734,-0.45174342,-0.29012117,-7.581253,1.3899583,-6.747602
0.38230452,-0.43768147,-0.2810902,-7.345262,1.3466914,-6.537561
0.3704041,-0.42405725,-0.2723404,-7.116617,1.3047713,-6.334059
0.3588741,-0.41085714,-0.26386294,-6.8950906,1.2641562,-6.136892
0.3477031,-0.39806798,-0.25564942,-6.6804605,1.2248056,-5.945863
0.33687982,-0.38567695,-0.24769159,-6.472512,1.18668,-5.7607803
0.32639349,-0.37367168,-0.23998149,-6.271036,1.1497412,-5.5814595
0.31623358,-0.3620401,-0.23251139,-6.075833,1.1139523,-5.407721
0.30638996,-0.35077062,-0.22527385,-5.886706,1.0792775,-5.2393913
0.29685274,-0.33985195,-0.2182616,-5.703467,1.0456822,-5.076301
0.28761244,-0.3292732,-0.21146764,-5.5259314,1.0131326,-4.918288
0.27865976,-0.31902373,-0.20488517,-5.353923,0.98159623,-4.765194
0.2699858,-0.3090933,-0.1985076,-5.1872687,0.95104164,-4.6168656
0.26158184,-0.29947203,-0.19232857,-5.025802,0.92143816,-4.473154
