ax,ay,az,gx,gy,gz
-0.73909765,-1.4272858,-3.8327622,-1.1654651,-9.987364,6.214602
-0.89295,-1.6205952,-4.10875,-2.3549814,-14.912907,9.738741
-0.96309316,-1.690853,-4.2251706,-4.118504,-19.857052,13.731863
-1.0296581,-1.788812,-4.2848616,-3.5734386,-24.738014,17.661793
-1.1465317,-1.8616557,-4.385516,-1.4714316,-29.659855,20.680052
-1.2490475,-1.8870327,-4.499122,1.085128,-34.852123,22.934347
-1.3439543,-1.9148599,-4.644401,3.2474277,-40.775715,24.957457
-1.4192338,-1.9713013,-4.802187,4.695545,-47.402103,26.622595
-1.4377577,-2.1089885,-4.9514666,5.6567197,-54.26644,28.741632
-1.4048781,-2.2900136,-5.114921,6.118833,-60.651337,31.981663
-1.3648745,-2.3861792,-5.261837,5.2179027,-67.148766,37.281967
-1.3528239,-2.329044,-5.3704042,2.6965525,-74.56218,43.861057
-1.3402518,-2.1745598,-5.3856034,1.2522303,-82.14318,48.202946
-1.2881323,-1.9890125,-5.3017015,3.9624987,-88.8017,47.388485
-1.1737384,-1.7675241,-5.111624,6.8279448,-94.44587,46.01025
-1.0766189,-1.5635148,-4.912759,7.5797563,-99.511444,45.774082
-1.0096917,-1.4154006,-4.736399,7.0007973,-104.65186,46.29036
-0.92581236,-1.3248658,-4.5565066,5.5208545,-109.922104,47.336666
-0.7742285,-1.2681854,-4.3271685,5.008752,-114.47761,47.093613
-0.5356178,-1.2177442,-4.0179915,4.899592,-117.78174,46.48216
-0.27878568,-1.1476877,-3.6851041,4.0065937,-119.94721,46.43766
-0.05549499,-1.09062,-3.3753927,2.116775,-121.31483,47.131817
0.12422826,-1.0569801,-3.0967073,-0.5498532,-122.34625,48.4926
0.29777986,-1.0469894,-2.8084252,-2.7452507,-122.5916,49.779205
0.47571364,-1.0196025,-2.487385,-3.526159,-121.8034,49.835346
0.621146,-0.9617486,-2.1777918,-3.532428,-120.28901,49.076206
0.7334371,-0.8846284,-1.885395,-3.9642642,-118.33002,48.636326
0.8087491,-0.79914916,-1.6274828,-5.0279093,-116.292336,48.48094
0.8761118,-0.7259772,-1.3904814,-6.3936844,-114.29122,48.198875
0.98495173,-0.6644444,-1.1403589,-7.458173,-112.205864,47.49901
1.1201321,-0.61870396,-0.87553704,-7.834337,-109.69989,46.171368
1.2575744,-0.5785559,-0.60900164,-7.907971,-106.66429,44.57085
1.3843769,-0.5450763,-0.3534696,-7.9750066,-103.11364,43.036263
1.4978464,-0.52040625,-0.117064856,-7.5284767,-99.21645,41.39818
1.6138142,-0.4831087,0.118861325,-6.71226,-95.069466,39.60795
1.7274078,-0.42774788,0.35278213,-5.9383674,-90.51319,37.681423
1.8229696,-0.37265024,0.56747,-5.3974934,-85.56386,35.713734
1.8973774,-0.33745933,0.7517314,-5.070325,-80.4023,33.870396
1.9634364,-0.31896558,0.90871996,-4.813042,-74.954636,32.174435
2.0347602,-0.31095895,1.045742,-4.621436,-69.305824,30.618547
2.1033423,-0.30404517,1.1733401,-4.473991,-63.329365,29.15419
2.1544104,-0.29966727,1.2908773,-4.19965,-57.01605,27.744953
2.1836262,-0.28527734,1.4001573,-3.8940246,-50.39817,26.445808
2.1879423,-0.27405155,1.4739728,-2.800852,-44.153675,24.953346
2.2078247,-0.2602594,1.5292401,-1.4125103,-38.26947,23.28953
2.2599556,-0.23641194,1.5823644,-0.36655518,-32.303173,21.515182
2.3130772,-0.23039195,1.6111727,0.44452003,-26.21431,19.656008
2.3486416,-0.24186829,1.6058162,0.9065627,-20.100607,17.840965
2.3610642,-0.267239,1.5614998,1.0213052,-14.210815,16.119371
2.347195,-0.31205267,1.474484,1.137757,-8.64458,14.467802
2.3229048,-0.3681731,1.369542,1.4781408,-3.3301518,12.843535
2.289581,-0.41941613,1.2508157,2.0184808,1.7429509,11.248964
2.2481034,-0.45671803,1.1305227,2.6830668,6.625243,9.6191635
2.2013326,-0.47798228,1.0071341,3.1927156,11.277322,8.005984
2.1450377,-0.4917971,0.8632893,3.7177982,15.65735,6.264729
2.0796278,-0.5088985,0.70388305,4.408854,19.725056,4.3619766
2.0011804,-0.5226799,0.53565586,5.239294,23.339392,2.500519
1.919439,-0.5075821,0.3664609,5.971725,26.417078,0.6423136
1.8447094,-0.4806761,0.19238265,6.273143,28.951805,-1.2191076
1.7655996,-0.471892,-0.0034249364,6.5459356,31.128065,-3.2012897
1.6781052,-0.4763131,-0.2115901,6.9181523,32.874702,-5.2563047
1.5743002,-0.48475873,-0.42921767,7.4315834,33.96301,-7.1345744
1.459076,-0.4724856,-0.64810175,7.7496405,34.27378,-8.734532
1.3499926,-0.44644913,-0.85971504,7.7123137,33.81615,-10.316594
1.2337471,-0.43961373,-1.0756137,7.4307785,32.806675,-11.834525
1.1085619,-0.46377218,-1.2938395,7.141226,31.261374,-13.253602
0.98070437,-0.50749296,-1.5020285,6.9671335,29.234549,-14.516915
0.8550221,-0.55693495,-1.6973633,7.0566716,26.748976,-15.581379
0.73832303,-0.59034324,-1.8734531,7.110049,23.865467,-16.296215
0.63939965,-0.6029595,-2.0285683,6.7840676,20.782629,-16.648495
0.5385822,-0.615442,-2.1692183,6.185223,17.421602,-16.72862
0.43853468,-0.62035626,-2.288445,5.5480323,13.830555,-16.679953
0.35211447,-0.612978,-2.382455,4.7012734,10.059756,-16.5108
0.28008518,-0.61434245,-2.4592552,4.1418047,6.0918183,-16.604652
0.2243591,-0.6268765,-2.52156,4.202001,1.9002793,-17.070536
0.18909533,-0.6279247,-2.5635033,4.378073,-2.4303005,-17.525034
0.1613362,-0.6198658,-2.588493,4.162503,-7.032495,-17.677217
0.1500505,-0.6191752,-2.589867,3.6763632,-11.760626,-17.539162
0.16614182,-0.6209367,-2.5656688,2.9479108,-16.371952,-17.284225
0.19681442,-0.6416528,-2.5276246,2.1987686,-20.791689,-16.997152
0.22151907,-0.67616016,-2.488383,1.5795732,-25.147573,-16.767424
0.2457426,-0.72054243,-2.4451485,1.1974466,-29.553326,-16.545095
0.2821168,-0.7660774,-2.384177,0.9485638,-33.949932,-16.266527
0.34454927,-0.8143639,-2.2926865,0.9436732,-38.124855,-15.889442
0.4401713,-0.8574907,-2.1644127,1.0789421,-41.86692,-15.466906
0.54476255,-0.89741737,-2.018605,1.3517241,-45.102165,-14.994638
0.645105,-0.93173844,-1.8609438,1.8073357,-47.88552,-14.451265
0.737889,-0.9413767,-1.6913373,2.3996835,-50.314037,-13.712691
0.8328306,-0.89941406,-1.5014819,2.2880752,-52.456665,-12.7966795
0.9379485,-0.8352492,-1.2843783,1.3211876,-54.21175,-12.022636
1.041985,-0.8168841,-1.0671179,-0.13126634,-55.461803,-11.330523
1.137337,-0.8407491,-0.85524285,-1.6733531,-56.1562,-10.612567
1.2211236,-0.88558227,-0.64932674,-2.8723881,-56.23251,-9.896346
1.2922146,-0.92524207,-0.45652777,-3.5311935,-55.765903,-9.244808
1.3621224,-0.9536382,-0.26516137,-3.9438865,-54.936005,-8.447758
1.4361085,-0.9752899,-0.07176942,-4.0324216,-53.616943,-7.6262465
1.5141693,-0.98400325,0.120179474,-3.847205,-51.870113,-6.931789
1.5978644,-0.98003376,0.30889052,-3.5171163,-49.581257,-6.3088245
1.6711428,-0.97453326,0.475534,-3.353816,-46.706528,-5.520469
1.7276195,-0.9780154,0.6131589,-3.2852821,-43.64772,-4.6120076
1.7803833,-0.98766583,0.732244,-3.3122897,-40.391537,-3.6253676
1.8296775,-1.0125635,0.8299743,-3.2145739,-36.921326,-2.6964407
1.8772669,-1.0486363,0.90790033,-2.8950813,-33.20382,-1.8119317
1.9179932,-1.0865418,0.96396434,-2.4903538,-29.181986,-0.90756136
1.9469866,-1.13777,0.99018097,-2.0468948,-25.031103,0.05412865
1.966115,-1.2006531,0.99242204,-1.3926147,-20.787588,1.1170856
1.9691066,-1.2664942,0.9683231,-0.48083106,-16.578085,2.369511
1.9623027,-1.321319,0.92258155,0.5470922,-12.420543,3.7940333
1.9430487,-1.3647263,0.85784304,1.6589389,-8.417967,5.387152
1.915447,-1.4005059,0.77660674,2.9567726,-4.5407205,7.076933
1.879292,-1.4224741,0.6819475,4.413835,-0.88951594,8.843263
1.8333867,-1.4273546,0.57743543,5.872854,2.5294585,10.668503
1.7759168,-1.4165565,0.4636596,7.3642693,5.7368283,12.451864
1.7063719,-1.3910395,0.34284276,8.987887,8.659325,14.006322
1.6250056,-1.3412591,0.21610887,10.659684,11.273575,15.432263
1.5400422,-1.266355,0.0891594,12.254514,13.693885,16.684294
1.4498489,-1.1654623,-0.03768791,13.69299,15.787504,17.735518
1.3588892,-1.042043,-0.15698896,14.883005,17.488575,18.563715
1.2704588,-0.91010755,-0.26630077,15.765786,18.69145,19.12449
1.1891208,-0.77752465,-0.35880113,16.468853,19.605753,19.479496
1.114497,-0.64297414,-0.43931594,17.054882,20.29943,19.597097
1.0457852,-0.50100267,-0.50837624,17.440084,20.798422,19.439108
0.97937363,-0.3562967,-0.5661845,17.600302,21.124022,18.985641
0.9121995,-0.20956421,-0.6113172,17.432293,21.249311,18.238298
0.8387729,-0.055167645,-0.64952826,16.974846,21.110249,17.200562
0.77196646,0.09665533,-0.67489785,15.851045,20.585762,16.048828
0.7215403,0.24358723,-0.6823452,14.20719,19.898943,14.733396
0.6874498,0.39995253,-0.67345786,12.048087,19.089058,13.095887
0.6727355,0.5541204,-0.6460674,9.209243,18.331057,11.019004
0.67875445,0.6583233,-0.59614205,6.099668,17.900837,8.934654
0.6832466,0.7227784,-0.55001545,2.9843915,17.881285,6.9095864
0.6644917,0.7642036,-0.521427,0.07646837,17.993479,4.7651563
0.62860227,0.7879265,-0.51636887,-2.482316,17.93302,2.4727907
0.5902504,0.7978001,-0.5186306,-4.9005337,17.617853,0.101746686
0.5709675,0.7868143,-0.5132239,-7.007727,17.308708,-2.343657
0.56047493,0.7621585,-0.5067713,-8.722365,16.980707,-4.7812667
0.5591212,0.73693216,-0.49964792,-10.155524,16.719938,-7.127724
0.55466485,0.71501386,-0.49869365,-11.382489,16.558527,-9.397271
0.53680307,0.69334257,-0.5062693,-12.371674,16.423037,-11.723424
0.49698663,0.66459364,-0.52967495,-13.387051,16.092218,-13.882112
0.46096367,0.6306378,-0.5558075,-14.526627,15.507556,-15.859533
0.43976212,0.57703525,-0.5805032,-15.630704,14.775781,-17.811441
0.4256346,0.49023214,-0.6086017,-16.50275,13.983206,-19.708244
0.41446897,0.38483736,-0.6401526,-17.161423,13.074687,-21.37115
0.40542573,0.25918853,-0.6768228,-17.83756,11.993064,-22.680143
0.40696913,0.11718563,-0.7034158,-18.581963,10.844415,-23.448591
0.41680795,-0.03991472,-0.71622944,-19.246176,9.811333,-23.738977
0.42721206,-0.20597622,-0.7168761,-19.350058,9.046032,-23.872099
0.4335875,-0.3610445,-0.7125837,-18.667864,8.650408,-23.963064
0.4245722,-0.4856625,-0.7103552,-17.883387,8.305116,-23.726274
0.4079303,-0.5894333,-0.70193875,-17.13663,7.96105,-23.128267
0.3925538,-0.66998667,-0.6793396,-16.388441,7.728407,-22.334171
0.37958622,-0.7234696,-0.64181656,-15.730044,7.6417265,-21.348194
0.36241508,-0.7633642,-0.60396767,-14.9933405,7.4912505,-20.208597
0.34487587,-0.8044136,-0.5637173,-14.157983,7.339763,-18.889778
0.33413988,-0.7793722,-0.5461688,-13.717244,7.111276,-18.30174
0.32373816,-0.7551105,-0.5291667,-13.29023,6.8899035,-17.73201
0.31366032,-0.7316042,-0.51269394,-12.87651,6.6754236,-17.18002
0.30389628,-0.7088298,-0.49673405,-12.475672,6.467622,-16.645216
0.2944362,-0.6867645,-0.4812711,-12.087313,6.266289,-16.127062
0.28527066,-0.6653861,-0.46628955,-11.711046,6.071225,-15.625042
0.2763905,-0.6446733,-0.45177445,-11.346493,5.8822346,-15.13865
0.26778677,-0.62460536,-0.43771124,-10.99329,5.699127,-14.667402
0.2594509,-0.60516226,-0.42408586,-10.651083,5.521721,-14.210825
0.25137457,-0.5863244,-0.41088468,-10.3195305,5.349838,-13.768462
0.24354967,-0.56807303,-0.39809445,-9.9983,5.1833053,-13.33987
0.23596838,-0.5503898,-0.38570243,-9.687069,5.0219574,-12.924623
0.22862309,-0.5332572,-0.37369618,-9.385527,4.865633,-12.522302
0.22150648,-0.5166578,-0.3620637,-9.093372,4.7141747,-12.132505
0.2146114,-0.5005753,-0.35079336,-8.810313,4.5674314,-11.754844
0.20793098,-0.48499337,-0.33987388,-8.536066,4.4252563,-11.388939
0.20145853,-0.46989655,-0.3292943,-8.270356,4.2875075,-11.034425
0.19518755,-0.45526966,-0.31904408,-8.0129175,4.1540465,-10.690948
0.1891118,-0.44109815,-0.30911294,-7.7634935,4.02474,-10.358162
0.18322518,-0.42736778,-0.29949096,-7.521834,3.8994594,-10.035736
0.17752181,-0.41406482,-0.29016852,-7.287697,3.7780783,-9.723348
0.17199598,-0.40117598,-0.28113627,-7.060848,3.660476,-9.420683
0.16664217,-0.38868836,-0.27238518,-6.8410616,3.5465343,-9.12744
0.16145502,-0.37658945,-0.26390654,-6.6281166,3.4361396,-8.843326
0.15642934,-0.36486718,-0.2556918,-6.4218,3.3291814,-8.568056
