ax,ay,az,gx,gy,gz
-3.0363913,1.8927445,-3.428213,4.993682,-144.82132,-12.373749
-3.0214343,1.8595135,-2.9278212,14.741395,-148.72534,-21.62924
-2.9405024,1.9604985,-2.6373527,15.756654,-148.51387,-29.965227
-2.7114844,1.8039443,-2.500174,14.573829,-145.35736,-34.89682
-2.5002694,1.5707375,-2.4204273,15.997636,-146.38664,-39.126743
-1.9961425,1.40496,-1.9738649,17.814775,-146.6452,-42.055458
-1.4557568,1.2508203,-1.4373724,18.957054,-145.01065,-44.189453
-0.9463387,1.0052922,-0.9428312,21.545006,-142.8642,-46.467464
-0.29333478,0.695865,-0.43064073,25.970963,-140.2314,-48.28364
0.5272667,0.44558278,0.1962341,30.823774,-135.71391,-49.016838
1.4765044,0.31027928,0.9692778,34.768967,-129.52818,-49.35218
2.434398,0.20359759,1.7502323,38.35699,-121.60285,-49.622513
3.418489,0.13123958,2.5232584,41.78483,-111.6195,-49.480576
4.366699,0.12679228,3.2621074,44.187702,-99.271835,-48.79009
5.1242886,0.18074727,3.916453,45.7153,-84.758865,-48.309498
5.750776,0.3094773,4.434888,46.613598,-69.77898,-48.7811
6.322198,0.4638231,4.815558,46.164543,-54.371567,-48.98589
6.7845654,0.6165247,5.011711,44.082348,-38.92118,-48.509808
7.1139755,0.73300725,4.992154,40.91574,-23.710472,-47.322964
7.2801085,0.8319717,4.7755833,36.552822,-9.537549,-45.234608
7.271505,0.95540226,4.3577633,31.587727,3.1393979,-42.94826
7.1561174,1.0518532,3.8199933,26.410543,14.451899,-40.754307
6.955263,1.1110399,3.197555,21.392025,24.638597,-38.798912
6.6810884,1.1522719,2.519751,16.714115,33.727726,-37.035797
6.302399,1.1926768,1.8040419,12.784302,41.051502,-35.93164
5.7783456,1.2431799,1.0741751,9.678935,46.60454,-35.726845
5.23053,1.3098121,0.38417143,6.956598,50.447765,-36.415676
4.7140126,1.3726109,-0.26503944,4.0829864,52.4767,-37.243847
4.2449603,1.4087152,-0.8786121,0.82929426,52.976685,-37.690125
3.8103428,1.3929007,-1.4774641,-1.9954462,51.938644,-37.387432
3.3852046,1.3520697,-2.0440838,-4.0412,50.14908,-36.59991
2.9462423,1.3332685,-2.5629478,-5.284895,47.654102,-35.83337
2.5102475,1.3249334,-3.0383554,-5.972294,44.34731,-35.35439
2.0957048,1.3274186,-3.4611096,-6.1482224,40.411243,-35.178238
1.6999081,1.3567228,-3.8234377,-6.0185046,35.69171,-35.51159
1.3471613,1.3945829,-4.133227,-5.909534,30.426596,-36.061493
1.0511575,1.4156657,-4.4090943,-5.82222,24.681887,-36.385082
0.79657686,1.4265907,-4.6606383,-5.8327503,18.588503,-36.517075
0.5715824,1.4180695,-4.8949375,-5.77962,12.008057,-36.86148
0.38236994,1.3926538,-5.098282,-5.4745665,4.886986,-37.540085
0.25469542,1.385389,-5.231436,-5.1437707,-2.330429,-38.638237
0.17962824,1.3763714,-5.311377,-5.033691,-9.478401,-39.949566
0.1616837,1.3354287,-5.3273654,-5.188921,-16.711737,-41.0423
0.1996811,1.2520343,-5.283088,-5.3890834,-23.803253,-41.61184
0.264549,1.172021,-5.1750374,-5.5401444,-31.096563,-41.975502
0.46552336,1.112181,-4.945478,-6.066635,-38.302563,-42.084255
0.7840876,1.0148396,-4.643792,-6.8768754,-44.61092,-42.022083
1.1865355,0.85463995,-4.310561,-7.2627306,-49.411217,-41.67145
1.5911493,0.695977,-3.9446414,-7.1087694,-52.94144,-41.382725
2.0016942,0.5446958,-3.5592608,-6.2883215,-55.235542,-41.155067
2.4202938,0.42979717,-3.1443727,-5.312513,-56.69305,-40.72423
2.8369198,0.34375158,-2.710742,-4.2492924,-57.28739,-39.928978
3.242519,0.2870345,-2.26403,-3.1387947,-56.78457,-38.813244
3.6049986,0.26458102,-1.8250278,-1.9076163,-55.192165,-37.67246
3.9345193,0.29497296,-1.3876095,-0.7323593,-52.26384,-36.974445
4.23201,0.38440764,-0.9614094,0.2103043,-48.440205,-36.328297
4.4862304,0.5097783,-0.56252134,0.44422618,-43.82473,-35.48493
4.6769934,0.6360922,-0.22730345,-0.050389223,-38.70991,-34.169952
4.803098,0.75709707,0.03759091,-1.145426,-33.305756,-32.549152
4.87342,0.863835,0.23183587,-2.6409273,-27.596598,-31.141026
4.9011784,0.96028024,0.36544082,-4.276023,-21.672426,-30.1751
4.9107623,1.0620319,0.4658265,-6.3402963,-15.429634,-29.310211
4.8847537,1.1620879,0.51990044,-8.8358,-9.232277,-28.353102
4.820145,1.2395672,0.5059098,-11.536361,-2.9774382,-27.655373
4.7012563,1.2831451,0.41003335,-14.3680725,2.832898,-27.299738
4.533542,1.2726728,0.2370606,-17.0757,8.082352,-26.983665
4.329828,1.2397059,0.024259891,-19.55251,12.787789,-26.924772
4.0961084,1.19576,-0.21884634,-21.842169,16.756348,-27.156872
3.861974,1.1303604,-0.4846641,-24.03733,19.887806,-27.42403
3.648492,1.0291718,-0.76429087,-26.065613,21.968622,-27.06141
3.4372513,0.893115,-1.0438985,-27.536623,23.443739,-26.405787
3.2284734,0.7643073,-1.2926388,-28.298998,24.446867,-25.83983
3.0293276,0.6628428,-1.5015613,-28.522549,25.205576,-25.319702
2.833538,0.59190047,-1.6765808,-28.475496,25.598606,-24.853495
2.6513035,0.53282225,-1.8238697,-28.236622,25.721565,-24.294313
2.4663928,0.4771962,-1.9472573,-27.785378,25.643478,-23.732195
2.284037,0.43245775,-2.0493903,-27.117323,25.32098,-23.201914
2.1073298,0.40338704,-2.1285248,-26.359196,24.702463,-22.690811
1.9413415,0.3840002,-2.186695,-25.467737,23.820904,-22.22327
1.798665,0.3764334,-2.2149227,-24.612823,22.837032,-21.763138
1.6789935,0.3776799,-2.216437,-23.872053,21.790703,-21.202496
1.573566,0.3758956,-2.2058775,-23.112871,20.760801,-20.644554
1.4782916,0.36995322,-2.1857164,-22.280169,19.787039,-20.116064
1.3927078,0.36945167,-2.1472452,-21.460758,18.783125,-19.535463
1.3280568,0.3725794,-2.0898664,-20.705957,17.866976,-18.823872
1.29477,0.3658414,-2.0197208,-19.933119,17.087446,-17.753635
1.2820667,0.35166076,-1.9446274,-19.010641,16.656528,-16.501108
1.2808726,0.32246754,-1.8671281,-17.876314,16.807959,-15.428279
1.2698089,0.2689953,-1.8010938,-16.31691,17.364107,-14.494847
1.2300137,0.26056513,-1.7446485,-15.805548,16.819925,-14.040586
1.1914818,0.25240257,-1.6899949,-15.310416,16.293016,-13.600746
1.1541716,0.24449882,-1.6370742,-14.830984,15.782816,-13.17485
1.1180431,0.23684536,-1.5858295,-14.366736,15.288773,-12.762444
1.0830574,0.22943404,-1.5362061,-13.917175,14.810359,-12.363084
1.0491776,0.22225697,-1.4881511,-13.481823,14.347067,-11.976346
1.0163676,0.21530652,-1.4416133,-13.060217,13.898403,-11.60182
0.9845927,0.20857535,-1.3965439,-12.651913,13.463895,-11.23911
0.9538194,0.20205636,-1.3528951,-12.256479,13.043083,-10.887834
0.92401546,0.19574271,-1.3106213,-11.873502,12.635526,-10.547622
0.8951496,0.1896278,-1.269678,-11.502579,12.240798,-10.218119
0.8671917,0.18370521,-1.2300227,-11.143323,11.858485,-9.898979
0.8401126,0.1779688,-1.1916138,-10.79536,11.48819,-9.589872
0.81388426,0.17241262,-1.1544116,-10.458328,11.129528,-9.290476
0.78847945,0.16703087,-1.1183773,-10.131878,10.782127,-9.000481
0.76387185,0.16181801,-1.0834739,-9.815673,10.445629,-8.719584
0.7400361,0.15676866,-1.0496653,-9.509386,10.119684,-8.447499
0.71694756,0.15187761,-1.0169166,-9.212701,9.803959,-8.183945
0.6945826,0.14713983,-0.9851942,-8.925313,9.498127,-7.928649
0.67291814,0.14255045,-0.95446545,-8.646928,9.201875,-7.6813498
0.65193206,0.13810478,-0.9246989,-8.377259,8.9149,-7.4417944
0.63160294,0.13379827,-0.89586407,-8.116032,8.636907,-7.2097373
0.61190987,0.1296265,-0.8679314,-7.8629775,8.367612,-6.984941
0.59283274,0.12558523,-0.8408726,-7.6178393,8.106741,-6.7671766
0.57435226,0.121670336,-0.81465983,-7.3803663,7.8540277,-6.556222
0.5564495,0.117877826,-0.7892666,-7.1503177,7.609215,-6.351862
0.53910625,0.11420384,-0.764667,-6.927459,7.3720527,-6.153889
0.5223049,0.11064465,-0.74083596,-6.711563,7.1423016,-5.962102
0.50602835,0.10719665,-0.7177494,-6.5024114,6.919727,-5.7763057
0.4902602,0.10385634,-0.6953839,-6.2997923,6.704104,-5.5963125
0.4749844,0.10062033,-0.6737167,-6.1035,6.495214,-5.4219394
0.46018553,0.09748534,-0.65272605,-5.913336,6.2928452,-5.2530103
0.44584855,0.09444821,-0.6323905,-5.7291074,6.096793,-5.089354
0.431959,0.09150586,-0.6126896,-5.550628,5.9068594,-4.930805
0.41850287,0.08865532,-0.59360343,-5.377718,5.722852,-4.7772036
0.40546653,0.08589371,-0.57511276,-5.2102027,5.5445857,-4.628394
0.39283687,0.083218254,-0.5571989,-5.0479126,5.3718805,-4.4842267
0.3806011,0.08062624,-0.5398437,-4.8906846,5.2045617,-4.344556
0.36874694,0.07811507,-0.5230298,-4.73836,5.042461,-4.2092404
0.35726243,0.07568219,-0.50674015,-4.5907845,4.8854146,-4.078145
0.34613597,0.07332517,-0.49095842,-4.447811,4.733265,-3.9511366
0.3353564,0.071041636,-0.4756687,-4.3092947,4.585859,-3.828088
0.32491288,0.06882929,-0.46085563,-4.175096,4.443048,-3.7088752
0.31479484,0.06668589,-0.44650424,-4.0450807,4.3046885,-3.593378
0.30499217,0.064609304,-0.43260017,-3.9191177,4.170641,-3.4814808
0.295495,0.06259743,-0.41912943,-3.79708,4.040771,-3.373071
0.2862938,0.060648255,-0.40607843,-3.6788454,3.9149485,-3.2680392
0.2773793,0.058759816,-0.39343414,-3.564295,3.7930465,-3.1662805
0.26874256,0.056930218,-0.3811838,-3.4533138,3.6749427,-3.0676923
0.26037493,0.05515762,-0.36931518,-3.3457906,3.5605185,-2.9721756
0.25226796,0.05344025,-0.35781628,-3.241617,3.4496593,-2.8796349
0.24441357,0.05177638,-0.3466756,-3.1406887,3.3422537,-2.789977
0.23680383,0.05016434,-0.33588198,-3.0429046,3.2381938,-2.7031121
0.22943115,0.048602514,-0.32542458,-2.9481664,3.1373754,-2.618953
0.2222881,0.04708934,-0.31529292,-2.856379,3.0396972,-2.5374153
0.21536756,0.045623295,-0.3054768,-2.7674506,2.9450614,-2.4584172
0.20866254,0.04420291,-0.29596645,-2.6812918,2.8533733,-2.3818796
0.20216635,0.042826764,-0.28675228,-2.5978165,2.7645407,-2.3077257
0.19587249,0.041493475,-0.27782506,-2.5169408,2.6784747,-2.2358813
0.18977462,0.04020171,-0.26917586,-2.438584,2.5950887,-2.1662743
0.18386665,0.038950168,-0.260796,-2.3626673,2.5142999,-2.098835
0.17814267,0.0377376,-0.2526771,-2.2891145,2.4360266,-2.0334957
0.17259692,0.036562797,-0.24481104,-2.2178524,2.3601909,-1.970191
0.16722386,0.03542457,-0.23718992,-2.148809,2.2867165,-1.9088577
0.1620181,0.03432179,-0.2298061,-2.0819156,2.21553,-1.8494341
0.15697445,0.033253346,-0.22265218,-2.0171053,2.1465602,-1.7918608
0.15208784,0.03221817,-0.21572101,-1.9543128,2.0797377,-1.7360802
0.14735337,0.031215223,-0.20900567,-1.8934754,2.0149958,-1.6820364
0.14276631,0.030243505,-0.2024994,-1.8345323,1.9522699,-1.6296753
0.13832209,0.029302042,-0.1961957,-1.7774243,1.8914969,-1.5789444
0.13401622,0.028389892,-0.19008829,-1.7220944,1.832616,-1.529793
0.12984441,0.02750614,-0.184171,-1.6684872,1.7755682,-1.4821719
0.12580249,0.026649902,-0.17843795,-1.6165489,1.7202966,-1.4360335
0.12188641,0.025820322,-0.17288339,-1.5662276,1.6667458,-1.3913314
0.11809225,0.025016569,-0.16750175,-1.517473,1.6148622,-1.3480211
0.114416204,0.02423784,-0.16228767,-1.4702362,1.5645938,-1.3060591
0.1108546,0.023483353,-0.15723589,-1.4244701,1.5158905,-1.2654035
0.10740388,0.022752354,-0.1523414,-1.3801286,1.4687033,-1.2260135
0.10406058,0.022044113,-0.14759928,-1.3371676,1.4229851,-1.1878499
0.10082137,0.02135792,-0.14300479,-1.295544,1.3786901,-1.1508744
0.09768299,0.02069309,-0.13855332,-1.2552162,1.3357742,-1.1150498
0.09464232,0.020048955,-0.13424043,-1.2161438,1.2941942,-1.0803405
0.0916963,0.019424872,-0.1300618,-1.1782879,1.2539086,-1.0467118
0.08884199,0.018820219,-0.12601326,-1.1416103,1.2148772,-1.0141299
0.086076535,0.018234387,-0.12209076,-1.1060745,1.1770607,-0.9825623
0.08339717,0.017666792,-0.11829035,-1.0716449,1.1404215,-0.95197743
0.08080121,0.017116867,-0.11460825,-1.0382872,1.1049229,-0.92234457
0.07828607,0.01658406,-0.11104077,-1.0059677,1.0705293,-0.8936342
0.07584921,0.016067838,-0.10758434,-0.9746545,1.0372064,-0.8658176
0.07348822,0.015567687,-0.104235515,-0.9443159,1.0049207,-0.83886683
0.07120072,0.015083104,-0.10099093,-0.91492176,0.97364014,-0.81275505
