ax,ay,az,gx,gy,gz
-1.961836,2.7927527,-5.0291367,36.843063,-187.4908,-30.906647
-1.891397,2.7823882,-5.801901,36.737255,-205.35126,-24.58505
-1.6282116,2.537303,-6.217201,33.24795,-219.24763,-18.139168
-1.0903175,2.0730736,-6.6245117,35.194427,-227.46347,-18.405231
-0.37757885,1.6715375,-6.916821,40.89516,-233.12651,-20.156885
0.44433984,1.4630967,-6.908576,48.52091,-236.5653,-22.669373
1.4853439,1.4653666,-6.4990096,56.126286,-237.15001,-24.547466
2.6234548,1.5596955,-5.759843,61.75934,-234.82243,-24.53836
3.7843068,1.6759775,-4.7475834,66.55671,-230.42859,-24.743946
4.962612,1.8713675,-3.5951643,70.5083,-223.52486,-25.425364
6.115904,2.1543305,-2.3332276,72.56229,-214.19827,-25.365168
7.155178,2.4918501,-1.0615873,73.25183,-202.40155,-25.640757
8.15051,2.8955,0.18624991,72.600334,-185.7354,-27.431133
8.977401,3.4228504,1.417053,69.6106,-167.17755,-28.634243
9.559899,3.922392,2.4345627,64.266655,-148.55008,-29.069424
9.960094,4.3376727,3.1977725,57.70933,-130.73174,-29.5991
10.185103,4.6590986,3.7453518,50.582382,-113.195114,-30.732435
10.301632,4.8850656,4.09985,42.64492,-95.36109,-32.81506
10.367287,4.994024,4.2422185,34.92132,-77.87548,-34.98942
10.384509,5.055499,4.2645206,27.249517,-61.09293,-36.98041
10.347727,5.0978155,4.185019,19.097908,-45.58005,-38.407482
10.292473,5.1409492,3.9899466,10.201026,-31.707575,-39.046432
10.230456,5.177876,3.6767707,-0.28894958,-19.428825,-38.01087
10.127837,5.147517,3.1750047,-10.915903,-7.811099,-36.30401
9.947457,5.036948,2.537513,-20.795511,3.2971516,-34.219437
9.691996,4.8756094,1.8199465,-29.057938,13.9924,-32.49654
9.348888,4.673095,1.0528216,-35.14507,23.687489,-31.376825
8.921944,4.483663,0.31082624,-39.050495,31.612598,-30.95767
8.425204,4.365381,-0.36113533,-42.244522,37.931465,-30.754725
7.9163394,4.274457,-0.983684,-44.94118,42.510265,-30.68033
7.4281673,4.1983175,-1.5584947,-47.129414,45.597946,-30.691292
6.9512844,4.1297026,-2.0953672,-48.899696,47.36845,-30.67179
6.474307,4.037787,-2.61322,-49.89342,47.6858,-30.631418
5.9893465,3.896019,-3.134175,-49.538807,47.07425,-30.927563
5.512942,3.7608716,-3.6214333,-47.75954,45.393066,-31.776789
5.068022,3.660775,-4.051896,-45.17469,42.99472,-32.874275
4.656627,3.6006837,-4.4184365,-42.26567,40.101208,-34.255653
4.2690988,3.5492723,-4.7509894,-39.039288,36.09348,-35.630524
3.92321,3.5021095,-5.0627666,-35.69528,31.50956,-36.984337
3.5844939,3.4526322,-5.3724504,-32.06451,26.228569,-38.330235
3.2388568,3.4042022,-5.6772494,-28.072817,20.134485,-39.797535
2.8909485,3.3749602,-5.9636707,-23.985353,13.100228,-41.41103
2.5534868,3.3788376,-6.22039,-20.380348,4.569147,-42.964
2.234237,3.4053314,-6.425473,-17.577677,-5.040357,-44.305336
1.9250655,3.4246404,-6.5854464,-15.37732,-15.370204,-45.894962
1.652485,3.4157221,-6.720747,-13.354031,-26.274473,-48.04998
1.4936948,3.3837008,-6.7991066,-11.024479,-37.64536,-50.760757
1.5486505,3.3633382,-6.7471075,-8.174071,-48.43298,-54.10666
1.9002777,3.3718503,-6.49651,-5.6292305,-57.993862,-57.154266
2.4041574,3.3315089,-6.1724334,-3.3007276,-65.90471,-59.66977
2.9878364,3.2349644,-5.79383,-0.2827179,-71.82349,-62.02141
3.6232672,3.1535447,-5.3414564,3.1804454,-75.76315,-64.018326
4.2580276,3.1019123,-4.8351555,6.2917404,-77.54258,-64.807655
4.867998,3.0854836,-4.29217,8.8211775,-78.00049,-64.63547
5.426431,3.1046815,-3.7344937,10.526649,-77.18371,-63.759987
5.934935,3.1490788,-3.177282,11.285066,-75.17232,-62.044575
6.3748503,3.2208276,-2.64088,11.040412,-71.77717,-59.711323
6.7054024,3.2930975,-2.1630557,10.080482,-66.888435,-57.10033
6.941557,3.370913,-1.758932,8.664438,-61.118042,-54.491135
7.1079206,3.436941,-1.4298186,6.7181983,-54.743507,-51.698307
7.2129383,3.4902139,-1.1670103,4.285464,-48.002964,-48.66692
7.2813964,3.537734,-0.9524735,1.4929752,-40.810257,-45.636845
7.318259,3.582374,-0.7719934,-1.4056102,-32.938538,-43.05731
7.3157353,3.6498485,-0.6270574,-4.556334,-24.71488,-40.826668
7.2809634,3.7290344,-0.5111316,-8.162481,-16.392588,-38.747223
7.218352,3.8210258,-0.43066195,-12.470607,-8.266208,-36.59767
7.129472,3.917105,-0.39936188,-17.643745,-0.5330801,-33.98122
7.0086913,3.9903283,-0.44384947,-23.538374,6.6986938,-30.978685
6.829023,3.9848566,-0.6015918,-28.88595,13.977818,-28.628696
6.603486,3.9475217,-0.8317325,-33.36172,20.929707,-26.987934
6.347829,3.9050307,-1.1049262,-37.36192,27.329319,-25.831326
6.061102,3.8414068,-1.4215493,-41.105156,32.802414,-24.815922
5.7451124,3.7523868,-1.7580948,-44.575443,36.61386,-23.61898
5.416315,3.6324587,-2.0952582,-47.679764,39.09185,-22.178818
5.1222606,3.4986002,-2.4154298,-50.202656,40.69963,-20.843964
4.8570366,3.3500402,-2.7152832,-51.899403,41.779648,-19.680256
4.6163664,3.1951358,-2.985248,-52.75161,42.59483,-18.641323
4.391232,3.0423968,-3.2260282,-52.718304,43.04808,-17.62848
4.1898427,2.9053104,-3.4132416,-52.194958,43.29209,-16.640802
4.031197,2.7806692,-3.5521479,-51.52306,43.501278,-15.2290325
3.910091,2.6535625,-3.6545928,-50.853607,43.93829,-12.941809
3.7960348,2.5166998,-3.730253,-49.671593,44.4227,-10.543831
3.676617,2.4375281,-3.6129045,-48.108997,43.025223,-10.212137
3.561031,2.3608966,-3.4993215,-46.59654,41.672592,-9.891087
3.4491472,2.2867198,-3.3893764,-45.132526,40.36328,-9.580318
3.3408406,2.2149146,-3.2829468,-43.71532,39.095837,-9.279488
3.2359912,2.1454015,-3.1799145,-42.343353,37.868847,-8.988259
3.1344838,2.078104,-3.080166,-41.015118,36.68097,-8.706313
3.0362072,2.0129483,-2.9835923,-39.729153,35.530895,-8.43334
2.9410539,1.9498636,-2.890088,-38.484062,34.417377,-8.169044
2.8489213,1.8887814,-2.7995522,-37.278496,33.339203,-7.9131374
2.7597098,1.8296359,-2.7118866,-36.111153,32.295216,-7.665344
2.6733239,1.7723635,-2.6269975,-34.980778,31.284292,-7.4253993
2.5896707,1.7169031,-2.544794,-33.88617,30.30535,-7.193045
2.5086615,1.6631955,-2.4651887,-32.826153,29.357347,-6.9680347
2.4302104,1.6111838,-2.3880968,-31.799608,28.439281,-6.750129
2.3542342,1.5608131,-2.3134372,-30.80545,27.550179,-6.5390987
2.280653,1.5120301,-2.2411313,-29.842632,26.689102,-6.33472
2.2093894,1.4647838,-2.1711028,-28.91014,25.855148,-6.1367793
2.1403692,1.4190245,-2.1032784,-28.007,25.047445,-5.945069
2.0735197,1.3747046,-2.0375874,-27.132267,24.265146,-5.759389
2.0087717,1.3317779,-1.9739614,-26.28503,23.507439,-5.579545
1.9460577,1.2901998,-1.9123342,-25.46441,22.773537,-5.4053516
1.8853128,1.249927,-1.852642,-24.669556,22.062675,-5.236627
1.8264742,1.2109181,-1.794823,-23.899645,21.374123,-5.0731974
1.7694811,1.1731328,-1.7388176,-23.153883,20.707167,-4.914894
1.7142748,1.136532,-1.6845678,-22.431501,20.061121,-4.7615533
1.6607984,1.1010782,-1.6320182,-21.731756,19.43532,-4.613018
1.6089972,1.0667349,-1.5811146,-21.05393,18.82912,-4.4691353
1.558818,1.033467,-1.531805,-20.39733,18.241903,-4.329758
1.5102094,1.0012405,-1.4840388,-19.76128,17.673067,-4.1947436
1.4631218,0.9700223,-1.4377673,-19.145134,17.12203,-4.0639534
1.4175072,0.9397806,-1.392943,-18.54826,16.588228,-3.9372544
1.3733188,0.9104846,-1.3495204,-17.97005,16.07112,-3.8145175
1.3305119,0.88210446,-1.3074554,-17.409916,15.570177,-3.6956174
1.289043,0.8546113,-1.266705,-16.86729,15.08489,-3.5804336
1.2488697,0.8279771,-1.2272279,-16.341618,14.614766,-3.4688487
1.2099514,0.80217505,-1.1889839,-15.832366,14.159328,-3.3607495
1.1722485,0.77717876,-1.1519345,-15.33902,13.718116,-3.2560265
1.135723,0.752963,-1.1160419,-14.861078,13.290679,-3.1545734
1.1003377,0.7295032,-1.0812699,-14.398058,12.876587,-3.0562878
1.066057,0.7067757,-1.0475831,-13.94949,12.47542,-2.9610698
1.032846,0.68475753,-1.0149478,-13.51492,12.086772,-2.8688235
1.0006714,0.66342634,-0.98333067,-13.093911,11.710252,-2.7794554
0.96950054,0.6427607,-0.95269996,-12.686037,11.345479,-2.6928756
0.9393021,0.6227397,-0.92302483,-12.290886,10.9920845,-2.6089966
0.9100455,0.60334307,-0.8942752,-11.90806,10.649712,-2.5277338
0.8817013,0.5845514,-0.8664222,-11.537172,10.318017,-2.4490054
0.85424095,0.5663457,-0.8394377,-11.177851,9.996665,-2.3727317
0.8276368,0.54870766,-0.8132946,-10.829732,9.685332,-2.2988362
0.801862,0.5316195,-0.7879665,-10.492466,9.383706,-2.2272444
0.77689075,0.515064,-0.7634279,-10.165713,9.091482,-2.1578844
0.7526978,0.4990245,-0.73965424,-9.849146,8.808368,-2.0906863
0.7292589,0.48348498,-0.7166215,-9.542445,8.534076,-2.0255828
0.7065505,0.4684297,-0.6943066,-9.245302,8.268333,-1.9625081
0.6845497,0.45384362,-0.67268705,-8.957419,8.010871,-1.9013989
0.6632345,0.43971202,-0.6517412,-8.678507,7.761432,-1.842194
0.64258343,0.42602074,-0.63144803,-8.408285,7.519765,-1.7848337
0.62257576,0.41275603,-0.6117871,-8.146482,7.2856274,-1.7292606
0.60319144,0.39990458,-0.5927386,-7.8928356,7.0587845,-1.6754189
0.58441097,0.3874535,-0.57428366,-7.647091,6.839008,-1.6232544
0.5662155,0.37539026,-0.5564035,-7.409002,6.6260777,-1.5727149
0.5485869,0.3637028,-0.5390804,-7.1783285,6.4197807,-1.5237498
0.5315074,0.35237938,-0.5222968,-6.9548407,6.219909,-1.4763098
0.5149598,0.34140867,-0.506036,-6.7383137,6.0262628,-1.4303474
0.49892762,0.33077964,-0.49028164,-6.5285306,5.838648,-1.3858167
0.48339474,0.32048166,-0.47501794,-6.325281,5.6568766,-1.3426727
0.46834564,0.31050438,-0.46022964,-6.1283617,5.480766,-1.3008724
0.45376518,0.3008378,-0.44590184,-5.937575,5.3101397,-1.260374
0.4396388,0.29147226,-0.43202025,-5.752729,5.144827,-1.2211366
0.42595232,0.28239837,-0.41857094,-5.57364,4.984662,-1.1831212
0.412692,0.27360708,-0.40554044,-5.400127,4.829485,-1.1462895
0.39984465,0.26508948,-0.3929157,-5.2320175,4.67914,-1.1106048
0.3873973,0.25683713,-0.38068405,-5.0691423,4.5334764,-1.0760311
0.37533754,0.24884175,-0.36883327,-4.9113393,4.3923483,-1.042534
0.3636533,0.2410953,-0.3573515,-4.758449,4.2556143,-1.01008
0.35233283,0.23359005,-0.34622723,-4.6103196,4.123138,-0.9786364
0.34136486,0.2263185,-0.3354493,-4.466802,3.9947865,-0.9481718
0.33073837,0.21927333,-0.32500696,-4.327753,3.870431,-0.91865575
0.3204427,0.21244751,-0.31488973,-4.193033,3.7499473,-0.8900587
0.31046763,0.20583421,-0.3050875,-4.062508,3.6332147,-0.86235195
0.3008031,0.1994268,-0.29559043,-3.9360464,3.5201166,-0.83550787
0.29143944,0.19321889,-0.28638905,-3.8135219,3.4105396,-0.80949944
0.28236732,0.18720423,-0.27747414,-3.6948118,3.304374,-0.7843008
0.27357763,0.18137683,-0.26883677,-3.5797977,3.2015135,-0.7598866
0.26506156,0.17573084,-0.26046827,-3.468364,3.1018553,-0.7362325
0.25681064,0.17026064,-0.25236034,-3.3603995,3.0052996,-0.71331483
0.24881656,0.16496071,-0.2445048,-3.2557962,2.9117498,-0.69111055
0.24107137,0.15982579,-0.23689382,-3.1544492,2.8211124,-0.66959757
0.23356728,0.15485072,-0.22951977,-3.0562572,2.7332966,-0.6487543
0.2262968,0.15003052,-0.22237527,-2.9611223,2.6482146,-0.6285599
0.21925265,0.1453604,-0.2154532,-2.8689487,2.565781,-0.6089941
0.2124278,0.14083564,-0.20874661,-2.7796445,2.485914,-0.59003747
0.20581539,0.13645174,-0.20224878,-2.6931202,2.4085329,-0.5716709
0.19940883,0.13220431,-0.19595325,-2.6092896,2.333561,-0.5538761
0.19320169,0.1280891,-0.18985368,-2.5280685,2.2609227,-0.5366352
0.18718779,0.12410199,-0.18394399,-2.4493759,2.1905456,-0.5199311
0.1813611,0.120239004,-0.17821828,-2.3731327,2.1223593,-0.50374687
0.17571577,0.116496265,-0.17267078,-2.2992632,2.0562954,-0.4880665
0.1702462,0.11287003,-0.16729598,-2.227693,1.9922882,-0.47287425
