ax,ay,az,gx,gy,gz
-0.48727718,10.144638,2.5191138,8.822807,-15.148319,-73.52067
-0.24843515,10.858082,3.0584202,-16.813883,-16.305983,-78.07014
-0.09252855,11.074253,3.2977502,-36.56841,-18.551344,-79.941864
0.20063558,11.175787,3.4909647,-54.45175,-19.045282,-83.63605
0.5763816,11.071453,3.6330333,-71.2496,-15.733019,-87.847374
0.9029955,10.774654,3.6487494,-86.74052,-11.9476,-90.94528
1.1237953,10.422453,3.5767078,-101.147766,-8.918271,-93.2099
1.3530352,10.035723,3.424312,-115.780556,-6.6777434,-93.638306
1.5526985,9.587402,3.1857107,-130.36238,-5.0693045,-92.758766
1.692903,9.054273,2.8509934,-143.4142,-3.408885,-92.070145
1.7764868,8.311496,2.3350885,-151.76764,-1.3089894,-93.09784
1.8559642,7.4639645,1.762507,-154.57265,1.4487725,-96.19334
1.9553734,6.578289,1.1953691,-153.25394,4.7380986,-100.14183
2.0467844,5.7014894,0.64543164,-149.95065,7.92434,-103.886635
2.111839,4.8265333,0.10995705,-145.21814,10.259443,-106.14727
2.111716,3.9143338,-0.40863895,-139.5456,11.826984,-106.77972
2.0437653,3.0520823,-0.87159956,-132.77252,12.79031,-106.38591
1.925849,2.2869244,-1.2558687,-124.940186,13.0807495,-105.76745
1.8037108,1.6229904,-1.5356004,-116.69075,12.771186,-104.874466
1.7041484,1.0449892,-1.7243477,-109.040344,11.888469,-102.56165
1.6138659,0.51188606,-1.8540988,-102.456245,10.55109,-99.005226
1.5308417,-0.008609286,-1.9736584,-96.433,9.024818,-94.29818
1.4450445,-0.51084995,-2.096405,-90.40795,7.5350437,-89.11324
1.3391793,-0.990214,-2.2211595,-83.71977,5.9600124,-83.78518
1.2358284,-1.4255594,-2.3097582,-76.11182,4.058056,-78.32579
1.1787947,-1.7738289,-2.324399,-68.45574,2.1750803,-72.851974
1.16408,-2.0621903,-2.2817852,-60.92947,0.5243821,-67.30162
1.1871775,-2.3077123,-2.1902268,-53.693565,-0.7824457,-61.541748
1.2450478,-2.4918659,-2.0552979,-46.72115,-1.6476663,-55.4772
1.3411447,-2.5844254,-1.8703886,-40.69223,-2.0624213,-49.18176
1.4724654,-2.6050324,-1.6343904,-35.321495,-2.262645,-43.095432
1.6267395,-2.5864768,-1.3700582,-30.233587,-2.046397,-37.31374
1.7937562,-2.5222247,-1.0777448,-25.257034,-1.2048264,-31.968348
1.9687603,-2.4120808,-0.7743026,-20.683102,0.46125838,-26.870209
2.1307123,-2.2676885,-0.48407564,-16.663347,3.1454966,-21.941746
2.2468765,-2.0702937,-0.22759317,-12.922181,6.28445,-17.40446
2.3320193,-1.8314722,0.0061714244,-9.647099,9.696502,-13.225717
2.3888233,-1.5600625,0.2130163,-7.220002,13.264266,-9.198237
2.4136994,-1.2622886,0.3856996,-5.7487707,16.786594,-5.378156
2.4122112,-0.9536632,0.5229418,-5.4113503,20.344017,-1.8494465
2.375455,-0.65041685,0.59930164,-5.781142,23.870193,1.4195417
2.3072476,-0.35794526,0.6221048,-6.832661,27.254799,4.457872
2.2041152,-0.086411715,0.591804,-8.143696,30.467999,7.0666227
2.080982,0.16120122,0.5150625,-9.339692,33.530952,8.989474
1.9515492,0.38600516,0.40375733,-10.296698,36.52098,10.108297
1.8100632,0.5852609,0.24673098,-11.152078,39.328392,10.6732855
1.6588812,0.7566582,0.052726045,-11.923714,41.876724,10.8189335
1.4969652,0.89746255,-0.17736878,-12.605392,43.921707,10.678143
1.3250284,1.0135381,-0.43497333,-13.157845,45.30428,10.293281
1.1478763,1.1154708,-0.7075666,-13.390503,45.831417,9.565612
0.9660229,1.2016281,-0.9875852,-13.327955,45.77808,8.629559
0.782305,1.2807792,-1.2632755,-12.899071,45.12866,7.5041795
0.59885603,1.3609304,-1.5311918,-12.243854,43.992123,6.2808695
0.41355434,1.4431581,-1.7930294,-11.53207,42.26489,4.959414
0.22152813,1.5185183,-2.0551012,-10.919538,39.742554,3.5051293
0.0267695,1.5790918,-2.3307586,-10.28322,36.525524,1.8767705
-0.16042762,1.6288084,-2.6190217,-9.551691,32.71328,0.028801678
-0.34131977,1.6589984,-2.9164674,-8.536562,28.266682,-2.0904489
-0.509492,1.6670024,-3.2132547,-7.1031685,23.103994,-4.4508395
-0.65032077,1.6616604,-3.5004408,-4.997038,17.075062,-7.188589
-0.7386297,1.6379919,-3.7700293,-2.3802962,10.535076,-10.214425
-0.7816656,1.5937696,-3.9908178,0.720255,3.5220432,-13.417102
-0.75174975,1.5369939,-4.1221,4.235723,-4.0874705,-16.68004
-0.615334,1.4914335,-4.118163,7.7143955,-11.792293,-19.735792
-0.37430564,1.4632993,-3.945189,10.150652,-18.588459,-22.056273
-0.039783347,1.402475,-3.5659103,11.506212,-24.286427,-23.501879
0.32203174,1.3115076,-3.079905,12.367816,-28.795311,-24.372211
0.7030089,1.2253082,-2.5016108,12.991386,-31.904228,-24.908562
1.0786533,1.1394193,-1.8862264,12.944905,-33.58507,-24.838186
1.4006901,1.0284715,-1.3140091,11.784768,-34.226826,-23.678328
1.6493685,0.84642845,-0.8595915,10.871229,-34.571243,-21.884718
1.9045802,0.64088804,-0.4601244,10.3625555,-34.199768,-18.823223
2.1407177,0.45185876,-0.094819985,9.735043,-32.563354,-14.858989
2.0728242,0.43752787,-0.09181274,9.426291,-31.530592,-14.38773
2.007159,0.42366743,-0.088904195,9.127676,-30.531734,-13.93194
1.9436427,0.4102605,-0.08609083,8.838832,-29.565561,-13.491066
1.8821986,0.397291,-0.083369255,8.559411,-28.630909,-13.064574
1.8227534,0.3847434,-0.08073621,8.289081,-27.726662,-12.6519575
1.7652369,0.37260294,-0.078188606,8.02752,-26.851755,-12.252728
1.7095819,0.36085537,-0.07572345,7.774426,-26.005163,-11.86642
1.6557239,0.34948713,-0.07333789,7.529504,-25.185907,-11.492585
1.6036012,0.33848515,-0.071029186,7.2924724,-24.393047,-11.130795
1.5531542,0.3278369,-0.06879471,7.0630617,-23.625677,-10.780636
1.5043259,0.31753033,-0.06663193,6.841012,-22.882929,-10.441713
1.4570615,0.30755386,-0.06453843,6.626075,-22.16397,-10.113646
1.4113084,0.29789636,-0.062511854,6.4180098,-21.468,-9.796067
1.3670157,0.28854716,-0.06054998,6.216586,-20.794247,-9.4886265
1.3241348,0.27949592,-0.05865063,6.0215826,-20.141968,-9.190985
1.2826188,0.2707328,-0.056811735,5.8327856,-19.510448,-8.902816
1.2424221,0.26224816,-0.055031285,5.649989,-18.899002,-8.623806
1.2035016,0.25403288,-0.05330735,5.4729953,-18.306965,-8.353654
1.165815,0.24607806,-0.051638078,5.3016133,-17.733698,-8.092066
1.1293219,0.23837517,-0.050021674,5.1356587,-17.178587,-7.838763
1.0939834,0.23091598,-0.048456404,4.974955,-16.641037,-7.5934744
1.0597618,0.22369255,-0.04694061,4.81933,-16.120478,-7.355938
1.0266207,0.2166972,-0.045472674,4.668619,-15.616357,-7.125902
0.9945253,0.20992255,-0.044051055,4.5226636,-15.1281395,-6.9031234
0.96344155,0.20336147,-0.042674247,4.381308,-14.655312,-6.6873674
0.933337,0.19700703,-0.041340806,4.2444057,-14.197378,-6.478408
0.90417993,0.19085261,-0.040049337,4.111812,-13.753858,-6.276025
0.87593997,0.18489178,-0.03879849,3.9833894,-13.324288,-6.080008
0.84858775,0.17911832,-0.03758696,3.8590035,-12.908222,-5.890153
0.8220948,0.17352624,-0.036413494,3.7385252,-12.505227,-5.706262
0.7964336,0.16810973,-0.03527687,3.6218297,-12.114884,-5.528145
0.7715778,0.16286321,-0.034175918,3.5087962,-11.736792,-5.355617
0.74750155,0.15778124,-0.033109497,3.3993082,-11.370558,-5.188501
0.7241801,0.1528586,-0.032076508,3.2932525,-11.015806,-5.026624
0.7015895,0.14809021,-0.03107589,3.1905205,-10.672172,-4.86982
0.6797066,0.1434712,-0.030106615,3.0910063,-10.3393,-4.7179275
0.6585088,0.13899681,-0.029167691,2.9946082,-10.016852,-4.5707912
0.63797456,0.13466248,-0.028258156,2.9012275,-9.704497,-4.4282603
0.6180828,0.13046378,-0.02737708,2.8107686,-9.401916,-4.2901897
0.5988133,0.1263964,-0.026523566,2.7231393,-9.108799,-4.1564374
0.5801464,0.122456215,-0.02569674,2.6382504,-8.824848,-4.026868
0.562063,0.11863921,-0.024895763,2.556015,-8.549774,-3.9013488
0.54454476,0.11494149,-0.024119819,2.4763498,-8.283298,-3.7797527
0.5275739,0.11135932,-0.02336812,2.399174,-8.0251465,-3.6619558
0.5111332,0.10788905,-0.022639902,2.3244088,-7.7750607,-3.547839
0.49520597,0.10452716,-0.02193443,2.2519789,-7.532785,-3.4372861
0.47977608,0.10127024,-0.021250984,2.1818104,-7.2980742,-3.3301854
0.4648279,0.098115005,-0.020588877,2.1138327,-7.070691,-3.226428
0.4503463,0.095058255,-0.019947434,2.0479767,-6.850405,-3.1259096
0.43631664,0.0920969,-0.01932601,1.984176,-6.6369944,-3.028528
0.42272475,0.08922795,-0.018723978,1.9223661,-6.4302425,-2.934185
0.4095569,0.08644851,-0.018140728,1.8624846,-6.229941,-2.8427854
0.39679983,0.08375577,-0.017575672,1.804471,-6.0358877,-2.7542367
0.38444063,0.081147015,-0.017028239,1.7482668,-5.847887,-2.66845
0.3724669,0.07861962,-0.01649788,1.6938155,-5.665749,-2.5853388
0.3608665,0.07617103,-0.015984058,1.641062,-5.4892907,-2.5048192
0.34962782,0.07379879,-0.015486256,1.5899534,-5.3183346,-2.42681
0.33873948,0.0715005,-0.015003974,1.5404382,-5.1527076,-2.3512328
0.3281906,0.06927386,-0.014536725,1.4924663,-4.9922442,-2.2780116
0.3179705,0.067116626,-0.014084042,1.44599,-4.836782,-2.2070727
0.30806896,0.065026626,-0.013645466,1.400962,-4.6861653,-2.1383448
0.29847598,0.06300176,-0.01322056,1.3573374,-4.5402427,-2.0717587
0.28918195,0.061039988,-0.012808895,1.3150722,-4.398867,-2.0072477
0.28017753,0.059139352,-0.012410057,1.274124,-4.261897,-1.944747
0.27145365,0.057297934,-0.012023645,1.2344518,-4.1291947,-1.8841935
0.2630016,0.05551389,-0.011649273,1.1960155,-4.000627,-1.8255267
0.25481287,0.053785425,-0.011286565,1.1587768,-3.8760648,-1.7686876
0.24687922,0.052110806,-0.010935157,1.1226981,-3.7553828,-1.7136194
0.23919272,0.050488357,-0.010594694,1.0877433,-3.6384604,-1.6602664
0.23174566,0.048916444,-0.010264837,1.0538772,-3.5251799,-1.6085753
0.22453056,0.047393493,-0.009945255,1.0210662,-3.4154282,-1.5584944
0.21754019,0.04591798,-0.009635626,0.98927706,-3.3090947,-1.5099734
0.21076754,0.04448842,-0.009335642,0.958478,-3.206073,-1.4629637
0.20420581,0.043103386,-0.009045,0.9286382,-3.1062598,-1.4174179
0.19784845,0.041761484,-0.00876341,0.8997277,-3.0095553,-1.3732907
0.19168907,0.040461373,-0.008490589,0.8717176,-2.9158626,-1.3305377
0.1857215,0.03920175,-0.008226264,0.8445797,-2.8250873,-1.289116
0.17993978,0.037981354,-0.007970171,0.8182869,-2.737139,-1.2489843
0.17433807,0.036798958,-0.007722052,0.7928128,-2.6519294,-1.2101022
0.16891082,0.035653383,-0.0074816593,0.76813203,-2.569373,-1.172431
0.16365255,0.034543477,-0.007248752,0.7442198,-2.4893873,-1.1359327
0.15855801,0.03346813,-0.007023097,0.72105205,-2.4118922,-1.1005708
0.1536221,0.032426268,-0.006804468,0.6986057,-2.3368099,-1.06631
0.14883988,0.031416845,-0.0065926462,0.67685825,-2.2640655,-1.0331161
0.14420655,0.030438852,-0.0063874195,0.65578794,-2.193586,-1.0009556
0.13971749,0.029491307,-0.006188583,0.63537365,-2.125301,-0.9697964
0.13536818,0.028573265,-0.005995937,0.6155949,-2.0591419,-0.9396073
0.13115428,0.027683804,-0.005809289,0.596432,-1.9950427,-0.9103582
0.12707159,0.026822036,-0.0056284517,0.57786566,-1.932939,-0.8820197
0.123116,0.025987098,-0.005453245,0.5598774,-1.8727689,-0.8545635
0.119283564,0.025178153,-0.005283492,0.5424492,-1.8144721,-0.82796204
0.11557043,0.024394393,-0.005119025,0.5255635,-1.7579901,-0.80218875
0.111972906,0.023635034,-0.0049596773,0.5092035,-1.7032666,-0.77721786
0.108487375,0.022899313,-0.0048052906,0.49335283,-1.6502467,-0.75302434
0.10511035,0.022186497,-0.0046557104,0.4779956,-1.5988774,-0.729584
0.10183846,0.021495873,-0.0045107864,0.4631165,-1.5491073,-0.70687336
0.09866843,0.020826748,-0.0043703746,0.44870058,-1.5008866,-0.68486977
0.09559707,0.020178452,-0.0042343335,0.43473342,-1.454167,-0.66355115
0.092621334,0.01955034,-0.0041025276,0.42120108,-1.4089018,-0.6428962
0.089738235,0.01894178,-0.0039748247,0.40809,-1.3650457,-0.6228842
0.08694488,0.018352164,-0.0038510973,0.39538705,-1.3225548,-0.60349524
0.084238485,0.017780904,-0.0037312214,0.38307956,-1.2813867,-0.58470976
0.08161634,0.017227426,-0.0036150774,0.3711552,-1.2415003,-0.5665091
0.07907582,0.016691178,-0.0035025487,0.35960203,-1.2028553,-0.5488751
0.07661439,0.016171621,-0.003393523,0.3484085,-1.1654134,-0.53178996
0.07422957,0.01566824,-0.003287891,0.33756343,-1.129137,-0.5152367
0.071918994,0.015180528,-0.0031855474,0.32705593,-1.0939898,-0.49919868
