ax,ay,az,gx,gy,gz
-0.5745507,1.0481913,-1.0227365,25.024773,-6.103692,13.927399
-0.658623,0.92517173,-1.5179113,32.062298,-9.855063,12.729847
-0.7999683,0.83947724,-1.7402781,42.253883,-14.46145,11.9494505
-0.8371868,1.0498949,-1.6116861,44.25179,-16.733644,13.13323
-0.8041996,1.530163,-1.2360739,40.735016,-18.080538,12.8782625
-0.6750844,2.0189931,-0.7534931,34.781677,-17.037863,12.060203
-0.5480451,2.5162559,-0.29969272,26.916452,-14.100841,9.964224
-0.45454416,2.9294126,0.018202825,19.752699,-10.871504,6.6104302
-0.39163727,3.2284174,0.21897152,14.28628,-8.523895,2.3882515
-0.32056856,3.439145,0.36485308,9.174895,-7.1022005,-1.5670005
-0.23759381,3.6017103,0.4767971,3.8956177,-6.2405047,-5.349033
-0.16396785,3.704085,0.5652077,-1.0936513,-5.587162,-9.052841
-0.089095004,3.7658064,0.6411087,-5.561353,-4.8652506,-12.950946
-0.00050173263,3.8114655,0.7122697,-9.648076,-3.7668386,-17.20226
0.08408498,3.8624036,0.77898675,-13.902214,-2.4433684,-21.379751
0.15372086,3.9187055,0.8376578,-18.374245,-1.0182003,-25.567894
0.20994474,3.957064,0.87233156,-22.918407,0.35047004,-29.817633
0.26424223,3.953602,0.8774679,-27.61892,1.6399121,-34.21809
0.32004523,3.8893282,0.8492708,-31.895987,2.9697688,-38.565655
0.3753269,3.7596626,0.7898991,-35.64282,4.2682076,-42.560085
0.42227364,3.6026137,0.71220386,-38.899643,5.4983487,-46.183155
0.45848173,3.4173706,0.61888707,-41.879078,6.479966,-49.53532
0.48955435,3.1957054,0.51615775,-44.592236,7.3318896,-52.372852
0.5111678,2.9350102,0.39888188,-46.90191,8.033603,-54.39254
0.5161825,2.632232,0.2593444,-48.66764,8.497407,-55.618267
0.50648254,2.320846,0.1100327,-49.838394,8.617887,-56.03444
0.4780937,2.0026011,-0.0468433,-50.163925,8.229848,-55.81437
0.44170007,1.6822413,-0.19069225,-49.82313,7.362798,-54.908047
0.41277403,1.3699316,-0.31025088,-48.95759,6.186258,-52.90622
0.39535323,1.0568635,-0.3993334,-47.14122,5.198753,-50.763504
0.3825414,0.7637758,-0.4759372,-44.877968,4.7154922,-48.711704
0.3644534,0.4821351,-0.54576224,-42.00141,4.5087314,-46.938282
0.3403028,0.22115491,-0.6028012,-39.06496,4.482168,-44.95965
0.30352667,-0.009287399,-0.6552167,-36.02969,4.134813,-42.327023
0.26498175,-0.20182101,-0.6903541,-33.125336,3.407748,-39.31559
0.24107754,-0.36805114,-0.70497465,-30.107368,2.4635146,-36.18207
0.23320757,-0.51631284,-0.6982054,-26.987955,1.5762204,-33.116833
0.24093571,-0.650278,-0.67480314,-23.798748,0.890034,-30.159332
0.27146173,-0.77443165,-0.6376721,-20.330038,0.6000213,-27.00589
0.32329506,-0.8776775,-0.5882838,-16.774605,0.60930824,-23.543337
0.3824444,-0.9553865,-0.5359563,-13.225994,0.7993768,-19.707697
0.436522,-0.9940775,-0.47605327,-9.736782,1.0246693,-15.4758215
0.48191345,-0.98084646,-0.40926987,-6.3541527,1.1531945,-11.357349
0.53496325,-0.92854583,-0.3217544,-3.5230603,1.2416812,-7.9343424
0.6105315,-0.86423004,-0.19628465,-0.71444345,1.6340178,-5.1635866
0.7010713,-0.8004559,-0.054946907,2.069769,2.4023027,-2.721065
0.80420256,-0.7226067,0.10154663,4.517925,3.7308807,-0.24236804
0.9015328,-0.61574817,0.2533301,6.44797,5.600014,2.3261414
0.974238,-0.48070887,0.38158193,7.48294,7.8833485,4.714857
1.0220014,-0.3342851,0.4758846,8.081798,10.225529,6.8602724
1.0601469,-0.18891087,0.5516737,8.511187,12.682342,8.761538
1.0957174,-0.039463267,0.61216295,8.8667,15.370327,10.407355
1.1268958,0.10654153,0.65278065,9.053723,18.143745,11.78265
1.1475221,0.24290055,0.6729119,8.975898,21.048418,12.937742
1.1432645,0.37230045,0.6629765,8.799861,23.932001,13.855751
1.1213429,0.49376866,0.63321,8.521532,26.745699,14.596971
1.0838445,0.6090652,0.5859498,8.118891,29.442766,15.230896
1.0345266,0.72176886,0.52237207,7.62078,31.99837,15.741894
0.9727313,0.8301412,0.4431037,6.957073,34.27699,15.965389
0.8896142,0.9248257,0.3342094,6.3328457,36.208233,15.966224
0.7955906,1.0020418,0.20989291,5.7603507,37.76406,15.695412
0.6974069,1.0652157,0.07567337,5.1960387,38.954994,15.266001
0.59552675,1.1187923,-0.07352916,4.572458,39.77904,14.786431
0.48020568,1.1661974,-0.25030532,4.1632686,40.007843,14.187649
0.35574892,1.2056689,-0.45579267,3.7897484,39.71429,13.346271
0.22693531,1.2307247,-0.6854435,3.6131885,38.801678,12.269033
0.08547748,1.245123,-0.93783945,3.7731984,37.172813,11.003425
-0.06620608,1.2581074,-1.2037519,4.2265334,34.692993,9.507202
-0.22364962,1.2726353,-1.4721916,5.089586,30.994383,7.6226807
-0.38223428,1.2862308,-1.7342318,6.1884527,26.460056,5.59105
-0.5373502,1.2969216,-1.9855677,7.40424,21.122625,3.5202215
-0.6756182,1.309547,-2.2224586,8.861075,15.001664,1.3667294
-0.78041923,1.331313,-2.4308789,10.403471,8.152736,-1.0101602
-0.82759845,1.3444966,-2.6008456,12.202861,0.48215246,-4.0753217
-0.7293745,1.3199297,-2.656542,13.972169,-7.1821766,-7.1964855
-0.52943027,1.2908819,-2.5836785,15.438303,-14.070376,-10.209728
-0.2694323,1.2620231,-2.3979313,16.129162,-19.977486,-13.080281
0.03257682,1.2055521,-2.1059182,16.016848,-24.493412,-15.556749
0.37189823,1.1315705,-1.7442719,15.214857,-26.178041,-16.296526
0.62554693,1.0734142,-1.4252596,14.194416,-26.81135,-16.33116
0.78087384,1.0011635,-1.1668906,13.347303,-27.406883,-16.26276
0.88825727,0.917515,-0.9212214,12.548606,-27.964025,-15.869925
0.9741311,0.84860456,-0.6756174,11.758316,-28.173004,-15.163304
1.0450513,0.79485774,-0.44226414,11.200624,-27.861044,-14.477441
1.1006299,0.75244665,-0.23112044,10.854463,-27.131432,-13.896019
1.1426874,0.72417176,-0.04236541,10.666953,-26.036089,-13.4213295
1.1739558,0.7086626,0.120560914,10.316865,-24.659643,-12.837293
1.187571,0.6931773,0.2482749,9.573943,-22.91542,-11.93874
1.1722527,0.67805934,0.32511348,8.466197,-20.914778,-10.7415495
1.1305633,0.6547096,0.35228124,7.692075,-18.88402,-9.591969
1.0951468,0.6341999,0.34124553,7.45111,-18.292452,-9.291487
1.0608532,0.6143405,0.33055973,7.217785,-17.719639,-9.000532
1.0276457,0.59511006,0.32021236,6.9918494,-17.164968,-8.718792
0.9954889,0.57648796,0.31019235,6.773062,-16.627846,-8.445966
0.9643483,0.55845445,0.300489,6.5611897,-16.107698,-8.181762
0.9341911,0.5409904,0.29109207,6.356007,-15.603977,-7.9259005
0.9049853,0.5240773,0.2819916,6.157298,-15.116146,-7.6781116
0.8767001,0.50769734,0.273178,5.964853,-14.643694,-7.4381332
0.8493059,0.49183336,0.26464203,5.778469,-14.186123,-7.205714
0.82277393,0.4764687,0.25637472,5.5979524,-13.742954,-6.980611
0.7970765,0.4615873,0.24836744,5.4231133,-13.313725,-6.762588
0.7721869,0.4471737,0.24061188,5.2537704,-12.897989,-6.5514183
0.7480792,0.43321294,0.23309997,5.0897474,-12.495314,-6.346883
0.7247284,0.4196905,0.22582391,4.9308743,-12.105281,-6.148769
0.7021104,0.4065924,0.2187762,4.776987,-11.727488,-5.9568725
0.6802018,0.39390513,0.21194951,4.6279263,-11.361544,-5.7709947
0.6589801,0.3816156,0.20533687,4.4835386,-11.007073,-5.5909443
0.6384234,0.36971122,0.19893144,4.343676,-10.663711,-5.4165363
0.6185106,0.35817972,0.19272666,4.2081943,-10.331103,-5.247592
0.59922135,0.3470093,0.18671617,4.076955,-10.008911,-5.083937
0.5805358,0.33618852,0.18089381,3.9498234,-9.696804,-4.925405
0.56243503,0.32570633,0.17525361,3.82667,-9.394463,-4.771833
0.54490036,0.31555203,0.16978987,3.7073686,-9.101578,-4.623065
0.52791405,0.30571523,0.16449697,3.5917978,-8.817852,-4.478949
0.5114588,0.29618597,0.15936953,3.4798403,-8.542996,-4.339339
0.4955178,0.28695455,0.15440235,3.3713815,-8.276731,-4.2040915
0.48007488,0.27801156,0.14959037,3.2663116,-8.0187845,-4.07307
0.46511438,0.2693479,0.14492871,3.1645243,-7.7688966,-3.9461417
0.45062113,0.26095486,0.14041264,3.0659156,-7.526813,-3.8231773
0.43658045,0.2528239,0.13603759,2.9703863,-7.2922883,-3.7040527
0.42297807,0.24494676,0.13179912,2.877839,-7.065086,-3.5886471
0.4098003,0.2373155,0.12769295,2.7881806,-6.8449745,-3.4768436
0.39703378,0.2299224,0.123714924,2.7013204,-6.631733,-3.3685293
0.3846656,0.22275999,0.11986103,2.6171703,-6.4251447,-3.2635949
0.3726833,0.21582104,0.116127364,2.5356457,-6.2250023,-3.1619341
0.36107478,0.20909853,0.112510175,2.4566643,-6.0311027,-3.0634446
0.34982833,0.20258571,0.1090058,2.380146,-5.8432508,-2.968027
0.3389326,0.196276,0.10561072,2.3060143,-5.6612577,-2.8755853
0.32837662,0.19016303,0.1023215,2.234194,-5.484939,-2.7860258
0.3181498,0.18424067,0.09913484,2.1646132,-5.3141184,-2.6992588
0.30824178,0.17850293,0.09604752,2.0972016,-5.148623,-2.615197
0.29864264,0.17294407,0.09305645,2.0318913,-4.9882865,-2.5337555
0.2893427,0.16755846,0.090158604,1.9686167,-4.8329477,-2.4548526
0.2803326,0.16234072,0.08735108,1.9073143,-4.6824503,-2.378409
0.27160332,0.15728559,0.08463105,1.8479223,-4.5366435,-2.3043475
0.26314604,0.15238798,0.081995785,1.7903812,-4.39538,-2.232594
0.2549523,0.14764298,0.079442635,1.7346331,-4.2585187,-2.1630764
0.2470139,0.14304584,0.076969035,1.680622,-4.1259212,-2.0957248
0.2393228,0.13859192,0.0745725,1.6282936,-3.9974556,-2.0304718
0.2318713,0.13427676,0.072250634,1.5775955,-3.8729918,-1.9672517
0.22465196,0.13009603,0.0700011,1.5284768,-3.7524056,-1.906001
0.2176575,0.12604554,0.067821644,1.4808882,-3.635576,-1.8466582
0.21088092,0.12212122,0.065710075,1.434782,-3.5223854,-1.7891642
0.20431542,0.11831914,0.06366427,1.390112,-3.4127204,-1.7334609
0.19795442,0.114635475,0.0616822,1.3468332,-3.3064713,-1.6794926
0.19179152,0.11106654,0.059761852,1.3049024,-3.2035313,-1.6272051
0.18582056,0.107608765,0.057901315,1.2642776,-3.1037974,-1.5765462
0.18003558,0.10425867,0.056098726,1.2249179,-3.0071695,-1.5274649
0.17443074,0.10101291,0.05435227,1.186784,-2.9135509,-1.4799122
0.16900046,0.09786823,0.052660204,1.1498376,-2.8228476,-1.4338403
0.16373926,0.09482147,0.051020827,1.1140418,-2.7349691,-1.3892031
0.1586419,0.09186959,0.0494325,1.0793606,-2.649827,-1.3459558
0.15370329,0.08900963,0.047893636,1.0457594,-2.567336,-1.3040553
0.14891843,0.08623872,0.046402685,1.0132045,-2.4874136,-1.2634596
0.14428256,0.08355409,0.04495816,0.9816632,-2.40998,-1.2241278
0.13979106,0.080953054,0.043558612,0.95110404,-2.3349574,-1.1860207
0.1354394,0.078433,0.04220264,0.9214964,-2.2622707,-1.1491002
0.13122322,0.075991414,0.04088889,0.8928106,-2.191847,-1.1133292
0.12713832,0.07362584,0.03961604,0.8650179,-2.1236162,-1.0786718
0.12318059,0.07133392,0.038382825,0.83809054,-2.0575094,-1.0450935
0.11934609,0.06911337,0.037188,0.8120015,-1.993461,-1.0125607
0.11563097,0.06696194,0.03603038,0.78672475,-1.9314067,-0.9810408
0.11203151,0.06487749,0.034908794,0.7622349,-1.8712842,-0.9505021
0.10854412,0.06285794,0.03382213,0.73850757,-1.8130336,-0.92091423
0.105165295,0.060901262,0.032769293,0.71551883,-1.7565964,-0.8922475
0.10189166,0.0590055,0.031749237,0.6932458,-1.7019163,-0.86447316
0.09871994,0.057168752,0.030760935,0.67166626,-1.6489384,-0.8375636
0.095646955,0.05538919,0.0298034,0.65075845,-1.5976099,-0.81149167
0.09266964,0.053665027,0.028875675,0.6305015,-1.5478792,-0.7862314
0.08978502,0.051994536,0.027976831,0.61087525,-1.4996967,-0.76175755
0.08699019,0.05037605,0.027105968,0.59185994,-1.4530141,-0.7380456
0.08428237,0.04880795,0.026262216,0.57343656,-1.4077848,-0.71507174
0.08165884,0.047288664,0.02544473,0.5555867,-1.3639636,-0.6928131
0.07911698,0.045816675,0.024652692,0.5382925,-1.3215064,-0.67124736
0.07665425,0.044390503,0.02388531,0.5215367,-1.280371,-0.65035295
0.074268185,0.043008734,0.023141816,0.5053025,-1.240516,-0.630109
0.071956396,0.041669976,0.022421468,0.48957366,-1.2019017,-0.61049527
0.069716565,0.04037289,0.021723542,0.47433442,-1.1644895,-0.591492
0.067546465,0.039116185,0.021047343,0.45956957,-1.1282419,-0.57308036
0.06544392,0.037898596,0.020392193,0.44526437,-1.0931226,-0.5552418
