ax,ay,az,gx,gy,gz
-5.5855055,6.0555096,-3.5327594,23.582033,2.2745662,27.632978
-5.8563743,6.9162426,-3.1307359,33.429638,-8.638702,0.9151034
-5.4962463,7.487845,-2.3138578,37.005585,-15.275334,-17.132776
-4.9226017,8.026949,-1.4122661,32.070366,-18.558613,-27.432133
-4.3714023,8.517467,-0.654946,23.64722,-19.605604,-32.328102
-3.9473505,8.912579,-0.035857216,13.451185,-19.73475,-37.634354
-3.5396714,9.200377,0.4760851,1.4173956,-17.728184,-44.47622
-3.144117,9.327503,0.8113504,-11.017398,-14.610647,-50.60692
-2.8885615,9.318228,0.9417243,-22.727118,-11.739796,-56.10913
-2.7512846,9.204008,0.8945863,-32.996475,-9.567631,-61.641098
-2.6642323,8.994884,0.71917415,-42.062042,-8.339323,-67.85835
-2.567893,8.676299,0.4655242,-50.569317,-8.304489,-74.17473
-2.4295344,8.239689,0.1754401,-57.969772,-9.27791,-79.92749
-2.2334785,7.788899,-0.042830165,-64.72021,-10.68456,-85.03865
-1.9927282,7.3322873,-0.20692532,-71.03559,-11.741482,-89.62416
-1.7419431,6.801092,-0.38227186,-76.05443,-12.234025,-94.08543
-1.4960767,6.175443,-0.57579696,-77.86253,-12.5388975,-98.35618
-1.2175037,5.4922204,-0.74263483,-78.470894,-13.1778145,-101.56091
-0.9166664,4.799983,-0.8801368,-78.83014,-13.795008,-103.10667
-0.6255364,4.080787,-1.0291343,-78.882744,-14.006046,-103.00008
-0.37182516,3.3230832,-1.2142438,-78.12703,-13.879875,-101.69947
-0.17447968,2.5390055,-1.4162043,-74.97854,-13.463636,-99.34847
-0.03781046,1.8070999,-1.5722307,-70.45445,-13.063213,-96.430275
0.07574423,1.1662631,-1.674232,-65.44977,-12.872727,-92.97972
0.18033075,0.5987912,-1.7271005,-60.572834,-13.029152,-88.68972
0.27335423,0.08861069,-1.7441252,-55.971806,-13.303877,-83.51219
0.34830844,-0.37884346,-1.7384012,-50.89843,-13.383671,-77.819855
0.40897343,-0.7910597,-1.7099143,-45.256054,-13.356052,-72.16654
0.4781352,-1.1402622,-1.6486381,-39.47231,-13.264496,-66.609085
0.5674336,-1.4382974,-1.5499799,-34.040405,-13.191546,-60.70163
0.68105817,-1.6874785,-1.4156307,-28.94515,-13.004163,-54.299973
0.8184629,-1.86938,-1.2429613,-23.91056,-12.199367,-47.67994
0.9908134,-1.9433631,-1.0068809,-19.414217,-10.738957,-41.277237
1.1608896,-1.9409057,-0.7524522,-15.866563,-8.783797,-35.218227
1.3059044,-1.9049091,-0.52291876,-12.763922,-6.700493,-29.42277
1.4263519,-1.8418175,-0.30892715,-9.969466,-4.6925015,-23.969936
1.5360235,-1.7336147,-0.09001409,-7.7248425,-2.5574105,-18.774168
1.6273959,-1.5715488,0.12401305,-6.0356193,-0.21506134,-13.756925
1.6927891,-1.373088,0.31979245,-4.8314652,2.4317756,-8.985744
1.7313371,-1.147913,0.49059862,-3.9339418,5.255354,-4.67564
1.7343299,-0.91178286,0.6287739,-3.3296716,8.196399,-0.7364057
1.695111,-0.67636895,0.7413095,-3.129236,11.245603,2.8017855
1.6159507,-0.42430714,0.82742465,-3.2502024,14.309672,6.0554185
1.5123632,-0.16530554,0.88211405,-3.6048748,17.415104,8.855664
1.3996475,0.08751689,0.9004856,-4.1088924,20.58251,11.028079
1.2886685,0.32091403,0.8745105,-4.615133,23.839844,12.557976
1.175157,0.53015274,0.8002145,-5.2100453,27.118692,13.306386
1.0416301,0.6854481,0.647376,-5.577717,30.207876,13.578491
0.8999124,0.79831934,0.44518352,-5.8349686,32.72183,13.498422
0.76005924,0.877679,0.21204978,-5.9475327,34.561256,13.2166605
0.61985284,0.9300683,-0.04137874,-5.8869066,35.94616,12.758554
0.47651544,0.96839356,-0.3085178,-5.3513308,36.855778,12.088642
0.3229589,1.005596,-0.5918601,-4.6158943,37.286335,11.358541
0.15751162,1.0420321,-0.883512,-3.6888666,37.006386,10.582804
-0.015729811,1.0794653,-1.172567,-2.6567793,36.057465,9.710559
-0.19302219,1.1178966,-1.4557002,-1.6365155,34.49084,8.771717
-0.36999944,1.1540058,-1.7404795,-0.6414166,32.16248,7.672437
-0.5532653,1.1685568,-2.0535429,0.52576965,29.32417,6.3048115
-0.74388325,1.1572676,-2.399332,2.2832336,25.83777,4.7229924
-0.93769526,1.1320475,-2.758241,4.62241,21.381819,2.930967
-1.1065155,1.1125242,-3.085687,7.1784596,15.933116,1.1010138
-1.2211862,1.1129283,-3.3455255,9.559988,9.664706,-0.57983583
-1.255793,1.1242744,-3.5026395,11.7502575,3.322303,-2.3265102
-1.2467713,1.1214925,-3.5873559,14.252536,-3.0096316,-4.6013
-1.1826553,1.1128218,-3.5707746,17.12256,-9.350005,-7.2575026
-1.0322032,1.1254785,-3.4026587,19.183208,-15.77969,-9.642742
-0.7724796,1.1729903,-3.0482507,18.67992,-21.509884,-10.904417
-0.45674726,1.1809244,-2.544164,16.748735,-25.746138,-11.496713
-0.14294094,1.1141782,-2.0428095,14.54524,-28.469637,-11.989193
0.17305622,0.97565585,-1.5633962,12.545861,-30.103598,-12.303655
0.47639194,0.80608815,-1.103458,10.6480875,-30.839714,-12.067383
0.73494136,0.62647194,-0.6800849,9.046159,-30.769295,-11.567258
0.95153874,0.4303112,-0.30992332,7.9177675,-30.189548,-10.90149
1.1427972,0.22605415,0.016330568,7.277568,-29.166265,-9.928574
1.3115578,0.025777726,0.30276167,6.7956486,-27.716373,-8.189029
1.4446385,-0.16493896,0.5531752,6.3140564,-25.539415,-5.5580726
1.3989693,-0.15972477,0.53568774,6.1144505,-24.73204,-5.3823657
1.3547858,-0.15468019,0.51876915,5.9213386,-23.950932,-5.212375
1.3120359,-0.1497993,0.50239956,5.7344923,-23.195166,-5.0479
1.2706696,-0.14507638,0.48655972,5.5536933,-22.463861,-4.888748
1.230639,-0.14050595,0.47123134,5.378732,-21.756168,-4.734735
1.191898,-0.13608278,0.45639682,5.209408,-21.071278,-4.585684
1.1544026,-0.13180181,0.44203922,5.0455275,-20.408405,-4.441425
1.1181103,-0.1276582,0.42814234,4.886905,-19.766802,-4.301795
1.0829805,-0.12364732,0.41469055,4.733364,-19.14575,-4.166637
1.0489738,-0.11976467,0.40166888,4.5847316,-18.544556,-4.0358005
1.0160527,-0.116005965,0.38906285,4.440844,-17.962551,-3.9091406
0.9841809,-0.112367064,0.37685862,4.3015423,-17.399097,-3.7865176
0.9533235,-0.10884397,0.36504284,4.1666746,-16.853577,-3.6677973
0.92344683,-0.10543286,0.3536026,4.036093,-16.325394,-3.5528505
0.8945186,-0.102130026,0.34252548,3.9096568,-15.813978,-3.4415524
0.86650753,-0.098931916,0.3317996,3.7872293,-15.318777,-3.3337834
0.8393836,-0.09583509,0.3214134,3.6686792,-14.839259,-3.229427
0.81311774,-0.09283624,0.3113558,3.5538797,-14.374912,-3.1283727
0.7876821,-0.089932166,0.30161607,3.4427085,-13.925241,-3.0305119
0.7630496,-0.087119795,0.2921839,3.3350475,-13.489769,-2.9357414
0.7391942,-0.08439615,0.2830493,3.2307832,-13.068036,-2.8439608
0.7160908,-0.081758365,0.27420264,3.1298058,-12.659596,-2.755073
0.69371516,-0.079203665,0.26563463,3.032009,-12.264023,-2.6689856
0.6720438,-0.07672937,0.25733632,2.9372902,-11.880899,-2.5856075
0.6510541,-0.074332915,0.24929902,2.8455508,-11.509828,-2.504852
0.6307242,-0.07201178,0.24151438,2.756695,-11.15042,-2.4266353
0.6110329,-0.06976357,0.2339743,2.670631,-10.802303,-2.3508756
0.59195995,-0.067585945,0.22667094,2.587269,-10.4651165,-2.2774947
0.5734855,-0.06547666,0.21959677,2.5065231,-10.138512,-2.2064164
0.5555905,-0.063433535,0.2127445,2.42831,-9.82215,-2.1375675
0.5382565,-0.06145446,0.20610705,2.3525486,-9.515708,-2.0708773
0.5214658,-0.059537407,0.1996776,2.2791615,-9.218867,-2.0062768
0.505201,-0.057680402,0.19344954,2.2080731,-8.931326,-1.9437
0.48944548,-0.055881545,0.18741651,2.1392107,-8.652788,-1.8830825
0.4741831,-0.054138992,0.1815723,2.0725038,-8.382969,-1.8243624
0.4593983,-0.052450962,0.17591096,2.0078843,-8.121592,-1.7674797
0.445076,-0.05081574,0.17042671,1.9452858,-7.8683906,-1.7123762
0.43120152,-0.04923165,0.16511396,1.884645,-7.6231074,-1.6589959
0.4177608,-0.04769708,0.1599673,1.8258998,-7.3854923,-1.6072843
0.40474015,-0.046210468,0.15498148,1.7689908,-7.1553035,-1.557189
0.39212635,-0.04477031,0.15015146,1.7138598,-6.9323072,-1.5086589
0.3799066,-0.043375142,0.1454723,1.660451,-6.7162766,-1.4616448
0.36806846,-0.042023543,0.1409393,1.6087104,-6.5069933,-1.4160991
0.3566,-0.040714152,0.13654783,1.5585853,-6.304245,-1.3719754
0.34548953,-0.03944564,0.13229348,1.5100251,-6.107826,-1.3292294
0.3347259,-0.038216718,0.1281719,1.4629806,-5.917538,-1.2878176
0.32429817,-0.037026152,0.12417895,1.4174043,-5.733189,-1.2476981
0.3141958,-0.035872735,0.120310605,1.3732501,-5.5545917,-1.2088305
0.30440864,-0.0347553,0.11656294,1.3304735,-5.381567,-1.1711756
0.29492676,-0.033672724,0.11293218,1.2890313,-5.213939,-1.1346952
0.28574064,-0.032623917,0.10941466,1.2488816,-5.05154,-1.0993527
0.27684098,-0.031607814,0.106006846,1.2099841,-4.894205,-1.0651124
0.26821885,-0.030623397,0.10270529,1.1722995,-4.741776,-1.0319397
0.25986555,-0.029669674,0.099506676,1.1357898,-4.5941,-0.99980134
0.25177264,-0.028745683,0.09640778,1.1004183,-4.451028,-0.96866494
0.24393204,-0.027850496,0.093405485,1.0661496,-4.3124156,-0.93849915
0.23633583,-0.026983213,0.09049677,1.0329489,-4.178124,-0.9092736
0.22897637,-0.026142959,0.087678716,1.000783,-4.048018,-0.880959
0.22184625,-0.025328891,0.08494848,0.9696196,-3.9219663,-0.8535268
0.21493834,-0.024540193,0.08230333,0.9394273,-3.799843,-0.8269494
0.20824568,-0.023776071,0.079740606,0.9101758,-3.6815252,-0.8012002
0.20176156,-0.023035757,0.07725773,0.8818357,-3.5668938,-0.7762533
0.19547945,-0.02231851,0.07485221,0.85437864,-3.455834,-0.75208366
0.18939306,-0.021623608,0.072521634,0.82777697,-3.3482342,-0.72866696
0.18349628,-0.020950353,0.07026366,0.802004,-3.2439864,-0.7059798
0.17778319,-0.020298071,0.06807603,0.77703387,-3.142986,-0.6839994
0.17224805,-0.019666107,0.06595654,0.7528416,-3.0451317,-0.66270363
0.16688533,-0.01905383,0.06390306,0.72940284,-2.9503255,-0.64207125
0.16168965,-0.01846062,0.061913554,0.7066941,-2.8584723,-0.62208146
0.15665579,-0.017885888,0.059986006,0.68469274,-2.7694798,-0.60271424
0.1517787,-0.017329056,0.058118492,0.6633765,-2.683259,-0.5839503
0.14705351,-0.016789565,0.05630914,0.6427242,-2.5997233,-0.5657706
0.14247547,-0.016266877,0.054556135,0.62271506,-2.5187893,-0.54815716
0.13803999,-0.015760465,0.05285772,0.603329,-2.4403756,-0.5310922
0.13374265,-0.0152698215,0.051212195,0.5845466,-2.3644037,-0.5145587
0.12957911,-0.014794458,0.049617913,0.56634915,-2.2907977,-0.49853998
0.12554522,-0.014333896,0.048073273,0.54871833,-2.2194836,-0.4830201
0.12163694,-0.013887676,0.04657673,0.5316365,-2.1503901,-0.46798348
0.11785036,-0.01345535,0.04512679,0.51508653,-2.083448,-0.45341507
0.11418168,-0.013036485,0.043721993,0.49905187,-2.0185902,-0.43930027
0.11062723,-0.012630662,0.042360935,0.48351648,-1.955752,-0.42562494
0.10718345,-0.012237474,0.041042257,0.46846482,-1.8948703,-0.4123754
0.103846885,-0.011856529,0.039764635,0.45388177,-1.835884,-0.3995384
0.10061421,-0.011487444,0.038526792,0.4397528,-1.7787343,-0.38710105
0.09748218,-0.01112985,0.037327487,0.42606366,-1.7233639,-0.37505093
0.09444766,-0.010783389,0.03616552,0.41280073,-1.6697173,-0.363376
0.09150761,-0.010447715,0.03503973,0.39995074,-1.617741,-0.35206452
0.0886591,-0.010122491,0.033948988,0.3875008,-1.5673828,-0.34110522
0.08589927,-0.009807393,0.032892205,0.37543845,-1.5185925,-0.3304871
0.083225355,-0.009502104,0.03186832,0.36375162,-1.471321,-0.32019955
0.08063469,-0.009206318,0.030876312,0.35242864,-1.4255213,-0.31023225
0.07812467,-0.008919742,0.029915188,0.34145814,-1.3811473,-0.30057526
0.075692795,-0.008642087,0.028983982,0.33082917,-1.3381547,-0.2912189
0.07333662,-0.008373075,0.028081767,0.3205311,-1.2965004,-0.28215382
0.0710538,-0.008112438,0.027207637,0.3105536,-1.256143,-0.27337095
0.068842046,-0.007859915,0.02636072,0.30088672,-1.2170419,-0.26486146
0.06669914,-0.007615253,0.025540167,0.29152077,-1.179158,-0.25661692
0.064622946,-0.007378207,0.02474516,0.28244638,-1.1424534,-0.24862899
0.06261138,-0.00714854,0.0239749,0.27365446,-1.1068915,-0.24088974
0.060662434,-0.006926023,0.023228617,0.26513624,-1.0724366,-0.23339142
0.05877416,-0.0067104325,0.022505566,0.2568832,-1.0390542,-0.22612649
0.056944665,-0.006501553,0.021805024,0.24888706,-1.006711,-0.21908773
0.05517212,-0.0062991763,0.021126287,0.24113983,-0.9753746,-0.21226808
0.053454753,-0.006103099,0.02046868,0.23363376,-0.94501364,-0.20566072
