ax,ay,az,gx,gy,gz
-3.2627568,0.38273075,-4.0018544,8.156438,-72.8543,-11.041919
-3.0351217,0.17511944,-3.9371243,5.6371484,-82.28677,-10.957147
-2.6773376,0.33052367,-3.8756826,1.625965,-82.42129,-8.599604
-2.315919,0.40530658,-3.898038,0.15198681,-79.501884,-11.365293
-2.2016935,0.24601866,-4.0655446,-0.1670574,-75.436775,-13.44624
-2.2451026,0.015984591,-4.319316,0.08284187,-73.05343,-13.513886
-2.3248725,-0.20823772,-4.546921,0.28011352,-73.568184,-11.855126
-2.3857107,-0.4159332,-4.7097936,0.60544765,-76.09668,-10.096922
-2.4139621,-0.56074446,-4.801668,1.1000684,-78.98717,-8.810785
-2.4078536,-0.6157806,-4.840413,1.1248161,-81.6911,-7.6023173
-2.3689716,-0.5963065,-4.8232117,0.42209727,-84.142365,-6.4775743
-2.317799,-0.52718526,-4.768831,-0.976177,-86.42143,-5.688103
-2.270116,-0.45999095,-4.721386,-2.5810943,-88.97101,-4.96788
-2.2085476,-0.42545804,-4.701012,-3.8489952,-91.854485,-4.242083
-2.1494784,-0.43532297,-4.6711073,-4.819567,-94.913994,-3.5366118
-2.0905087,-0.4538992,-4.6240034,-5.7588544,-98.11897,-2.6875591
-2.0202823,-0.45695755,-4.562774,-6.8130465,-101.44251,-1.7482961
-1.9162873,-0.43008605,-4.478708,-8.2214155,-104.91173,-0.80174035
-1.7836107,-0.37954947,-4.3636637,-10.044652,-108.27645,0.03538423
-1.6334,-0.34716278,-4.2214274,-12.313778,-111.27276,0.85056776
-1.4839418,-0.3529574,-4.0722365,-14.3414755,-113.96183,1.4706378
-1.3269641,-0.37138212,-3.9123373,-15.747894,-116.317894,1.7965536
-1.160279,-0.38974974,-3.734079,-16.545063,-118.48343,1.8350577
-0.96004194,-0.42461094,-3.509628,-16.940487,-120.3807,1.8497256
-0.732933,-0.46187246,-3.257615,-16.962023,-121.83159,1.9269257
-0.4842328,-0.49178365,-2.9803166,-16.908764,-122.72987,2.2210903
-0.23211545,-0.52457315,-2.6858249,-16.820747,-123.07118,2.6927004
0.017512146,-0.5591774,-2.3789637,-16.19338,-122.594765,3.1167154
0.263428,-0.5717875,-2.0578809,-15.335703,-121.41043,3.4267015
0.4922412,-0.57251394,-1.7389908,-14.397389,-119.521774,3.6736088
0.69520575,-0.5735694,-1.4364966,-13.290518,-117.165276,3.8551466
0.87992585,-0.56756496,-1.142457,-12.029542,-114.39711,4.105582
1.0613024,-0.54312974,-0.8498876,-10.764027,-111.01087,4.3565283
1.2410529,-0.5098674,-0.5556209,-9.493317,-107.076675,4.528783
1.4080421,-0.46385288,-0.2701583,-8.273685,-102.55096,4.5923257
1.556833,-0.40061018,-0.0029844348,-7.32072,-97.516335,4.640851
1.685095,-0.33080482,0.23620357,-6.72987,-92.11283,4.7307982
1.7966454,-0.27965054,0.43661934,-6.2274523,-86.42366,4.985119
1.9081473,-0.26384735,0.6130496,-5.68832,-80.48509,5.157281
2.0273464,-0.28045377,0.7743393,-5.0361953,-74.02926,5.145021
2.1355162,-0.3141448,0.90828794,-4.420728,-67.20999,5.14216
2.224709,-0.3377069,1.010797,-3.9972444,-60.25391,5.461263
2.292781,-0.35037664,1.0866536,-3.2560604,-53.201813,5.499303
2.3332791,-0.35540703,1.1278263,-2.090688,-46.145866,5.128812
2.3440497,-0.35000265,1.1339226,-1.043366,-39.24341,4.842476
2.3256304,-0.3439908,1.1058127,-0.09085841,-32.63243,4.708151
2.2906096,-0.33460277,1.0560817,0.8286764,-26.441599,4.674147
2.2517636,-0.31770757,1.0001733,1.8574169,-20.55456,4.484544
2.2115402,-0.2907148,0.9452073,2.7513232,-14.807456,4.1610036
2.1673782,-0.25993916,0.88234127,3.4713087,-9.129925,3.7426217
2.1162348,-0.22358319,0.80431855,3.7577105,-3.6282644,3.2684963
2.0599775,-0.18782032,0.7141945,3.6315951,1.5552267,2.902757
1.9988431,-0.16764839,0.61249655,3.4837818,6.3051505,2.650808
1.9326888,-0.16829208,0.5031456,3.5668461,10.756758,2.304816
1.8757858,-0.16811676,0.40008062,3.8085837,15.058988,1.7998242
1.8238157,-0.16652885,0.29750964,4.0978217,19.235083,1.2348462
1.7715373,-0.160724,0.19456811,4.382531,23.276966,0.6061882
1.7167562,-0.13743153,0.093477994,4.6409607,27.124796,-0.2897952
1.6536467,-0.101676986,-0.017908,4.983861,30.615442,-1.2494036
1.578415,-0.058919415,-0.13048261,5.254936,33.562584,-2.2425027
1.5010288,-0.008054778,-0.24746813,5.4133544,36.0866,-3.1986024
1.4308547,0.051590867,-0.36363053,5.43573,38.233566,-4.1904335
1.3655766,0.11239461,-0.4816362,5.2580853,39.99421,-5.4101405
1.3003932,0.1666161,-0.60294944,4.799252,41.47758,-6.7589297
1.2276024,0.2116081,-0.73657084,4.0223317,42.53494,-8.094809
1.1428471,0.24950941,-0.88146085,3.034806,43.02117,-9.381169
1.0589824,0.28291917,-1.028194,1.8675915,42.988186,-10.721636
0.9758069,0.30189228,-1.1679875,0.73589885,42.331505,-12.212098
0.8847283,0.2977439,-1.2963432,-0.2642097,41.386948,-13.74214
0.79213744,0.28946146,-1.4112526,-1.25225,40.26772,-15.195666
0.6934935,0.27597857,-1.5229385,-2.2248516,38.882603,-16.602709
0.5818434,0.25184637,-1.6382313,-3.2583408,36.982605,-17.887388
0.46156338,0.20980866,-1.7474267,-4.141383,34.300404,-19.218735
0.34616488,0.15018977,-1.8345037,-4.8095193,31.20129,-20.643684
0.24241093,0.09132417,-1.9009819,-5.1869583,27.807539,-22.396969
0.15676686,0.024068534,-1.9424373,-5.3318615,24.215828,-24.455976
0.10081942,-0.07336455,-1.9475764,-5.338884,20.776003,-26.034914
0.061662354,-0.17833452,-1.9274715,-5.151001,17.407627,-26.78564
0.04535921,-0.27567032,-1.8746655,-4.818982,14.206316,-27.018969
0.04150143,-0.37196827,-1.8048408,-4.5284805,11.149003,-26.659737
0.042745773,-0.47422987,-1.7280716,-4.358913,8.217343,-25.75641
0.04561849,-0.58764637,-1.645339,-4.044931,5.4800525,-24.34803
0.05094699,-0.69710183,-1.560925,-3.4414947,2.9267478,-22.462685
0.059279762,-0.81417423,-1.4719889,-2.3086376,0.6319293,-20.530382
0.08132708,-0.92256415,-1.3771667,-0.6808641,-1.2269713,-18.531464
0.10763083,-1.0195127,-1.2816398,1.3337553,-2.7236054,-16.43355
0.13773976,-1.0708723,-1.1807512,3.621193,-3.8679132,-14.103798
0.16795556,-1.0757071,-1.0757067,5.607896,-4.719188,-11.461561
0.19435653,-1.0505395,-0.9741622,7.286404,-5.3194747,-8.790515
0.21271028,-1.016864,-0.8854351,8.643766,-5.7514744,-6.168012
0.21923524,-0.97526675,-0.8136214,9.95422,-6.139155,-3.825675
0.21252666,-0.9170142,-0.75219494,11.37985,-6.583372,-1.9245737
0.20781478,-0.8361904,-0.6855143,12.473756,-6.965753,-0.238441
0.208509,-0.7336725,-0.61255705,13.252303,-7.1966004,1.2835745
0.21112074,-0.6195673,-0.5405605,13.851588,-7.2559543,2.4462643
0.21258675,-0.49752566,-0.47202572,14.134176,-7.141656,3.3489265
0.20953587,-0.37605163,-0.41521966,14.033847,-7.0061717,4.110532
0.20239303,-0.27247155,-0.3684556,13.600941,-6.8539557,4.756552
0.19144431,-0.19443314,-0.33450714,13.063433,-6.685567,5.138123
0.18380797,-0.12737948,-0.30687553,12.46465,-6.4919577,5.364669
0.17716141,-0.074084714,-0.2829552,11.768422,-6.2605877,5.5878987
0.17206651,-0.028429436,-0.25603965,11.137922,-6.028871,5.668809
0.17818356,0.01519838,-0.22369444,10.439594,-5.6596355,5.693822
0.192474,0.05430373,-0.18490458,9.59551,-5.120981,5.7332826
0.21171512,0.086345844,-0.13987304,8.6865015,-4.349715,5.714361
0.23615666,0.11173502,-0.09250948,7.6650577,-3.3474236,5.5855713
0.25761682,0.12587652,-0.04619402,6.4300056,-2.1099577,5.483657
0.26882768,0.12581798,-0.0044494276,5.243171,-0.7304037,5.400191
0.28102854,0.12145698,0.03926255,4.162039,0.74301934,5.326949
0.2937518,0.11841762,0.08519228,3.0766802,2.3758888,5.244587
0.30099398,0.11023466,0.12893598,2.069075,4.075644,5.18002
0.2962237,0.09276682,0.16177,1.3366036,5.6879478,5.172661
0.27610803,0.067957774,0.18537761,1.0494514,7.0500097,5.140778
0.26750085,0.06583931,0.1795988,1.0167365,6.8302383,4.9805236
0.25916275,0.06378707,0.17400064,0.9850444,6.617337,4.8252788
0.25108525,0.061798975,0.16857743,0.95434284,6.41109,4.6748857
0.24326013,0.059873,0.16332369,0.9246006,6.211287,4.529192
0.23567945,0.05800719,0.15823406,0.8957874,6.0177255,4.3880496
0.22833553,0.056199647,0.15330338,0.8678741,5.8302097,4.251315
0.22122093,0.05444855,0.14852667,0.8408324,5.6485486,4.11885
0.21432844,0.052752115,0.14389908,0.8146349,5.472559,3.9905212
0.20765108,0.051108636,0.13941595,0.7892552,5.302063,3.8661973
0.20118213,0.049516447,0.13507271,0.7646675,5.1368876,3.7457535
0.19491501,0.04797394,0.13086501,0.740847,4.9768662,3.629068
0.18884343,0.046479557,0.12678857,0.7177697,4.821837,3.516023
0.18296124,0.045031786,0.1228393,0.6954122,4.671644,3.406504
0.17726251,0.043629173,0.119013205,0.6737521,4.526136,3.300401
0.17174152,0.042270303,0.11530643,0.6527675,4.385165,3.197607
0.16639267,0.040953808,0.11171524,0.6324372,4.2485905,3.0980184
0.1612106,0.039678358,0.10823602,0.6127408,4.116274,3.001535
0.15619008,0.03844267,0.104865275,0.5936585,3.9880824,2.9080594
0.15132608,0.037245505,0.1015996,0.575171,3.863887,2.8174977
0.14661367,0.03608565,0.098435715,0.5572598,3.743563,2.7297587
0.14204814,0.03496195,0.09537044,0.5399068,3.626989,2.6447544
0.13762489,0.033873267,0.0924007,0.5230946,3.5140479,2.5623994
0.1333395,0.03281851,0.089523494,0.5068063,3.4046264,2.4826107
0.12918763,0.031796623,0.08673595,0.49102563,3.2986145,2.4053082
0.12516512,0.030806575,0.08403526,0.4757366,3.195906,2.3304143
0.121267945,0.029847372,0.081418715,0.4609239,3.0963972,2.2578537
0.11749218,0.028918052,0.078883685,0.44657272,2.9999888,2.187554
0.11383404,0.028017685,0.07642763,0.43266863,2.9065835,2.1194441
0.11028986,0.027145363,0.07404809,0.41919762,2.8160882,2.053456
0.10685608,0.026300216,0.07174266,0.40614626,2.7284117,1.9895234
0.10352925,0.025481394,0.069509044,0.39350143,2.643466,1.9275821
0.10030605,0.024688074,0.067345,0.38125044,2.5611663,1.8675702
0.097183235,0.023919463,0.065248355,0.369381,2.4814298,1.8094274
0.09415767,0.02317479,0.063217014,0.35788128,2.4041767,1.7530954
0.09122635,0.02245331,0.061248932,0.34673965,2.3293297,1.6985178
0.088386305,0.021754298,0.059342142,0.33594504,2.2568133,1.6456398
0.08563471,0.021077054,0.057494733,0.32548654,2.1865554,1.5944086
0.082968794,0.0204209,0.05570485,0.31535375,2.1184852,1.5447727
0.0803859,0.019785179,0.05397071,0.3055365,2.0525348,1.4966825
0.07788343,0.019169252,0.052290563,0.29602495,1.988638,1.4500898
0.075458884,0.018572506,0.050662737,0.28680956,1.9267309,1.4049479
0.073109835,0.017994339,0.049085595,0.27788112,1.8667514,1.3612115
0.07083393,0.017434176,0.04755756,0.2692307,1.8086394,1.318837
0.068628885,0.016891453,0.046077102,0.2608496,1.7523369,1.277782
0.06649249,0.016365629,0.044642743,0.25272945,1.6977873,1.238005
0.06442262,0.015856177,0.043253038,0.24486212,1.6449362,1.1994667
0.06241719,0.015362585,0.041906603,0.23723975,1.5937304,1.1621282
0.0604742,0.014884362,0.040602088,0.22985469,1.5441191,1.1259521
0.0585917,0.014421027,0.039338186,0.22269955,1.4960523,1.0909024
0.05676781,0.013972118,0.038113635,0.21576717,1.449482,1.0569439
0.0550007,0.013537183,0.03692721,0.20905063,1.4043615,1.0240426
0.05328861,0.013115791,0.035777718,0.20254317,1.3606457,0.9921656
0.051629815,0.012707516,0.034664012,0.19623831,1.3182908,0.96128106
0.050022665,0.012311952,0.03358498,0.19012974,1.2772546,0.931358
0.048465546,0.011928702,0.032539535,0.18421133,1.2374959,0.9023664
0.0469569,0.011557383,0.03152664,0.17847717,1.198975,0.8742774
0.045495223,0.011197625,0.030545276,0.17292152,1.1616532,0.8470628
0.04407905,0.010849065,0.029594462,0.16753882,1.1254932,0.82069546
0.04270696,0.010511356,0.028673248,0.16232368,1.090459,0.7951489
0.041377585,0.01018416,0.027780712,0.1572709,1.0565153,0.77039766
0.040089592,0.00986715,0.02691596,0.1523754,1.0236284,0.74641687
0.038841695,0.0095600085,0.02607813,0.14763232,0.99176514,0.7231826
0.037632644,0.009262428,0.025266377,0.14303686,0.9608938,0.7006717
0.03646123,0.008974111,0.024479896,0.13858446,0.93098354,0.67886144
0.035326283,0.008694769,0.023717897,0.13427068,0.9020043,0.65773016
0.034226663,0.008424122,0.022979619,0.13009116,0.8739272,0.6372567
0.033161275,0.008161901,0.022264322,0.12604176,0.84672403,0.6174205
