ax,ay,az,gx,gy,gz
-2.8100257,-0.83546215,-9.05281,112.0283,-109.64191,-38.674896
-2.150583,-2.3413541,-8.610739,130.33592,-123.88069,-60.55431
-1.1152942,-3.432571,-8.237244,119.0846,-121.81641,-47.415253
-0.20967875,-3.8057628,-8.056272,107.07003,-121.89342,-34.582375
0.7239186,-4.4494276,-7.7478256,102.490906,-117.20767,-27.518087
1.4466265,-5.4173074,-7.5941143,106.023964,-109.750084,-23.762114
2.0145917,-6.418495,-7.5305843,115.431404,-102.96268,-19.83924
2.6135654,-7.118265,-7.4032116,123.49847,-97.28728,-9.791108
3.2579236,-7.496659,-7.1121187,126.56301,-91.832375,4.9168253
3.7503736,-7.661113,-6.817599,126.83898,-86.21417,20.74977
4.1035724,-7.6749067,-6.544526,127.72071,-80.9678,34.70368
4.331312,-7.491064,-6.2234745,130.27853,-76.31115,46.70545
4.495067,-7.0144696,-5.765205,132.53181,-71.17215,57.30253
4.6163797,-6.3369756,-5.212052,132.67657,-65.53123,67.35634
4.6719193,-5.612636,-4.685936,130.76607,-59.522064,77.57153
4.6701856,-4.7777643,-4.1791153,128.06516,-53.870125,86.0485
4.6479836,-3.8329568,-3.6645422,125.2275,-48.547318,91.944016
4.6095843,-2.829701,-3.1615453,120.54471,-43.36958,95.31559
4.532243,-1.908824,-2.7441926,113.98985,-38.415127,97.93309
4.410225,-1.106404,-2.4381382,106.4697,-33.949932,100.00147
4.261958,-0.36634544,-2.2124982,98.993904,-29.957756,101.05288
4.11676,0.3668372,-2.0313606,92.01012,-26.109951,100.60737
3.9726915,1.1013129,-1.9050462,84.784546,-22.339151,98.012245
3.8126447,1.7468574,-1.8875464,77.63564,-18.873446,94.22875
3.6317532,2.2903478,-1.9543306,71.08235,-16.177423,89.55859
3.4425027,2.7634633,-2.0756903,65.24988,-14.523844,83.91002
3.2642176,3.1705778,-2.2215922,60.06379,-13.878117,77.48523
3.1016212,3.5307074,-2.3773327,55.24819,-14.443755,70.13317
2.9585793,3.8233392,-2.5418224,50.458748,-15.803595,62.636776
2.8452365,4.0620317,-2.7013197,45.69656,-17.818188,55.08607
2.7664554,4.2549,-2.8464656,40.899654,-20.191917,47.498894
2.7156162,4.4057384,-2.9777098,36.11874,-22.780113,39.841824
2.6785724,4.5245304,-3.0960224,31.615026,-25.771814,31.908613
2.6582568,4.6258574,-3.1908677,27.189806,-28.892956,23.97966
2.6503632,4.7401934,-3.2654364,22.666138,-32.1607,16.041765
2.655904,4.860898,-3.317252,17.675566,-35.579346,8.19281
2.6859388,4.9753146,-3.3441718,11.854494,-39.16228,0.7843254
2.759376,5.075309,-3.3436422,4.2469454,-42.824078,-5.818746
2.8920624,5.124187,-3.29399,-4.3702493,-46.007366,-11.950604
3.0727315,5.10129,-3.1829767,-13.586233,-48.50523,-18.21795
3.367926,4.9164133,-2.9840636,-22.417543,-50.006344,-24.881712
3.8032594,4.535269,-2.695084,-30.473873,-50.09981,-31.38934
4.3578424,3.9705322,-2.34094,-37.735424,-47.86033,-36.57816
4.9425263,3.1662066,-1.9729657,-43.829258,-43.27685,-39.791573
5.356394,2.289146,-1.6806391,-48.338734,-37.090057,-40.86412
5.580656,1.4533362,-1.465098,-50.847862,-30.33544,-40.080402
5.6699605,0.74267554,-1.2982445,-51.585022,-23.38757,-37.978607
5.6755524,0.17543472,-1.1772333,-50.60287,-16.049904,-34.83385
5.587434,-0.2486801,-1.1251974,-48.629967,-8.664655,-31.365469
5.4554286,-0.59133005,-1.1191556,-45.911335,-1.560584,-27.460806
5.31177,-0.8512214,-1.1427258,-42.689255,5.0793943,-23.21829
5.1652803,-1.041375,-1.191903,-39.095417,11.18333,-18.94439
5.0114307,-1.1841781,-1.2651013,-35.248734,16.731012,-14.796242
4.8410783,-1.2718194,-1.3720043,-31.361898,21.712866,-10.895385
4.667056,-1.3221132,-1.4974254,-27.441675,26.129316,-7.1618195
4.4844575,-1.3375541,-1.6382943,-23.665766,29.825264,-3.4972188
4.303946,-1.3245798,-1.7839577,-20.252321,32.894714,0.17023124
4.1379533,-1.2813334,-1.9254395,-17.226229,35.843266,3.621173
3.9702623,-1.2011842,-2.0904715,-14.392304,38.33924,6.382199
3.7898004,-1.1086063,-2.2730267,-12.094479,40.03279,8.663396
3.6084259,-0.9990888,-2.456291,-9.865756,41.04014,10.471607
3.4358628,-0.86580247,-2.643669,-7.9029264,41.58509,11.734022
3.2696223,-0.7312682,-2.854685,-7.0360255,40.817112,12.623159
3.1450765,-0.63191617,-3.0736957,-6.7501183,39.28846,13.4658165
3.0545034,-0.56448156,-3.2939706,-6.6291714,37.079807,14.257953
2.9919066,-0.51562816,-3.504575,-6.4065213,34.491886,15.123006
2.9625857,-0.46167123,-3.701107,-6.072116,31.753195,15.933243
2.95169,-0.3934774,-3.9118268,-6.059444,28.45289,16.747368
2.9428532,-0.35568053,-4.1501474,-5.8931966,24.63976,17.530231
2.9268188,-0.34051254,-4.408873,-5.279049,20.053093,18.29079
2.9160628,-0.34657764,-4.6713324,-4.353051,14.977958,19.113441
2.900322,-0.36566842,-4.9466715,-3.0987763,9.405587,19.83312
2.8603332,-0.38050818,-5.2609534,-2.1417751,2.139379,20.19953
2.8588638,-0.47785833,-5.602974,-1.6712208,-6.560009,20.6526
2.9436727,-0.67813754,-5.9056993,-1.4307384,-16.20934,22.183247
3.1394384,-0.92471015,-6.1141853,-0.811836,-26.236328,25.203173
3.4195778,-1.1193599,-6.184265,1.2726177,-35.608177,28.687983
3.7199128,-1.2165606,-6.0915613,5.2728224,-43.69781,31.704748
4.0259333,-1.1038924,-5.724783,9.7056055,-50.536957,34.390568
4.3332105,-0.7829059,-5.1686296,12.976934,-55.87124,36.598827
4.6016145,-0.35153034,-4.5030656,14.042923,-59.798813,38.324314
4.803825,0.040794514,-3.8070958,13.026331,-62.50465,40.046093
4.947596,0.37234282,-3.12268,10.692629,-63.779427,41.47824
5.0652504,0.66197157,-2.482044,8.005907,-63.961784,42.5747
5.170716,0.9142038,-1.8998178,5.3131795,-62.930183,43.51715
5.2591186,1.1152579,-1.3894007,2.9384754,-60.595703,44.207153
5.297121,1.2613741,-0.9590808,1.0973752,-57.73044,44.24682
5.3127384,1.3747587,-0.58645463,-0.7309986,-53.325283,43.92721
5.319143,1.4578214,-0.28046247,-2.3576448,-48.10926,43.307755
5.152444,1.412134,-0.27167293,-2.2837574,-46.60154,41.950512
4.9910364,1.367897,-0.2631624,-2.2122157,-45.14168,40.636356
4.8347464,1.3250625,-0.2549217,-2.142942,-43.72811,39.363865
4.6834064,1.2835846,-0.24694198,-2.0758624,-42.359306,38.13167
4.536854,1.2434189,-0.23921472,-2.0109048,-41.03381,36.938465
4.3949337,1.2045227,-0.23173168,-1.9480004,-39.750202,35.782967
4.257495,1.1668547,-0.22448495,-1.8870823,-38.50713,34.66396
4.1243916,1.1303751,-0.21746683,-1.828086,-37.303272,33.58025
3.9954846,1.0950454,-0.21066993,-1.7709496,-36.137367,32.530704
3.870638,1.0608286,-0.20408714,-1.7156128,-35.008183,31.514221
3.7497208,1.0276887,-0.19771154,-1.6620177,-33.914543,30.52973
3.632607,0.9955913,-0.19153649,-1.6101085,-32.8553,29.576204
3.5191748,0.9645028,-0.18555555,-1.559831,-31.829355,28.652655
3.4093058,0.934391,-0.17976248,-1.5111331,-30.835642,27.758116
3.3028867,0.9052246,-0.17415132,-1.463964,-29.873129,26.891666
3.1998072,0.8769735,-0.16871624,-1.4182752,-28.940819,26.052404
3.0999606,0.8496085,-0.16345164,-1.3740195,-28.037752,25.239468
3.0032444,0.8231014,-0.15835208,-1.3311512,-27.162998,24.452019
2.909559,0.79742503,-0.15341233,-1.2896264,-26.315657,23.689243
2.8188083,0.7725529,-0.14862733,-1.2494022,-25.494856,22.950363
2.730899,0.7484596,-0.14399213,-1.2104375,-24.699757,22.23462
2.6457417,0.72512037,-0.13950203,-1.1726925,-23.929546,21.541277
2.5632486,0.7025115,-0.13515243,-1.1361285,-23.183434,20.86963
2.4833362,0.68060976,-0.13093887,-1.1007082,-22.46066,20.218994
2.4059227,0.65939295,-0.12685709,-1.0663956,-21.76049,19.588703
2.330929,0.6388394,-0.12290291,-1.0331557,-21.082207,18.978115
2.2582793,0.61892825,-0.1190723,-1.0009546,-20.425123,18.38661
2.1878996,0.59963924,-0.11536139,-0.96975964,-19.78857,17.81359
2.1197183,0.5809528,-0.111766405,-0.9395392,-19.171902,17.258467
2.0536666,0.56284994,-0.10828369,-0.9102626,-18.574493,16.720682
1.9896774,0.54531235,-0.10490973,-0.88190013,-17.995739,16.19969
1.9276859,0.5283223,-0.101641096,-0.8544231,-17.435053,15.6949625
1.8676293,0.5118625,-0.098474495,-0.82780373,-16.891869,15.20599
1.8094469,0.49591646,-0.09540672,-0.8020151,-16.365635,14.732277
1.75308,0.48046795,-0.09243466,-0.77703124,-15.855823,14.273345
1.6984718,0.4655014,-0.08955533,-0.75282675,-15.361915,13.828732
1.6455669,0.45100173,-0.08676581,-0.7293773,-14.883414,13.397987
1.5943122,0.43695432,-0.08406331,-0.7066593,-14.419838,12.980679
1.5446559,0.42334497,-0.081445076,-0.68464977,-13.970719,12.576384
1.4965479,0.41016,-0.078908496,-0.66332656,-13.5356045,12.184695
1.4499401,0.39738613,-0.076450996,-0.6426681,-13.114057,11.80522
1.4047852,0.3850105,-0.07407011,-0.6226538,-12.705651,11.437574
1.3610379,0.37302065,-0.07176345,-0.6032633,-12.309977,11.08139
1.3186542,0.36140454,-0.069528684,-0.5844773,-11.926636,10.736307
1.2775915,0.35015044,-0.067363575,-0.5662768,-11.555242,10.40198
1.2378085,0.3392471,-0.06526594,-0.54864347,-11.195422,10.078073
1.1992652,0.32868353,-0.063233666,-0.53155965,-10.846816,9.764258
1.161923,0.3184491,-0.061264724,-0.51500815,-10.509072,9.460223
1.1257443,0.30853358,-0.05935713,-0.4989724,-10.181852,9.165661
1.0906929,0.298927,-0.057508968,-0.48343623,-9.864827,8.880277
1.0567334,0.28961968,-0.055718385,-0.4683841,-9.557679,8.603783
1.0238318,0.28060234,-0.053983584,-0.4538009,-9.260099,8.335903
0.99195516,0.27186587,-0.052302822,-0.43967196,-8.971789,8.076367
0.9610715,0.26340157,-0.05067442,-0.42598313,-8.69246,7.8249164
0.9311498,0.2552009,-0.049096737,-0.4127207,-8.421832,7.581298
0.90216005,0.24725567,-0.047568195,-0.39987138,-8.159633,7.3452673
0.8740732,0.23955789,-0.04608726,-0.38742223,-7.9055996,7.116588
0.8468611,0.23209985,-0.04465245,-0.3753608,-7.6594787,6.895031
0.8204965,0.22487408,-0.04326232,-0.36367503,-7.421023,6.6803737
0.794953,0.21787335,-0.041915487,-0.35235316,-7.189993,6.4724016
0.7702049,0.21109062,-0.040610597,-0.34138387,-6.9661574,6.270906
0.7462275,0.20451912,-0.03934634,-0.3307562,-6.749293,6.075685
0.7229967,0.19815224,-0.03812145,-0.32045943,-6.5391808,5.8865433
0.70048934,0.19198364,-0.036934704,-0.3104833,-6.335612,5.7032914
0.6786828,0.1860071,-0.03578491,-0.30081785,-6.1383815,5.5257454
0.6575553,0.18021667,-0.03467092,-0.2914533,-5.9472923,5.353728
0.6370856,0.17460652,-0.033591613,-0.28238037,-5.762153,5.1870666
0.61725324,0.16917105,-0.032545913,-0.27358994,-5.5827785,5.025594
0.5980384,0.16390483,-0.031532772,-0.26507318,-5.408989,4.869149
0.5794218,0.15880257,-0.030551177,-0.2568216,-5.24061,4.7175756
0.56138486,0.15385915,-0.02960014,-0.24882694,-5.0774736,4.5707207
0.54390943,0.14906965,-0.028678715,-0.24108118,-4.9194164,4.428438
0.5269781,0.14442928,-0.027785975,-0.23357658,-4.76628,4.2905855
0.51057386,0.13993336,-0.026921032,-0.2263056,-4.617912,4.157025
0.49468037,0.13557741,-0.026083015,-0.219261,-4.474162,4.027622
0.4792817,0.13135709,-0.025271088,-0.21243572,-4.3348875,3.902248
0.46436238,0.12726814,-0.024484437,-0.20582293,-4.1999493,3.780777
0.44990754,0.12330649,-0.023722276,-0.199416,-4.069212,3.6630876
0.4359027,0.119468175,-0.022983843,-0.19320853,-3.9425442,3.549062
0.42233387,0.11574935,-0.0222684,-0.1871943,-3.8198202,3.4385862
0.4091874,0.112146296,-0.021575227,-0.18136731,-3.7009165,3.3315496
0.39645022,0.10865541,-0.020903634,-0.1757217,-3.5857143,3.2278452
0.38410956,0.105273195,-0.020252947,-0.17025185,-3.4740987,3.1273692
0.37215307,0.101996265,-0.019622516,-0.16495228,-3.3659575,3.030021
0.36056876,0.09882135,-0.019011712,-0.15981768,-3.2611825,2.935703
0.3493451,0.095745265,-0.01841992,-0.15484293,-3.1596694,2.8443213
0.3384708,0.092764944,-0.01784655,-0.15002303,-3.0613165,2.7557843
0.327935,0.08987739,-0.01729103,-0.14535317,-2.966025,2.6700034
0.3177272,0.087079726,-0.016752804,-0.14082868,-2.8737,2.5868928
0.30783716,0.08436915,-0.01623133,-0.13644505,-2.7842488,2.5063694
0.29825497,0.08174296,-0.015726091,-0.13219786,-2.6975822,2.4283524
