ax,ay,az,gx,gy,gz
-1.0136455,-2.0572915,-2.9100263,2.7745707,-73.13158,-5.0491366
-0.9523502,-2.6112838,-3.117277,6.6579814,-68.73494,-17.969427
-0.6507232,-3.335407,-3.2325578,16.834158,-59.796837,-29.875046
-0.24661359,-3.9492848,-3.3349955,25.787224,-48.998165,-35.247093
-0.07621585,-4.477619,-3.6542406,32.70578,-46.32718,-34.374184
0.20564918,-5.158011,-3.8857212,36.959736,-46.08454,-28.05939
0.5649438,-5.8095593,-4.079727,38.90629,-44.533443,-19.968983
0.89984983,-6.436058,-4.364394,41.86354,-42.756855,-12.673464
1.2306218,-6.9890714,-4.694093,46.475502,-40.852497,-6.596265
1.5932177,-7.426496,-4.985128,52.94525,-38.151962,0.5669944
1.8886935,-7.675588,-5.2525363,59.4897,-35.663662,8.786133
2.077223,-7.8244104,-5.474076,64.549934,-34.321163,18.745771
2.2199013,-7.8753633,-5.6287107,68.65718,-33.67373,30.03811
2.349635,-7.770534,-5.6860886,72.45174,-33.35889,40.924515
2.484971,-7.467144,-5.5875335,74.57875,-33.87858,50.458195
2.64747,-7.1539145,-5.2652464,76.44926,-34.20086,59.099358
2.848803,-6.8493643,-4.848326,79.2956,-33.291397,67.66689
3.05307,-6.3618474,-4.3707604,82.81243,-31.656906,75.65105
3.272617,-5.5704274,-3.792856,85.500275,-29.148165,82.55871
3.474975,-4.5229044,-3.154167,83.5907,-26.544888,87.786514
3.6351066,-3.516724,-2.5285227,79.112076,-23.209732,91.95734
3.6801453,-2.6647353,-2.0516376,73.45459,-19.50936,95.10056
3.6238723,-1.9000885,-1.7238079,67.80514,-15.812589,97.55316
3.4978373,-1.119905,-1.5224729,62.331642,-12.5370455,98.748116
3.3441343,-0.38798347,-1.4274474,57.469448,-9.985086,98.01386
3.1906788,0.26947105,-1.423827,53.14123,-7.904633,96.10731
3.0412033,0.8793874,-1.4782276,48.9813,-6.5978274,93.307915
2.896032,1.4363457,-1.5713255,44.84938,-6.0443354,89.75811
2.7506902,1.914986,-1.6913737,41.298878,-6.2203665,85.48802
2.6061115,2.309174,-1.8239635,38.796,-7.341126,80.290695
2.4729993,2.6527035,-1.9470088,37.105858,-8.761031,74.374504
2.3637898,2.9838436,-2.054509,36.234306,-10.585041,67.67523
2.283557,3.3154209,-2.1381319,35.306934,-12.635858,60.638428
2.2377079,3.6307173,-2.2032225,33.747356,-14.918199,53.40284
2.2310784,3.8863027,-2.2535055,31.014587,-17.372845,46.090534
2.242568,4.0334744,-2.3123672,28.199076,-20.153826,38.764584
2.2741282,4.1143966,-2.3583074,25.41962,-23.119785,31.527178
2.3271909,4.157359,-2.3880062,22.697344,-26.019375,24.429836
2.3911505,4.183213,-2.3998313,19.871532,-28.7275,17.403496
2.4580603,4.1882515,-2.391866,16.739035,-31.406399,10.509152
2.5327866,4.1450853,-2.3555205,13.448049,-34.103344,3.892564
2.6024199,4.050454,-2.2985027,10.161039,-36.770557,-2.513128
2.6577363,3.9084475,-2.2097983,7.0042424,-39.317623,-8.56599
2.7074416,3.7309155,-2.071757,4.040459,-41.76061,-14.341029
2.7645826,3.5149279,-1.8771603,1.1880772,-44.15066,-19.769428
2.8550858,3.201069,-1.6044028,-1.6210729,-46.330257,-24.59694
2.992215,2.8149366,-1.2566751,-4.1921644,-47.851124,-28.700785
3.1682582,2.3809683,-0.842677,-5.9512606,-48.098167,-32.18367
3.3544047,1.9425156,-0.39025554,-7.017724,-47.163734,-34.979862
3.5403235,1.5252352,0.07936468,-7.8517165,-44.877632,-36.722054
3.7012591,1.1009717,0.5164918,-8.470015,-41.846874,-37.712925
3.8487544,0.6779264,0.908846,-8.48891,-37.861385,-37.961014
3.973405,0.30807817,1.2508069,-8.10336,-33.028255,-37.549236
4.0683565,0.0063829324,1.5362738,-7.2044578,-27.398272,-36.734726
4.1150875,-0.22446321,1.740596,-5.774852,-21.466095,-35.705826
4.121421,-0.3801815,1.8563783,-4.2568917,-15.538777,-34.555664
4.116968,-0.48017368,1.9114454,-3.029098,-9.59677,-33.23873
4.0987144,-0.54033893,1.9097922,-1.9996994,-3.7154267,-31.723356
4.0583115,-0.5422227,1.8491317,-1.6073483,2.0309916,-30.032927
3.9878466,-0.50974035,1.7319956,-1.9068764,7.5274897,-28.410543
3.8948548,-0.4818465,1.546262,-2.4892554,12.540725,-26.839422
3.7872672,-0.46095508,1.327959,-2.9603074,17.18667,-25.39843
3.668263,-0.43073902,1.0764277,-3.1861691,21.053682,-24.137716
3.5515316,-0.38754064,0.8113692,-3.886372,24.153427,-23.06423
3.452675,-0.35660374,0.5544778,-4.124643,26.783436,-22.341782
3.3559408,-0.34069034,0.27177405,-4.1352825,28.869003,-21.863491
3.2614331,-0.34387302,-0.0125165945,-4.1533804,30.664686,-21.36234
3.1453247,-0.3573772,-0.3037441,-4.008802,32.190784,-20.807802
2.9982758,-0.36550912,-0.60670805,-3.793041,33.232834,-20.314795
2.8425634,-0.37413424,-0.9024363,-4.061336,33.59195,-19.60669
2.70971,-0.39603573,-1.1694307,-4.3964705,33.8361,-18.721998
2.5806608,-0.4061138,-1.4330345,-4.811706,33.744175,-17.825935
2.456322,-0.41738293,-1.6915762,-5.4942408,33.073837,-16.994358
2.341851,-0.45831537,-1.9331024,-5.784556,31.916485,-16.1321
2.2456782,-0.5123181,-2.1644192,-5.7095857,30.265392,-15.127998
2.176133,-0.5705979,-2.3666801,-5.735579,28.562094,-13.959733
2.1154952,-0.64603895,-2.5555456,-5.974902,26.812128,-12.509311
2.0399017,-0.7536406,-2.7539635,-6.1119747,24.860775,-10.857389
1.9586198,-0.8832788,-2.965413,-5.4915466,22.7108,-9.187817
1.8906883,-1.0207965,-3.1878324,-3.9810066,20.149319,-7.683889
1.8443878,-1.1737529,-3.4189165,-2.0789149,17.428282,-5.817022
1.8280373,-1.2910564,-3.6472147,-0.6415876,14.349148,-3.2455802
1.8307415,-1.3579355,-3.8674178,-0.2565792,10.599062,-0.224973
1.8345537,-1.4259697,-4.055436,-0.89708143,6.35334,3.0326138
1.8332795,-1.53091,-4.2061706,-1.5381514,1.5302362,6.310503
1.8880968,-1.6568308,-4.2870226,-1.33269,-3.6388736,9.52959
2.0237672,-1.7270737,-4.2328215,-0.91158795,-8.621919,13.176497
2.1942925,-1.6682558,-3.9951186,-0.8370385,-12.705192,17.304514
2.3430238,-1.4750794,-3.6168988,-1.1495054,-16.134151,20.954786
2.4426513,-1.2316633,-3.1611633,-1.348746,-18.964445,23.44465
2.5065994,-0.952775,-2.6298313,-1.4326773,-21.07395,25.387024
2.5395856,-0.6304345,-2.093144,-2.1848211,-22.56037,26.98113
2.5480192,-0.31892872,-1.5783993,-3.6792755,-23.79531,28.352806
2.5617242,-0.065467395,-1.1100426,-5.798723,-24.527058,29.367857
2.5721498,0.15436341,-0.72474504,-10.174785,-24.886295,29.562277
2.5662346,0.24635468,-0.44186527,-14.124463,-25.169298,29.128336
2.5284925,0.2600369,-0.21546131,-16.613813,-24.966328,28.26349
2.467874,0.26806822,-0.04091994,-17.79997,-24.363413,27.271385
2.3951037,0.28090858,0.09387694,-18.151594,-23.44955,26.449764
2.3189385,0.3023418,0.1888491,-17.7981,-22.198357,25.890429
2.2514467,0.32997203,0.25512952,-16.899096,-20.626251,25.257172
2.1923528,0.35970017,0.29871717,-15.91781,-18.932037,24.660997
2.138862,0.3903052,0.3125565,-15.104534,-17.186241,23.984459
2.085396,0.41186476,0.29608917,-14.509229,-15.908663,23.12911
2.045249,0.42528883,0.26175654,-14.814539,-14.894039,21.992008
1.9814292,0.41201815,0.25358874,-14.352267,-14.429287,21.305773
1.9196103,0.39916354,0.24567696,-13.904489,-13.979106,20.64105
1.8597286,0.38671175,0.23801315,-13.470742,-13.543032,19.997158
1.8017226,0.37465,0.23058937,-13.050582,-13.120617,19.373436
1.7455329,0.3629659,0.22339807,-12.643579,-12.711429,18.769243
1.691102,0.35164756,0.21643186,-12.249314,-12.315049,18.183962
1.6383743,0.34068337,0.20968363,-11.867387,-11.931071,17.616995
1.5872959,0.33006212,0.20314646,-11.497406,-11.559105,17.067762
1.5378147,0.31977302,0.19681373,-11.138994,-11.1987705,16.535706
1.4898804,0.30980557,0.19067897,-10.791787,-10.849701,16.02028
1.4434443,0.30014965,0.18473594,-10.455432,-10.51154,15.520966
1.3984591,0.29079542,0.1789786,-10.129587,-10.183946,15.037251
1.3548791,0.28173342,0.17340113,-9.81392,-9.866586,14.568648
1.3126602,0.27295443,0.16799785,-9.508112,-9.559136,14.11468
1.2717596,0.26444957,0.16276328,-9.211853,-9.261288,13.674888
1.232136,0.2562102,0.15769213,-8.924844,-8.972737,13.248824
1.1937491,0.24822804,0.15277927,-8.646792,-8.693194,12.836061
1.1565602,0.24049498,0.14801973,-8.3774185,-8.422375,12.436178
1.1205317,0.23300323,0.1434087,-8.116449,-8.160006,12.048774
1.0856272,0.22574519,0.13894153,-7.8636227,-7.905822,11.673455
1.0518116,0.21871357,0.13461371,-7.618683,-7.6595674,11.309845
1.0190506,0.21190126,0.13042088,-7.3813825,-7.420994,10.957575
0.9873113,0.2053014,0.1263588,-7.1514826,-7.1898603,10.616291
0.9565618,0.19890735,0.12242339,-6.9287515,-6.965934,10.28565
0.926771,0.19271265,0.11861068,-6.712965,-6.7489896,9.965318
0.8979089,0.18671107,0.11491684,-6.503906,-6.5388083,9.654972
0.8699466,0.1808966,0.11133814,-6.301364,-6.3351793,9.3543005
0.8428558,0.17526335,0.107870996,-6.105135,-6.1378975,9.063001
0.81660944,0.16980568,0.10451191,-5.915022,-5.946764,8.78078
0.79118097,0.16451809,0.1012575,-5.7308335,-5.7615876,8.507355
0.766545,0.15939528,0.09810452,-5.5523853,-5.5821815,8.242451
0.7426766,0.15443209,0.09504978,-5.3794975,-5.408366,7.9858007
0.719552,0.14962354,0.09209023,-5.2119966,-5.239966,7.7371473
0.6971478,0.14496483,0.08922288,-5.049714,-5.076813,7.496241
0.67544156,0.14045125,0.08644486,-4.892488,-4.9187427,7.2628403
0.6544116,0.13607827,0.083753385,-4.7401595,-4.765597,7.0367107
0.6340367,0.13184153,0.081145756,-4.5925765,-4.617222,6.8176255
0.61429656,0.12773675,0.078619346,-4.44959,-4.473469,6.6053643
0.5951712,0.123759836,0.07617164,-4.311058,-4.3341928,6.399715
0.57664156,0.11990678,0.07380017,-4.176841,-4.1992555,6.200471
0.55868906,0.116173744,0.07150255,-4.046804,-4.0685205,6.0074325
0.5412957,0.112556964,0.069276504,-3.9208167,-3.9418573,5.820406
0.524444,0.10905282,0.06711978,-3.7987533,-3.8191388,5.6392045
0.5081171,0.105657816,0.06503022,-3.6804912,-3.700242,5.463646
0.49229866,0.102368526,0.06300573,-3.565912,-3.585048,5.2935543
0.47697282,0.099181674,0.061044283,-3.4549007,-3.4734411,5.1287594
0.4621242,0.09609405,0.05914392,-3.3473465,-3.3653097,4.9690967
0.44773796,0.09310258,0.05730273,-3.2431414,-3.2605453,4.814405
0.43379968,0.090204254,0.05551887,-3.142181,-3.159043,4.6645308
0.42029542,0.08739618,0.053790554,-3.0443642,-3.0607014,4.519323
0.40721163,0.084675536,0.052116055,-2.9495933,-2.965422,4.3786364
0.3945352,0.0820396,0.050493695,-2.857773,-2.8731089,4.24233
0.38225347,0.079485744,0.048921846,-2.7688117,-2.7836702,4.110268
0.37035415,0.0770114,0.047398936,-2.68262,-2.697016,3.982318
0.3588253,0.07461409,0.04592344,-2.599112,-2.61306,3.8583512
0.3476554,0.07229142,0.044493888,-2.5182042,-2.5317178,3.7382443
0.33683324,0.07004106,0.04310884,-2.439815,-2.452908,3.6218765
0.326348,0.06786077,0.04176691,-2.3638663,-2.3765519,3.509132
0.31618923,0.06574835,0.04046676,-2.2902822,-2.302573,3.399897
0.3063467,0.0637017,0.03920709,-2.2189891,-2.2308972,3.294063
0.2968106,0.061718762,0.037986632,-2.1499155,-2.1614528,3.191524
0.28757137,0.05979756,0.03680417,-2.082992,-2.0941703,3.0921772
0.27861977,0.057936165,0.03565852,-2.0181522,-2.0289824,2.995923
0.26994684,0.05613272,0.034548536,-1.9553308,-1.9658239,2.9026654
0.26154393,0.054385416,0.033473108,-1.8944651,-1.9046315,2.8123112
0.2534026,0.052692506,0.032431155,-1.8354942,-1.8453442,2.7247696
0.2455147,0.0510523,0.031421643,-1.778359,-1.7879025,2.6399531
0.23787236,0.04946315,0.030443555,-1.7230027,-1.7322489,2.5577772
0.23046792,0.04792347,0.029495914,-1.6693693,-1.6783279,2.4781592
0.22329397,0.046431724,0.028577773,-1.6174058,-1.6260854,2.4010198
0.21634336,0.044986416,0.027688215,-1.5670598,-1.5754691,2.3262815
0.20960912,0.043586094,0.026826348,-1.5182809,-1.5264286,2.25387
0.2030845,0.042229366,0.02599131,-1.4710206,-1.4789146,2.1837127
0.196763,0.040914875,0.025182264,-1.4252313,-1.4328797,2.115739
0.19063826,0.0396413,0.024398405,-1.3808676,-1.3882778,2.0498817
