ax,ay,az,gx,gy,gz
-1.1836472,0.69636995,-2.666388,12.540113,12.318294,-2.4972954
-1.57023,0.5289538,-2.9735243,14.795178,10.171194,-14.917219
-1.8467858,0.2730213,-3.2619421,16.937065,8.521369,-25.363163
-2.098745,-0.09713304,-3.8093462,19.723694,0.996382,-32.063755
-2.2219155,-0.54341716,-4.2794623,22.804716,-9.532829,-35.92551
-2.1749303,-1.1336507,-4.658523,25.161837,-20.399256,-36.91936
-1.9608495,-1.8754541,-4.9627433,28.609295,-30.44151,-34.35921
-1.6067425,-2.6337893,-5.202043,32.990967,-40.000206,-25.853628
-1.1888868,-3.2103298,-5.301534,37.48877,-48.23196,-13.758961
-0.801179,-3.5018497,-5.3049436,40.99416,-55.94662,-0.17686841
-0.43720213,-3.576484,-5.2042117,43.996395,-62.342075,12.455483
-0.108854994,-3.5417225,-5.027924,47.672863,-66.835815,22.914005
0.18333994,-3.3701887,-4.774043,51.308018,-69.51211,32.546158
0.46273613,-2.8958633,-4.3606877,53.866505,-71.17594,41.768867
0.7368394,-2.2435699,-3.828447,57.005398,-71.40401,49.275272
0.9609608,-1.4570706,-3.2912874,59.847363,-71.4004,54.206425
1.1776494,-0.5949631,-2.7251384,61.579937,-71.009155,56.425716
1.4095279,0.30298084,-2.1476104,61.25806,-69.21556,54.754078
1.6077901,1.1775266,-1.656257,58.600502,-66.84025,50.73722
1.7180355,1.9244198,-1.3017209,53.79577,-64.405334,44.890026
1.7239444,2.5001125,-1.0970597,47.133408,-62.12196,38.06011
1.6203141,2.934567,-1.0284522,39.125504,-60.104927,30.931673
1.433617,3.2787638,-1.0601794,29.975782,-59.339115,22.484861
1.1757529,3.5179906,-1.1447343,20.307165,-59.743065,12.9493
0.95680755,3.6313312,-1.1950203,11.403407,-60.353783,2.8556523
0.79293716,3.6677747,-1.2282014,3.7422297,-60.723225,-7.4052672
0.68073237,3.6321232,-1.2750205,-4.063639,-61.495792,-17.80918
0.6556191,3.4327016,-1.3178774,-11.501376,-62.737797,-28.256971
0.8406811,2.9510446,-1.2967813,-17.322134,-63.89459,-37.214695
1.2174094,2.3486621,-1.1669282,-21.601257,-64.25047,-43.044754
1.7222817,1.7204945,-0.9317359,-24.202559,-62.512184,-45.159866
2.2217288,1.1434624,-0.67495775,-25.949604,-58.620102,-44.447365
2.6429973,0.63482124,-0.45720702,-26.547688,-52.627205,-41.755
2.930491,0.2019723,-0.29851782,-25.787788,-46.094517,-38.255386
3.1249971,-0.14967906,-0.16649698,-24.549265,-39.559082,-33.908787
3.2514558,-0.4216861,-0.041513592,-22.977509,-32.602604,-28.796173
3.3128998,-0.609902,0.05272132,-21.205814,-25.238152,-23.32781
3.3223212,-0.7232161,0.1085274,-19.603594,-17.495369,-17.691074
3.2881272,-0.74970376,0.106475465,-17.940884,-9.784739,-12.352725
3.221975,-0.7319071,0.05358401,-16.30958,-2.3610983,-7.758835
3.1164005,-0.6962117,-0.04035459,-14.7776985,4.5991163,-3.814054
2.9866047,-0.639492,-0.15853697,-13.76593,11.028603,-0.20485093
2.8443434,-0.5672523,-0.2834043,-13.039835,17.078175,3.4422042
2.7079053,-0.46404213,-0.42817515,-12.571308,22.856524,6.9955163
2.5749402,-0.3462975,-0.5992536,-12.197522,28.136396,10.279811
2.4274287,-0.21687853,-0.81587565,-11.145868,32.270195,12.830425
2.256422,-0.075954065,-1.0503124,-10.293467,35.190655,14.313079
2.0856385,0.048751302,-1.2782108,-9.38569,37.502647,14.910716
1.8938018,0.16341919,-1.5415145,-8.61203,38.883484,15.203527
1.702248,0.27776495,-1.8203957,-8.222772,39.423466,15.377169
1.5129957,0.39413202,-2.1018028,-8.404502,39.164253,15.408158
1.3245801,0.5031362,-2.3857086,-9.128211,38.210354,15.308911
1.1331042,0.59997904,-2.698142,-9.8652,35.435173,14.905556
0.92081827,0.6923835,-3.066322,-10.460794,30.66307,13.847384
0.70642215,0.7632971,-3.4536068,-10.870459,23.694633,12.0420475
0.48681694,0.7935496,-3.85792,-11.206628,14.390398,9.831811
0.2937979,0.77768177,-4.251569,-11.060902,3.5327764,7.366983
0.16497444,0.72977823,-4.6483965,-9.910282,-9.610935,4.3411307
0.20381932,0.65748787,-4.9985027,-8.567589,-24.1721,1.3638556
0.3919983,0.56779903,-5.2418704,-6.608576,-39.090637,-1.3406272
0.7361482,0.49868327,-5.3147,-4.7285476,-52.8824,-3.3688657
1.2245039,0.44624192,-5.1856055,-3.3394854,-64.334595,-4.175245
1.778163,0.40939134,-4.8723254,-2.5628636,-71.96034,-3.527451
2.2682648,0.42195386,-4.42793,-1.8622727,-76.92563,-2.7190177
2.6665418,0.46825412,-3.9581554,-1.2387586,-79.797935,-2.4587274
2.9865556,0.51098317,-3.4962611,-0.7090305,-81.176834,-2.5541964
3.2490752,0.5524218,-3.0434465,-0.64131206,-81.605194,-2.1515388
3.4623232,0.6120711,-2.5972247,-1.5131148,-80.84755,-1.043937
3.6008563,0.6689489,-2.1812682,-2.7123191,-79.05691,0.008869083
3.6834798,0.7161431,-1.815549,-3.912276,-76.25967,0.6352592
3.7103372,0.7437755,-1.5168744,-4.9537144,-72.68888,0.873508
3.6889918,0.7525264,-1.2900168,-5.915954,-68.71456,1.0009922
3.6306596,0.74657166,-1.1265773,-6.7804956,-64.70881,1.1281363
3.539647,0.72806346,-1.0184412,-7.4946156,-60.862087,1.2472234
3.4387288,0.71016276,-0.93584,-8.096339,-57.160995,1.2618519
3.3299108,0.6876898,-0.9062255,-7.8401313,-55.352142,1.2219208
3.2246428,0.6659499,-0.87757707,-7.592282,-53.602303,1.1832924
3.1227992,0.6449173,-0.84986067,-7.352496,-51.909386,1.1459206
3.02426,0.6245671,-0.8230435,-7.12049,-50.2714,1.1097614
2.9289103,0.60487556,-0.79709435,-6.8959928,-48.686424,1.0747725
2.836639,0.5858198,-0.771983,-6.6787443,-47.15263,1.0409132
2.7473407,0.567378,-0.7476807,-6.468495,-45.668247,1.008145
2.6609132,0.5495291,-0.7241598,-6.2650056,-44.23159,0.9764301
2.577259,0.5322529,-0.70139354,-6.068045,-42.84103,0.945733
2.4962842,0.5155301,-0.67935646,-5.8773937,-41.49501,0.9160191
2.4178984,0.49934193,-0.658024,-5.6928377,-40.192028,0.8872552
2.342015,0.48367053,-0.63737255,-5.514173,-38.930637,0.85940945
2.26855,0.46849865,-0.61737925,-5.341203,-37.70945,0.8324513
2.1974232,0.45380962,-0.59802234,-5.1737385,-36.52713,0.8063511
2.1285572,0.43958744,-0.5792806,-5.011596,-35.38239,0.7810805
2.0618773,0.42581677,-0.56113386,-4.854601,-34.273987,0.75661206
1.9973112,0.41248268,-0.5435624,-4.7025833,-33.200726,0.7329194
1.9347903,0.3995709,-0.5265475,-4.5553803,-32.161457,0.70997715
1.8742472,0.38706762,-0.5100709,-4.412834,-31.155067,0.68776065
1.8156177,0.3749595,-0.49411502,-4.2747936,-30.180487,0.66624635
1.7588394,0.36323372,-0.478663,-4.1411114,-29.236677,0.64541143
1.7038524,0.35187787,-0.46369845,-4.011647,-28.322645,0.62523377
1.6505988,0.34087998,-0.44920564,-3.8862636,-27.437426,0.6056922
1.5990226,0.3302285,-0.43516934,-3.7648299,-26.58009,0.5867662
1.5490698,0.3199123,-0.42157483,-3.647218,-25.749739,0.56843585
1.5006882,0.3099206,-0.40840793,-3.5333056,-24.945507,0.55068207
1.4538275,0.300243,-0.39565492,-3.422974,-24.166553,0.5334864
1.4084389,0.29086939,-0.38330254,-3.3161087,-23.412073,0.5168309
1.3644755,0.28179008,-0.371338,-3.2125988,-22.681282,0.5006984
1.3218917,0.2729957,-0.35974896,-3.1123369,-21.973423,0.48507214
1.2806435,0.2644772,-0.34852338,-3.01522,-21.287766,0.46993598
1.2406884,0.2562257,-0.33764973,-2.9211476,-20.623606,0.45527437
1.2019855,0.24823283,-0.32711685,-2.830023,-19.980257,0.44107223
1.164495,0.2404903,-0.3169139,-2.741753,-19.357061,0.42731494
1.1281782,0.23299022,-0.3070304,-2.6562471,-18.75338,0.4139884
1.0929983,0.22572489,-0.2974563,-2.5734174,-18.168594,0.40107903
1.0589192,0.21868691,-0.28818175,-2.4931796,-17.602106,0.3885736
1.025906,0.21186906,-0.27919734,-2.4154515,-17.053339,0.3764593
0.9939252,0.20526442,-0.27049384,-2.340154,-16.52173,0.36472386
0.96294415,0.19886625,-0.26206243,-2.2672105,-16.006742,0.35335526
0.9329314,0.19266804,-0.25389457,-2.1965468,-15.507849,0.342342
0.9038564,0.18666351,-0.24598189,-2.1280909,-15.024544,0.33167285
0.8756897,0.18084654,-0.23831639,-2.0617735,-14.556336,0.32133698
0.8484027,0.17521125,-0.2308903,-1.9975275,-14.102752,0.3113239
0.82196766,0.16975193,-0.2236961,-1.9352874,-13.66333,0.30162352
0.7963579,0.16446303,-0.21672648,-1.8749905,-13.237628,0.29222596
0.7715476,0.15933922,-0.20997442,-1.8165755,-12.8252125,0.28312173
0.74751157,0.15437531,-0.20343308,-1.7599837,-12.425668,0.27430162
0.7242255,0.14956631,-0.19709586,-1.7051576,-12.03859,0.26575673
0.70166594,0.14490733,-0.19095634,-1.6520422,-11.6635895,0.25747845
0.6798101,0.14039369,-0.18500833,-1.6005836,-11.300286,0.24945837
0.6586359,0.13602082,-0.17924584,-1.5507299,-10.948315,0.24168845
0.63812214,0.13178433,-0.17366306,-1.502431,-10.60732,0.23416084
0.618248,0.12767994,-0.16825438,-1.4556382,-10.2769575,0.22686796
0.5989935,0.123703524,-0.16301432,-1.4103043,-9.956896,0.21980247
0.5803393,0.119851075,-0.15793765,-1.3663838,-9.646812,0.21295725
0.5622666,0.11611872,-0.1530192,-1.3238324,-9.346395,0.20632543
0.5447572,0.1125027,-0.14825408,-1.2826073,-9.055342,0.1999003
0.5277935,0.10899939,-0.14363746,-1.2426671,-8.773359,0.19367543
0.51135856,0.105605245,-0.13916473,-1.2039716,-8.500165,0.18764457
0.4954357,0.10231688,-0.13483138,-1.1664821,-8.235485,0.18180163
0.48000905,0.09913098,-0.13063306,-1.1301606,-7.9790516,0.17614077
0.46506307,0.09604435,-0.12656555,-1.094971,-7.7306085,0.1706563
0.4505827,0.093053885,-0.12262477,-1.0608776,-7.489906,0.16534269
0.4365535,0.090156585,-0.11880676,-1.0278463,-7.2567024,0.16019462
0.42296135,0.08734954,-0.11510769,-0.99584424,-7.030764,0.15520695
0.4097926,0.084629945,-0.11152386,-0.964839,-6.8118634,0.15037464
0.39703405,0.08199506,-0.10805166,-0.93479955,-6.599782,0.14569284
0.3846729,0.079442255,-0.10468761,-0.9056958,-6.394306,0.14115688
0.3726968,0.07696896,-0.10142834,-0.8774985,-6.1952305,0.1367622
0.36109367,0.0745727,-0.09827058,-0.85017943,-6.0023556,0.1325044
0.3498519,0.07225106,-0.09521118,-0.8237112,-5.815487,0.12837921
0.33896026,0.07000173,-0.09224705,-0.79806733,-5.6344385,0.124382496
0.32840782,0.06782245,-0.08937523,-0.7732221,-5.4590282,0.12051024
0.318184,0.06571104,-0.086592846,-0.7491505,-5.2890806,0.11675858
0.30827856,0.06366537,-0.08389711,-0.7258285,-5.124425,0.113123745
0.29868156,0.06168341,-0.08128531,-0.7032328,-4.9648967,0.10960209
0.28938338,0.059763163,-0.07875484,-0.6813407,-4.810336,0.10619011
0.28037477,0.05790271,-0.07630317,-0.66013026,-4.6605883,0.10288437
0.27164665,0.056100186,-0.073927835,-0.6395803,-4.5155034,0.099681556
0.26319027,0.05435379,-0.07162646,-0.61967015,-4.3749356,0.096578464
0.25499722,0.052661765,-0.06939675,-0.60037994,-4.2387447,0.093572
0.24705926,0.051022425,-0.06723645,-0.5816904,-4.1067944,0.09065914
0.23936844,0.049434125,-0.06514342,-0.56358266,-3.9789524,0.08783697
0.23191708,0.04789528,-0.06311555,-0.54603875,-3.8550904,0.08510267
0.22469771,0.046404343,-0.061150823,-0.52904105,-3.735085,0.082453504
0.2177031,0.04495982,-0.059247263,-0.5125726,-3.6188157,0.07988681
0.21092626,0.043560278,-0.057402965,-0.49661678,-3.5061662,0.07740003
0.2043604,0.0422043,-0.055616084,-0.48115775,-3.3970237,0.07499067
0.19799896,0.04089054,-0.053884838,-0.46618,-3.2912793,0.07265631
0.19183555,0.03961768,-0.052207485,-0.45166853,-3.1888268,0.070394635
0.18586402,0.03838445,-0.05058235,-0.43760884,-3.0895638,0.06820337
0.1800784,0.037189607,-0.04900781,-0.42398682,-2.993391,0.06608031
0.1744729,0.03603196,-0.047482286,-0.4107889,-2.9002123,0.06402335
0.16904189,0.03491036,-0.046004254,-0.39800182,-2.8099344,0.06203043
0.16377994,0.03382367,-0.044572234,-0.38561285,-2.7224667,0.060099546
0.15868182,0.03277081,-0.043184794,-0.3736095,-2.637722,0.058228776
0.1537424,0.031750724,-0.041840546,-0.36197984,-2.5556154,0.05641624
0.14895675,0.030762395,-0.040538143,-0.3507122,-2.4760647,0.054660127
0.14432006,0.029804831,-0.039276283,-0.33979535,-2.3989906,0.052958682
0.13982771,0.028877078,-0.038053703,-0.32921833,-2.3243155,0.0513102
0.13547522,0.027978202,-0.036869183,-0.31897056,-2.2519653,0.049713038
0.1312582,0.02710731,-0.035721537,-0.30904177,-2.1818671,0.048165593
0.12717247,0.026263528,-0.034609616,-0.2994221,-2.113951,0.04666632
0.12321391,0.02544601,-0.033532307,-0.29010183,-2.048149,0.045213718
