ax,ay,az,gx,gy,gz
-2.7018425,3.9018536,-5.4118676,2.6636605,-14.1492195,61.14692
-3.5100055,4.0858397,-6.2967296,-8.464064,-48.99362,40.12619
-3.9514484,3.533924,-6.5815263,-17.030848,-66.21881,11.714349
-3.9657824,2.7449276,-6.816413,-18.599367,-75.78275,-13.626019
-3.4806452,1.7643219,-6.9368863,-17.362175,-82.00136,-31.398125
-2.693965,0.6162652,-6.9228387,-15.438326,-85.965775,-39.575455
-1.8730028,-0.54871255,-6.8690534,-12.546625,-90.169266,-37.71637
-1.1349679,-1.6091157,-6.7496643,-8.584559,-94.36986,-31.787918
-0.54901105,-2.4390259,-6.608946,-3.0150614,-98.547714,-24.652859
-0.097214,-3.053914,-6.4260936,3.6465662,-102.958534,-17.366276
0.27292228,-3.4559386,-6.154747,11.140063,-106.79639,-10.030616
0.5833388,-3.6694314,-5.828162,19.151096,-109.76338,-2.1360035
0.85034597,-3.6871135,-5.4399834,26.848827,-111.83132,6.0841804
1.0688576,-3.4932666,-5.011468,33.626205,-113.113174,14.260067
1.2605218,-3.0152786,-4.498896,38.644688,-113.694626,21.432991
1.4428527,-2.3080738,-3.8896563,41.46556,-113.381165,26.805828
1.62159,-1.5148249,-3.2249324,41.561153,-111.47326,29.754436
1.776611,-0.69459975,-2.526817,39.88039,-108.18393,31.38918
1.8887905,0.11004871,-1.8717179,37.092537,-103.4389,31.696598
1.9110051,0.8937875,-1.3222946,33.49786,-98.20984,30.217781
1.8568938,1.6101923,-0.8786436,29.116701,-92.84071,27.114872
1.7585593,2.2432945,-0.54897666,23.500753,-87.48434,22.134933
1.6206805,2.7568042,-0.35551447,17.368162,-82.37495,16.261055
1.4542493,3.1731012,-0.27194923,10.7415285,-77.90189,9.599139
1.2699174,3.4948273,-0.26835054,3.841157,-73.993744,2.3451185
1.0743829,3.7250783,-0.3403286,-2.8090897,-70.64653,-5.405023
0.859046,3.8839757,-0.4891735,-9.371835,-68.85614,-14.263795
0.6418508,3.937967,-0.67863786,-15.799852,-68.47173,-23.640247
0.47756845,3.8718224,-0.86288077,-21.77196,-69.37634,-33.235733
0.42711043,3.6692495,-1.0252032,-27.08944,-70.98203,-42.36093
0.5289037,3.340322,-1.1454637,-31.05341,-72.59986,-50.409218
0.802379,2.9216995,-1.1975676,-33.81557,-73.61689,-55.83583
1.2821716,2.423294,-1.1515611,-35.89662,-73.702065,-58.528107
1.8533299,1.9065742,-1.0415223,-37.430725,-72.368385,-58.82411
2.4573982,1.3915588,-0.8867827,-38.316605,-69.17868,-57.39062
3.020795,0.9004911,-0.7107606,-38.4761,-64.09442,-54.647243
3.4713807,0.46248963,-0.54196846,-38.09428,-57.64422,-50.782055
3.7370405,0.11813029,-0.3884849,-37.514603,-50.193527,-45.34876
3.9045124,-0.14919646,-0.25617328,-37.046265,-42.039192,-39.00414
4.003733,-0.34635177,-0.16595925,-36.42142,-33.40488,-32.199287
4.037233,-0.4788155,-0.1323981,-35.005512,-24.774868,-25.422771
3.9835615,-0.5556938,-0.15598696,-32.394585,-17.068409,-19.473028
3.8747637,-0.5772895,-0.18514656,-29.606133,-9.713679,-13.92753
3.7502675,-0.5528722,-0.22453846,-27.11526,-2.6416168,-8.519461
3.6096244,-0.49215004,-0.28167614,-25.388584,3.9280798,-3.3377318
3.4532628,-0.42000404,-0.35535717,-23.927296,10.211728,1.4677187
3.273115,-0.34406877,-0.4633453,-22.412552,15.905457,5.4977083
3.0694504,-0.2679252,-0.60501784,-20.787674,20.963892,8.999768
2.8590727,-0.18603306,-0.75765777,-19.173725,25.416145,12.213887
2.633334,-0.09764284,-0.92698854,-17.791107,29.20843,15.268044
2.3923411,-0.0051072114,-1.1179528,-16.60849,32.186028,18.075603
2.146792,0.091889925,-1.323084,-15.530771,34.27884,20.316301
1.9054654,0.18937571,-1.5508178,-14.3370075,35.67022,22.051794
1.6784652,0.29051507,-1.8013253,-12.932323,36.032776,23.175915
1.4692488,0.39710277,-2.0628242,-11.638513,35.316265,23.702183
1.2843338,0.50686204,-2.3285902,-10.65215,33.276604,23.649143
1.1223396,0.6112053,-2.598181,-10.091123,29.404608,22.999924
0.9934984,0.6956215,-2.8753023,-9.504387,24.478336,21.988096
0.88773084,0.7562031,-3.170625,-8.695378,18.504246,20.61372
0.77946764,0.78629375,-3.5011208,-7.113924,11.012786,18.713627
0.65420073,0.7932354,-3.8569603,-5.4910793,1.7454355,16.408695
0.52123475,0.7807224,-4.2122655,-3.8261993,-9.380542,13.856201
0.41965106,0.7690968,-4.543001,-1.8759516,-21.151327,11.254386
0.38638663,0.781959,-4.799372,0.3631267,-32.775303,9.163584
0.41597453,0.8642621,-4.9608755,1.6475202,-44.03552,8.116646
0.5045001,0.98276836,-5.0444913,0.7225048,-55.487564,7.5679445
0.6867732,1.0192144,-5.028067,-0.74422055,-65.49649,6.3591275
0.99469167,0.9924312,-4.877932,-1.366722,-73.58576,4.767422
1.3784583,1.005352,-4.6234274,-1.3815497,-79.63316,3.1493134
1.807673,1.0451674,-4.2874217,-1.6313659,-83.75581,1.5327977
2.2343044,1.046181,-3.9137046,-2.403405,-86.15342,0.31798953
2.629896,0.9981639,-3.5357914,-3.5049512,-86.72293,0.0691892
2.950426,0.93258625,-3.1680844,-4.686368,-86.18632,0.39066285
3.2036283,0.87494075,-2.8150892,-5.9895425,-84.80212,1.1390301
3.385161,0.82631534,-2.486385,-7.408491,-82.82528,2.2437396
3.5012293,0.78168607,-2.1855567,-8.883381,-80.306656,3.4204628
3.5652697,0.729598,-1.915881,-10.14036,-76.99613,4.483526
3.5811157,0.68387866,-1.6835296,-11.462471,-73.14561,5.407909
3.5673227,0.6465848,-1.4836452,-12.316043,-68.900024,6.302299
3.518822,0.6263567,-1.3297665,-12.429985,-64.67059,7.0619335
3.4337363,0.62080085,-1.2143133,-12.032631,-60.946915,7.527842
3.3307724,0.615424,-1.1176273,-11.286841,-57.546883,7.8307824
3.225991,0.5960636,-1.0824683,-10.931774,-55.736538,7.5844374
3.124572,0.57732445,-1.0484375,-10.5880995,-53.984287,7.345997
3.0264013,0.55918556,-1.0154967,-10.255432,-52.288155,7.115193
2.9313693,0.5416266,-0.98360914,-9.933402,-50.646255,6.891769
2.839371,0.5246281,-0.9527394,-9.621651,-49.05677,6.675477
2.7503047,0.50817144,-0.92285365,-9.319837,-47.517944,6.466079
2.6640732,0.49223852,-0.89391905,-9.027628,-46.028095,6.2633452
2.5805826,0.47681203,-0.8659041,-8.744707,-44.585598,6.0670557
2.4997423,0.46187523,-0.83877844,-8.470767,-43.188892,5.8769965
2.4214652,0.447412,-0.8125128,-8.205512,-41.83647,5.6929636
2.345667,0.43340686,-0.7870791,-7.948658,-40.526882,5.514759
2.2722669,0.41984478,-0.76245,-7.69993,-39.25872,5.342192
2.2011864,0.40671134,-0.73859924,-7.4590635,-38.030643,5.17508
2.1323507,0.3939926,-0.71550167,-7.225803,-36.841343,5.0132437
2.0656867,0.38167512,-0.6931328,-6.9999013,-35.689564,4.856514
2.001124,0.36974594,-0.67146903,-6.7811203,-34.574093,4.7047243
1.9385948,0.3581925,-0.65048766,-6.569231,-33.49376,4.557716
1.878034,0.3470027,-0.6301667,-6.364011,-32.44743,4.4153347
1.819378,0.3361649,-0.61048496,-6.165246,-31.434008,4.277432
1.7625659,0.32566777,-0.59142184,-5.972729,-30.452446,4.1438646
1.7075385,0.3155004,-0.57295763,-5.78626,-29.501719,4.014493
1.6542388,0.30565226,-0.55507314,-5.605646,-28.580843,3.889183
1.6026118,0.2961132,-0.5377499,-5.4307,-27.688864,3.7678058
1.552604,0.2868733,-0.52097,-5.2612405,-26.824863,3.6502357
1.5041641,0.2779231,-0.50471616,-5.0970945,-25.987951,3.5363512
1.457242,0.26925337,-0.48897168,-4.9380918,-25.177263,3.4260356
1.4117899,0.2608552,-0.4737204,-4.78407,-24.391972,3.3191757
1.3677609,0.25272,-0.45894665,-4.634871,-23.631268,3.2156618
1.3251101,0.24483944,-0.44463533,-4.490342,-22.894375,3.115388
1.2837938,0.23720548,-0.43077183,-4.350335,-22.180538,3.0182517
1.2437699,0.22981028,-0.41734195,-4.2147083,-21.489033,2.9241538
1.2049975,0.22264636,-0.40433207,-4.083322,-20.819149,2.8329985
1.1674373,0.21570638,-0.39172888,-3.9560432,-20.170208,2.7446928
1.131051,0.2089833,-0.37951958,-3.8327425,-19.54155,2.659147
1.0958015,0.2024703,-0.36769179,-3.7132943,-18.932533,2.5762742
1.0616533,0.19616075,-0.35623345,-3.5975776,-18.342543,2.4959903
1.0285715,0.19004826,-0.345133,-3.4854748,-17.770977,2.4182136
0.99652267,0.18412663,-0.33437917,-3.3768725,-17.217258,2.3428657
0.9654744,0.17838988,-0.32396105,-3.2716606,-16.680828,2.2698698
0.9353953,0.17283219,-0.3138681,-3.1697328,-16.16114,2.1991527
0.9062549,0.16744794,-0.30409017,-3.070986,-15.657672,2.1306424
0.87802374,0.1622317,-0.29461733,-2.9753203,-15.169913,2.0642698
0.8506734,0.1571782,-0.28544003,-2.8826394,-14.6973715,1.9999679
0.8241762,0.15228233,-0.27654898,-2.7928495,-14.239571,1.937672
0.7985054,0.14753917,-0.26793528,-2.7058601,-13.796048,1.877319
0.77363527,0.14294392,-0.25959018,-2.6215837,-13.366358,1.8188481
0.7495406,0.13849197,-0.25150532,-2.539935,-12.950067,1.7622006
0.7261972,0.13417883,-0.24367253,-2.4608324,-12.546754,1.7073194
0.7035815,0.13000016,-0.23608394,-2.3841958,-12.156015,1.6541489
0.68167084,0.12595174,-0.2287319,-2.309948,-11.777458,1.6026361
0.6604431,0.12202951,-0.22160903,-2.2380145,-11.4107,1.5527289
0.639877,0.11822953,-0.21470816,-2.168323,-11.055372,1.5043771
0.6199519,0.114547975,-0.20802236,-2.1008036,-10.711118,1.4575323
0.6006476,0.110981144,-0.2015449,-2.0353882,-10.377592,1.4121472
0.58194494,0.10752546,-0.19526927,-1.9720111,-10.05446,1.3681763
0.56382495,0.10417745,-0.18918918,-1.9106088,-9.741394,1.3255756
0.54626954,0.10093375,-0.18329854,-1.8511195,-9.438084,1.284302
0.52926105,0.097791106,-0.17759141,-1.7934836,-9.144222,1.2443144
0.5127824,0.094746366,-0.17206207,-1.7376432,-8.859515,1.2055725
0.49681714,0.09179647,-0.16670498,-1.6835423,-8.583677,1.1680374
0.48134914,0.08893847,-0.16151476,-1.6311266,-8.316432,1.1316715
0.46636295,0.08616948,-0.15648621,-1.5803436,-8.05751,1.0964384
0.45184356,0.08348674,-0.15161428,-1.5311424,-7.806654,1.0623027
0.4377764,0.08088756,-0.1468941,-1.4834735,-7.5636106,1.0292302
0.4241473,0.078369334,-0.14232092,-1.4372892,-7.3281364,0.9971877
0.4109427,0.07592953,-0.13789016,-1.3925433,-7.0999956,0.9661431
0.3981493,0.0735657,-0.13359739,-1.349191,-6.87896,0.9360653
0.38575432,0.071275495,-0.1294383,-1.3071886,-6.664808,0.9069242
0.37374532,0.0690566,-0.12540874,-1.2664943,-6.457324,0.87869054
0.3621103,0.0669068,-0.12150464,-1.2270671,-6.2563014,0.85133606
0.35083753,0.06482395,-0.11772212,-1.1888677,-6.0615387,0.8248334
0.3399158,0.06280595,-0.11405738,-1.1518577,-5.8728404,0.799156
0.32933417,0.06085079,-0.11050675,-1.1160002,-5.6900177,0.7742781
0.319082,0.058956504,-0.107066676,-1.0812591,-5.5128875,0.7501748
0.30914903,0.057121202,-0.10373371,-1.0475997,-5.3412724,0.7268221
0.29952535,0.055343043,-0.100504525,-1.0149883,-5.1750007,0.7041964
0.2902013,0.053620245,-0.09737588,-0.98339236,-5.013906,0.6822751
0.28116754,0.051951084,-0.09434464,-0.95278007,-4.8578267,0.66103643
0.27241504,0.050333895,-0.09140777,-0.92312086,-4.706607,0.64045894
0.26393506,0.048767053,-0.08856234,-0.8943851,-4.5600953,0.62052214
0.25571907,0.047248993,-0.0858055,-0.86654395,-4.4181447,0.601206
0.24775887,0.045778193,-0.08313449,-0.83956957,-4.2806134,0.5824912
0.24004649,0.044353183,-0.080546625,-0.81343496,-4.147364,0.5643591
0.23257421,0.042972535,-0.07803933,-0.78811395,-4.0182633,0.5467915
0.22533455,0.041634873,-0.0756101,-0.7635813,-3.8931813,0.52977073
0.21832028,0.04033885,-0.07325649,-0.7398123,-3.7719934,0.5132799
0.21152437,0.039083175,-0.070976146,-0.7167833,-3.654578,0.49730247
0.20494002,0.037866592,-0.068766795,-0.69447124,-3.540818,0.4818224
0.19856066,0.03668788,-0.06662623,-0.6728537,-3.4305995,0.46682423
0.19237988,0.035545863,-0.06455229,-0.6519092,-3.323812,0.45229295
0.1863915,0.034439396,-0.062542915,-0.63161665,-3.220349,0.43821406
0.18058956,0.033367377,-0.060596094,-0.6119558,-3.1201067,0.42457342
0.17496821,0.032328725,-0.05870988,-0.5929071,-3.022985,0.41135743
0.16952187,0.03132241,-0.056882378,-0.57445127,-2.9288864,0.39855283
0.16424505,0.030347418,-0.055111766,-0.55657,-2.8377173,0.38614684
0.15913251,0.029402778,-0.05339627,-0.5392453,-2.749386,0.37412706
0.15417911,0.028487543,-0.05173418,-0.52246,-2.6638048,0.36248142
0.14937991,0.027600797,-0.050123826,-0.5061971,-2.5808873,0.3511983
