ax,ay,az,gx,gy,gz
-1.6181965,0.50000453,-2.4800224,-8.433713,29.907543,-47.663162
-1.6476438,0.38279152,-2.974108,-0.92568344,28.569841,-50.45756
-1.7692692,0.33179867,-3.5409062,1.6614805,19.001596,-52.8501
-1.8514587,0.073575914,-3.9930887,4.422303,3.128613,-55.003407
-1.6739885,-0.3460142,-4.2797594,5.3681374,-10.39854,-54.941174
-1.3344051,-0.8803788,-4.4290714,7.4999557,-21.040941,-51.515503
-0.9288591,-1.4308238,-4.5256877,9.931463,-29.606583,-44.859776
-0.5871919,-1.9412999,-4.592581,13.699616,-36.12554,-35.978004
-0.37918356,-2.32666,-4.662107,18.163616,-41.698177,-26.3544
-0.2562071,-2.5800467,-4.714661,22.854284,-46.96344,-17.99914
-0.14351125,-2.7397296,-4.7176776,27.628275,-52.59135,-10.50763
-0.011997471,-2.8013523,-4.6290536,31.847258,-58.745415,-2.9768414
0.17695455,-2.7739873,-4.4137225,35.185287,-64.702705,5.457534
0.41336286,-2.6548474,-4.0910044,37.616203,-69.55012,14.2303
0.6933602,-2.396468,-3.651564,39.526367,-72.03327,21.435516
0.9593923,-2.073182,-3.1812952,41.287853,-72.49385,26.820427
1.1941106,-1.6991835,-2.711917,42.815094,-71.26858,30.470556
1.3785827,-1.2895701,-2.253364,43.572353,-68.811295,32.94676
1.512777,-0.84195507,-1.8137182,42.63686,-65.208084,34.677452
1.5738753,-0.3681647,-1.4287528,40.520504,-61.478436,35.60649
1.5797929,0.074082226,-1.1020579,37.716698,-57.840343,35.657726
1.5504314,0.49338508,-0.82234395,34.511456,-54.17995,34.839832
1.4886682,0.8916963,-0.5959077,30.990107,-50.44929,32.982273
1.3927643,1.258235,-0.4320487,27.046217,-46.859974,29.765327
1.2546539,1.5936011,-0.3414974,22.855318,-43.699715,25.778172
1.0936058,1.9111788,-0.3047389,18.21195,-41.22945,21.047817
0.91959363,2.2006953,-0.30934343,13.10466,-39.48017,15.738631
0.740788,2.4809566,-0.34417778,7.4709415,-38.45734,9.787573
0.550627,2.7703907,-0.40273702,0.68334174,-38.84085,2.4796476
0.35089016,3.0192103,-0.48124796,-7.057854,-40.060898,-5.9323974
0.1576113,3.1644852,-0.57823145,-14.915056,-41.8446,-15.034385
-0.017213915,3.2189481,-0.71282154,-22.463858,-44.572495,-24.426064
-0.11497584,3.1849327,-0.86010474,-29.461996,-48.245613,-34.064358
-0.03727156,3.009468,-0.9798896,-34.708126,-51.900177,-42.849724
0.39345986,2.6300302,-0.98902017,-38.845116,-54.063484,-49.173576
1.0029403,2.1450355,-0.9408648,-42.246193,-54.20429,-52.043327
1.641157,1.6353402,-0.88300174,-44.519688,-52.05026,-51.889416
2.2030318,1.1704259,-0.8600182,-45.50186,-48.280285,-50.018658
2.6487641,0.75741744,-0.86570835,-45.80071,-43.63621,-46.94558
2.9709537,0.34303916,-0.8545299,-45.304375,-38.69069,-42.54414
3.20383,-0.028685682,-0.81667584,-43.692814,-33.146454,-36.32784
3.3719637,-0.31516314,-0.76044166,-41.692005,-26.80799,-29.179033
3.4928331,-0.5253164,-0.7088996,-39.42808,-19.475891,-21.523872
3.557137,-0.6468824,-0.6899629,-36.306644,-11.506259,-13.581046
3.508516,-0.6190608,-0.72528017,-32.805584,-4.058051,-6.299486
3.3890975,-0.5192222,-0.7730863,-29.464048,2.7152278,-0.20551777
3.2524798,-0.37759557,-0.81181026,-26.930265,8.9942255,4.823924
3.1253214,-0.2320494,-0.8489613,-25.271852,15.005634,9.060842
2.999502,-0.10569395,-0.90109295,-24.622496,21.107313,12.776486
2.8569164,-0.004295895,-0.9948019,-23.787682,27.330275,16.496542
2.6525993,0.13446815,-1.1712023,-22.631319,32.384468,19.398521
2.3811316,0.29699215,-1.3804867,-21.761152,35.890217,21.054039
2.1014423,0.45714638,-1.5896661,-21.09738,38.365513,21.59039
1.8300374,0.6106488,-1.8113399,-20.876768,39.59259,20.705755
1.5696859,0.69616294,-2.0705855,-20.848387,39.947067,19.180698
1.3132095,0.71962154,-2.3604174,-20.462488,39.28136,17.71987
1.026756,0.73624,-2.701042,-18.910543,36.665024,16.46281
0.70801526,0.7858175,-3.0668511,-16.866581,31.718843,15.07115
0.39928785,0.86802,-3.4423594,-14.758268,23.797373,13.071314
0.14110641,0.9554122,-3.8483353,-12.867994,13.7637,10.416913
-0.059929896,1.0022383,-4.270919,-10.909573,1.5580361,7.4179564
-0.17520262,1.022803,-4.6734285,-8.938618,-12.662412,4.7375474
-0.15115133,1.0407783,-4.9976306,-6.791603,-27.623264,2.5408945
0.027452422,1.0783495,-5.2031007,-4.7974606,-41.614685,-0.0010486812
0.4019144,1.0970637,-5.14824,-2.0273683,-52.29202,-2.7129855
0.84181166,1.1265378,-4.948225,1.2380416,-59.49274,-5.2951026
1.2587943,1.1753938,-4.6741753,4.0268264,-64.739426,-7.347486
1.6264709,1.2310132,-4.351063,5.6338243,-68.64321,-8.38941
1.9585702,1.2558918,-3.9941633,5.9938574,-71.294914,-8.269632
2.2708523,1.2440652,-3.5971982,5.8513913,-72.48778,-7.5797076
2.5555363,1.2259463,-3.1963928,5.3521953,-71.96182,-6.549382
2.7887719,1.2163457,-2.8234816,4.460099,-70.06964,-5.33783
2.9506304,1.1991557,-2.5062099,3.58006,-67.30002,-4.162453
3.0291376,1.1778063,-2.2638974,3.2206907,-64.56935,-3.6452239
3.074466,1.1423002,-2.0537739,3.8398669,-61.676983,-3.5742242
3.1225514,1.1200761,-1.8909681,3.8883195,-58.834827,-3.490105
3.1770663,1.0916221,-1.7464666,3.6515603,-55.75931,-3.2910037
3.0767255,1.0571455,-1.6913081,3.5362337,-53.998272,-3.1870644
2.9796402,1.0237875,-1.6379393,3.4246488,-52.294373,-3.0864973
2.8856971,0.99150926,-1.5862979,3.3166752,-50.64562,-2.9891853
2.7947872,0.96027315,-1.5363238,3.212188,-49.0501,-2.8950152
2.7068064,0.9300434,-1.4879597,3.1110673,-47.505985,-2.803879
2.621654,0.90078557,-1.4411507,3.0131977,-46.011513,-2.715673
2.5392342,0.87246656,-1.3958436,2.9184682,-44.565,-2.6302974
2.459454,0.84505457,-1.3519877,2.826773,-43.16481,-2.5476563
2.3822248,0.81851906,-1.309534,2.7380097,-41.809395,-2.4676573
2.3074608,0.7928305,-1.2684354,2.6520796,-40.497246,-2.390212
2.2350798,0.76796085,-1.2286468,2.5688884,-39.226917,-2.3152354
2.1650026,0.74388266,-1.1901245,2.4883451,-37.99702,-2.2426448
2.0971525,0.72056973,-1.1528267,2.4103618,-36.806213,-2.1723614
2.0314562,0.6979969,-1.1167128,2.3348536,-35.653206,-2.1043093
1.9678429,0.6761398,-1.0817438,2.2617397,-34.53676,-2.0384147
1.9062444,0.6549748,-1.0478824,2.1909416,-33.45567,-1.974607
1.8465946,0.63447946,-1.0150924,2.122383,-32.40878,-1.912818
1.78883,0.6146319,-0.9833386,2.0559914,-31.39498,-1.8529818
1.7328894,0.59541106,-0.9525875,1.9916961,-30.41319,-1.7950351
1.6787138,0.5767966,-0.92280656,1.9294293,-29.462378,-1.7389166
1.6262459,0.5587689,-0.8939644,1.8691254,-28.541536,-1.6845671
1.5754306,0.54130906,-0.8660307,1.8107208,-27.6497,-1.6319294
1.5262148,0.5243988,-0.83897626,1.7541547,-26.785934,-1.5809487
1.4785471,0.50802046,-0.8127728,1.6993678,-25.949339,-1.5315714
1.4323778,0.49215692,-0.78739303,1.646303,-25.13904,-1.4837464
1.3876588,0.47679177,-0.7628106,1.5949054,-24.354198,-1.4374237
1.344344,0.46190903,-0.73899996,1.5451216,-23.593998,-1.3925555
1.3023884,0.44749334,-0.7159366,1.4968998,-22.857655,-1.3490953
1.2617489,0.4335298,-0.69359654,1.4501908,-22.144407,-1.3069983
1.2223834,0.42000404,-0.67195696,1.404946,-21.45352,-1.266221
1.1842514,0.40690213,-0.65099543,1.3611192,-20.784283,-1.2267216
1.147314,0.3942106,-0.6306905,1.318665,-20.13601,-1.1884595
1.1115332,0.38191652,-0.6110214,1.2775403,-19.508036,-1.1513954
1.0768722,0.37000722,-0.59196794,1.2377028,-18.899717,-1.1154915
1.0432959,0.3584706,-0.57351065,1.1991118,-18.310432,-1.080711
1.0107698,0.3472948,-0.55563074,1.161728,-17.739582,-1.0470185
0.9792608,0.3364685,-0.53830993,1.1255132,-17.186583,-1.0143795
0.9487369,0.32598063,-0.5215306,1.0904305,-16.65087,-0.9827609
0.9191669,0.31582057,-0.50527567,1.0564443,-16.1319,-0.9521305
0.89052093,0.30597797,-0.4895287,1.02352,-15.629147,-0.9224572
0.8627698,0.29644284,-0.47427356,0.99162424,-15.142097,-0.8937108
0.83588535,0.2872055,-0.45949492,0.9607246,-14.67026,-0.86586225
0.8098403,0.27825657,-0.44517773,0.9307898,-14.213157,-0.8388832
0.7846085,0.26958704,-0.4313075,0.9017896,-13.770323,-0.81274647
0.7601642,0.26118812,-0.41787022,0.87369454,-13.341311,-0.7874256
0.73648274,0.25305134,-0.4048523,0.8464763,-12.92569,-0.76289487
0.71354026,0.24516842,-0.39224055,0.82010734,-12.523036,-0.7391296
0.69131356,0.23753144,-0.3800223,0.7945611,-12.132944,-0.71610576
0.6697802,0.2301327,-0.36818516,0.7698117,-11.755021,-0.69380015
0.64891845,0.22296472,-0.35671726,0.74583423,-11.3888855,-0.67219025
0.6287073,0.21602027,-0.34560698,0.7226046,-11.034168,-0.65125424
0.6091263,0.20929238,-0.33484313,0.70009923,-10.690513,-0.63097113
0.59015596,0.20277426,-0.3244149,0.6782956,-10.357571,-0.6113204
0.571777,0.19645934,-0.31431177,0.6571717,-10.035009,-0.5922823
0.5539709,0.19034128,-0.30452362,0.63670635,-9.722503,-0.57383764
0.53671986,0.18441392,-0.29504052,0.61687887,-9.419737,-0.5559679
0.5200065,0.1786713,-0.285853,0.5976693,-9.126409,-0.5386552
0.503814,0.17310764,-0.27695182,0.57905847,-8.84222,-0.521882
0.48812607,0.16771737,-0.268328,0.5610276,-8.566889,-0.50563145
0.472927,0.16249505,-0.25997293,0.54355854,-8.300137,-0.48988733
0.45820153,0.15743546,-0.25187817,0.5266338,-8.041696,-0.47463375
0.44393483,0.1525335,-0.24403562,0.5102364,-7.7913074,-0.4598554
0.4301126,0.14778426,-0.2364374,0.4943498,-7.5487194,-0.44553748
0.41672096,0.14318298,-0.22907588,0.47895816,-7.3136888,-0.4316656
0.40374652,0.13872503,-0.22194369,0.46404597,-7.08598,-0.41822585
0.3911762,0.13440594,-0.21503365,0.44959828,-6.865364,-0.40520474
0.37899745,0.13022138,-0.20833886,0.43560064,-6.65162,-0.3925892
0.36719802,0.12616716,-0.20185259,0.42203894,-6.444533,-0.38036662
0.3557661,0.122239225,-0.19556834,0.40889966,-6.243896,-0.36852473
0.3446902,0.11843361,-0.18947981,0.3961696,-6.049508,-0.35705164
0.33395925,0.11474652,-0.1835809,0.383836,-5.861174,-0.34593585
0.3235625,0.11117425,-0.1778657,0.3718865,-5.678705,-0.33516625
0.31348953,0.10771323,-0.17232847,0.3603091,-5.5019183,-0.324732
0.30373022,0.104359984,-0.16696368,0.34909225,-5.330637,-0.31462273
0.2942748,0.101111166,-0.16176593,0.33822468,-5.1646895,-0.30482823
0.28511384,0.097963504,-0.15673006,0.32769552,-5.003909,-0.29533872
0.2762381,0.094913855,-0.15185098,0.3174942,-4.8481355,-0.2861447
0.26763877,0.09195917,-0.14712383,0.30761054,-4.6972117,-0.27723694
0.25930718,0.08909648,-0.14254387,0.29803464,-4.5509877,-0.26860657
0.25123498,0.086322926,-0.13810651,0.28875688,-4.4093165,-0.2602449
0.24341415,0.083635725,-0.1338073,0.279768,-4.272056,-0.25214356
0.2358368,0.081032194,-0.12964197,0.27105898,-4.1390696,-0.2442945
0.22849537,0.078509726,-0.1256063,0.2626211,-4.0102234,-0.23668978
0.22138251,0.076065786,-0.121696286,0.25444594,-3.8853886,-0.22932184
0.21449111,0.07369794,-0.11790801,0.2465253,-3.7644405,-0.22218329
0.20781426,0.07140381,-0.11423767,0.23885126,-3.6472578,-0.21526699
0.20134526,0.0691811,-0.1106816,0.23141614,-3.5337234,-0.20856601
0.19507767,0.06702759,-0.107236244,0.22421248,-3.4237237,-0.20207365
0.18900521,0.06494112,-0.103898145,0.21723309,-3.3171484,-0.1957834
0.18312179,0.06291962,-0.10066396,0.21047099,-3.213891,-0.18968898
0.17742153,0.060961034,-0.09753047,0.20391938,-3.1138482,-0.18378429
0.17189872,0.05906343,-0.09449453,0.19757175,-3.0169199,-0.17806342
0.16654783,0.0572249,-0.09155309,0.19142172,-2.923009,-0.17252065
0.16136354,0.055443604,-0.08870323,0.18546315,-2.8320215,-0.16715044
0.15634063,0.05371776,-0.08594208,0.17969006,-2.7438667,-0.16194738
0.15147409,0.052045643,-0.08326689,0.1740967,-2.6584558,-0.15690632
0.14675903,0.050425578,-0.080674976,0.16867746,-2.575704,-0.15202217
0.14219075,0.048855945,-0.07816375,0.16342692,-2.4955285,-0.14729007
0.13776469,0.047335174,-0.0757307,0.15833983,-2.4178483,-0.14270528
0.1334764,0.045861743,-0.073373385,0.15341109,-2.3425865,-0.13826321
0.12932162,0.04443418,-0.07108945,0.14863577,-2.2696676,-0.13395941
0.12529616,0.043051057,-0.06887661,0.14400911,-2.1990185,-0.12978959
0.12139601,0.041710988,-0.06673266,0.13952649,-2.1305687,-0.12574957
