ax,ay,az,gx,gy,gz
-2.6445694,-1.7745616,-3.6363966,54.932316,-82.6753,-15.92469
-2.4608583,-1.5355841,-4.0583572,47.516434,-95.42589,-12.088802
-2.3600764,-1.1737727,-4.175551,37.40734,-101.373795,-8.320106
-2.3527133,-1.2717514,-4.1888804,30.909328,-106.90356,-7.4040093
-2.1546729,-1.8053209,-4.0288873,28.73651,-110.4982,-10.194138
-1.9050027,-2.2651641,-3.9021409,28.647392,-111.63558,-10.860543
-1.5429033,-2.7157307,-3.6818926,29.855093,-110.328545,-9.022995
-1.2384275,-3.115884,-3.4182594,32.58454,-107.616234,-4.8134465
-1.037363,-3.441818,-3.1711197,35.035126,-104.97995,1.038788
-0.8970503,-3.7205544,-2.959726,38.056797,-103.3323,7.0138235
-0.69818276,-3.979155,-2.756878,41.24198,-102.09124,11.534613
-0.3659604,-4.1718664,-2.5082502,44.624615,-100.136925,15.178753
-0.07768516,-4.195366,-2.2515373,47.119423,-97.74107,19.456694
0.16883095,-4.145865,-1.9740273,49.64875,-94.85714,23.842781
0.34699434,-4.061182,-1.7207958,52.03727,-92.03463,27.930525
0.5312338,-4.012936,-1.465457,56.05686,-88.55211,30.798504
0.7542632,-3.8849502,-1.2292858,60.85563,-84.346054,33.462223
1.0171037,-3.5409892,-1.0194323,64.672806,-79.56992,36.330883
1.3307419,-3.088529,-0.79398996,67.07423,-74.14359,38.449963
1.6360745,-2.7002828,-0.56576884,69.0901,-67.98146,39.274094
1.8842182,-2.375709,-0.38136312,70.992424,-60.845448,39.42342
2.0461695,-1.9383057,-0.29203394,72.11638,-53.801533,39.955833
2.184514,-1.449332,-0.22928602,72.4213,-47.051285,40.039738
2.344161,-0.95587325,-0.16166987,72.20844,-40.331455,38.790257
2.533733,-0.48024815,-0.098902956,71.193146,-33.223454,36.29576
2.718669,-0.045132916,-0.058572188,68.87653,-25.107372,32.860218
2.7457902,0.3276977,-0.1104627,66.87177,-17.518482,29.583267
2.665188,0.6739616,-0.17992127,64.004486,-11.0298605,26.995111
2.5848227,0.99358344,-0.23418517,60.809254,-5.292808,23.913841
2.5377302,1.2636658,-0.28326085,57.23564,0.136545,19.8392
2.4976518,1.4348888,-0.33932585,52.98711,5.575709,14.773443
2.4555933,1.4903934,-0.4086468,48.663033,11.23712,9.635043
2.312896,1.4686464,-0.5244407,45.19128,16.075773,5.121351
2.077696,1.4209417,-0.67195296,42.066116,19.22785,1.1027313
1.845357,1.3594291,-0.8157226,38.9866,20.90833,-2.7278428
1.644527,1.3163149,-0.95824313,35.781483,21.318531,-6.3878636
1.488225,1.2467855,-1.1033584,32.364365,21.223238,-9.673648
1.3698237,1.1386777,-1.2420306,29.017584,20.769949,-12.911491
1.2758943,1.0081698,-1.3869243,25.980757,19.961815,-15.785978
1.1774632,0.86789733,-1.5430262,23.153795,18.653864,-17.860134
1.0906614,0.7895158,-1.7028732,20.282476,16.955353,-18.910637
1.0058744,0.80563927,-1.8740185,16.921091,14.917471,-19.82181
0.9134587,0.80828357,-2.0330062,13.298173,12.492232,-21.220068
0.7926413,0.7391082,-2.1751459,10.073638,9.554444,-23.386446
0.6552052,0.58811045,-2.297329,7.069906,6.032705,-25.819345
0.5481336,0.36761844,-2.3832889,4.7753735,2.1856227,-27.469398
0.48427445,0.1504572,-2.4324987,2.8051202,-1.479614,-27.612522
0.427605,-0.038848255,-2.4591997,1.140985,-4.763611,-26.290768
0.3534632,-0.18320903,-2.482718,-0.17355749,-7.830857,-24.5641
0.2501404,-0.32624513,-2.502053,-1.1154401,-11.230197,-23.39395
0.14794199,-0.49875194,-2.5083582,-1.4627826,-15.168222,-23.10312
0.10958282,-0.74507016,-2.4752543,-0.89747536,-18.735563,-22.528473
0.105754934,-0.9681275,-2.435558,0.4436044,-21.54539,-20.707432
0.079951234,-1.0850749,-2.4206045,1.6855466,-24.08109,-17.665644
0.017540358,-1.1619948,-2.406207,2.5618212,-27.084606,-14.263844
-0.042408,-1.2510988,-2.3618464,3.9517136,-30.585869,-12.266308
-0.066037685,-1.3589857,-2.2893767,6.2663465,-33.977524,-11.092232
-0.05492645,-1.3923817,-2.2359774,8.801381,-36.992607,-9.284506
-0.026408365,-1.3278142,-2.2082744,10.942529,-39.698277,-6.672137
-0.003268371,-1.230623,-2.1838684,12.486723,-42.313766,-3.4806163
0.019218087,-1.0893048,-2.1343696,13.355926,-45.211746,-0.905206
0.06741856,-0.9157413,-2.0492494,14.068123,-48.166477,0.717885
0.13915142,-0.77077025,-1.9604309,14.518861,-51.057903,1.7874593
0.2574816,-0.6507337,-1.866684,14.601765,-53.57393,2.6980762
0.42239147,-0.55280375,-1.7605834,14.257636,-55.35359,3.7855968
0.58751595,-0.45163432,-1.643816,13.5803385,-56.033802,5.6022778
0.7113009,-0.33117756,-1.5210459,12.60719,-56.286026,7.441376
0.8254024,-0.20851924,-1.3955446,11.292043,-56.23292,8.769269
0.9353491,-0.12026032,-1.2730483,9.872947,-55.836582,9.573023
1.0379819,-0.07111433,-1.165014,8.378729,-55.126537,10.16108
1.1178366,-0.062004518,-1.0721688,6.932352,-54.22638,10.774248
1.1725302,-0.10187607,-0.97264314,5.5688815,-53.150402,11.735803
1.2182713,-0.15198815,-0.867294,4.6129246,-51.608025,13.062881
1.238053,-0.16886112,-0.77163106,3.9575284,-49.634438,14.715986
1.2377979,-0.13091406,-0.6942826,3.2695067,-47.404667,16.318691
1.2293551,-0.06288028,-0.6261422,2.1018262,-45.0103,17.001724
1.2277,-0.028362792,-0.54599905,0.6152672,-42.55125,16.83858
1.236079,-0.04543767,-0.4565248,-0.80366516,-39.856052,16.189184
1.2417563,-0.10320058,-0.36872295,-1.5255849,-36.84387,15.476106
1.2026058,-0.099946834,-0.35709774,-1.4774858,-35.682243,14.98817
1.1647195,-0.09679815,-0.34584787,-1.4309397,-34.558125,14.515988
1.1280537,-0.09375092,-0.33496046,-1.3858932,-33.470222,14.05902
1.0925667,-0.09080164,-0.32442307,-1.3422949,-32.417297,13.616743
1.0582185,-0.08794701,-0.31422383,-1.3000957,-31.398157,13.188659
1.0249703,-0.08518381,-0.30435124,-1.259248,-30.41166,12.774284
0.9927853,-0.08250895,-0.29479432,-1.2197064,-29.456703,12.373159
0.9616276,-0.07991948,-0.28554246,-1.181427,-28.532232,11.984839
0.931463,-0.077412546,-0.2765855,-1.1443677,-27.637226,11.608895
0.90225846,-0.0749854,-0.2679136,-1.108488,-26.770704,11.244917
0.87398213,-0.0726354,-0.25951734,-1.0737485,-25.931725,10.892508
0.84660345,-0.07035999,-0.2513876,-1.0401118,-25.119377,10.551285
0.8200928,-0.068156734,-0.24351561,-1.0075417,-24.332787,10.2208805
0.7944218,-0.066023245,-0.23589294,-0.976003,-23.571106,9.90094
0.7695629,-0.06395726,-0.22851142,-0.94546205,-22.833525,9.591122
0.74548966,-0.061956573,-0.2213632,-0.91588646,-22.119253,9.291096
0.7221766,-0.060019057,-0.2144407,-0.8872447,-21.427538,9.000544
0.6995991,-0.05814267,-0.2077366,-0.8595066,-20.757645,8.719157
0.67773324,-0.056325432,-0.20124383,-0.83264285,-20.108868,8.446642
0.6565561,-0.054565433,-0.19495557,-0.8066253,-19.480526,8.18271
0.6360456,-0.05286083,-0.18886524,-0.78142667,-18.871964,7.9270854
0.6161802,-0.05120985,-0.18296647,-0.75702065,-18.282541,7.6795015
0.59693927,-0.04961076,-0.17725314,-0.7333818,-17.711647,7.4397
0.5783028,-0.04806191,-0.17171928,-0.7104856,-17.15869,7.2074323
0.5602515,-0.046561692,-0.16635919,-0.6883083,-16.623093,6.982457
0.5427666,-0.04510855,-0.1611673,-0.6668269,-16.104303,6.764542
0.52583015,-0.043700986,-0.15613824,-0.6460193,-15.601787,6.553462
0.5094247,-0.04233755,-0.15126686,-0.625864,-15.115024,6.3489995
0.49353334,-0.041016843,-0.14654814,-0.60634035,-14.643515,6.150944
0.47813976,-0.039737508,-0.1419772,-0.5874283,-14.186775,5.9590926
0.4632282,-0.038498227,-0.13754942,-0.56910837,-13.744337,5.7732487
0.44878337,-0.037297737,-0.13326022,-0.55136186,-13.315748,5.5932217
0.43479052,-0.036134813,-0.12910524,-0.5341707,-12.90057,5.418828
0.42123535,-0.035008263,-0.12508021,-0.51751727,-12.498378,5.249889
0.4081041,-0.033916943,-0.121181056,-0.50138456,-12.108763,5.086233
0.39538333,-0.03285974,-0.1174038,-0.4857562,-11.731328,4.927693
0.38306013,-0.031835575,-0.113744594,-0.47061628,-11.365689,4.7741084
0.371122,-0.030843414,-0.11019972,-0.45594946,-11.011476,4.6253223
0.35955676,-0.029882247,-0.10676558,-0.44174078,-10.668327,4.481184
0.34835276,-0.028951097,-0.1034387,-0.42797586,-10.335896,4.3415475
0.3374986,-0.028049022,-0.1002157,-0.41464075,-10.013844,4.206271
0.3269833,-0.02717511,-0.09709332,-0.40172195,-9.701846,4.075218
0.3167962,-0.026328476,-0.0940684,-0.3892064,-9.399588,3.9482558
0.30692706,-0.025508264,-0.091137886,-0.37708142,-9.106762,3.8252556
0.2973658,-0.024713645,-0.08829881,-0.3653348,-8.823073,3.7060933
0.2881029,-0.023943817,-0.08554831,-0.35395467,-8.548235,3.590649
0.27912894,-0.023198003,-0.08288361,-0.3429295,-8.281971,3.4788055
0.27043486,-0.022475451,-0.08030202,-0.33224824,-8.024011,3.3704507
0.26201192,-0.021775434,-0.07780094,-0.32190007,-7.7740955,3.2654748
0.25385162,-0.021097243,-0.07537785,-0.31187457,-7.5319734,3.1637726
0.24594577,-0.020440198,-0.07303031,-0.30216166,-7.2974005,3.065241
0.23828638,-0.019803638,-0.07075596,-0.29275155,-7.070141,2.9697816
0.23086576,-0.01918692,-0.0685525,-0.2836348,-6.849965,2.8772979
0.22367643,-0.018589426,-0.06641773,-0.2748022,-6.6366525,2.7876968
0.21671118,-0.018010555,-0.06434949,-0.26624492,-6.429988,2.7008882
0.20996301,-0.017449724,-0.06234571,-0.2579543,-6.229764,2.6167853
0.20342511,-0.016906368,-0.06040437,-0.24992205,-6.03578,2.5353029
0.19709095,-0.016379945,-0.058523525,-0.24214008,-5.8478403,2.4563599
0.19095415,-0.015869923,-0.056701284,-0.23460059,-5.6657567,2.3798764
0.18500854,-0.015375793,-0.054935813,-0.227296,-5.489346,2.305776
0.17924817,-0.014897057,-0.05322535,-0.22021897,-5.3184314,2.2339838
0.17366725,-0.014433235,-0.05156817,-0.21336241,-5.152841,2.1644285
0.16826019,-0.013983862,-0.049962614,-0.20671946,-4.992409,2.0970397
0.16302153,-0.013548485,-0.04840707,-0.20028342,-4.8369746,2.0317502
0.15794608,-0.013126671,-0.046899978,-0.19404785,-4.686382,1.9684942
0.1530287,-0.012717995,-0.04543983,-0.1880065,-4.5404797,1.9072086
0.14826448,-0.012322047,-0.044025157,-0.18215333,-4.3991213,1.8478317
0.14364864,-0.011938431,-0.042654544,-0.17648244,-4.2621655,1.7903041
0.13917655,-0.011566762,-0.041326616,-0.17098816,-4.1294756,1.7345681
0.13484372,-0.011206668,-0.040040042,-0.16566499,-4.0009174,1.6805679
0.13064584,-0.010857788,-0.038793538,-0.16050759,-3.8763628,1.6282492
0.12657867,-0.010519772,-0.037585847,-0.1555108,-3.755687,1.5775598
0.122638166,-0.010192282,-0.036415763,-0.1506696,-3.638769,1.5284489
0.118820354,-0.009874988,-0.035282116,-0.14597915,-3.5254915,1.4808673
0.115121424,-0.0095675755,-0.03418377,-0.14143476,-3.4157414,1.4347672
0.11153767,-0.009269735,-0.033119623,-0.13703187,-3.3094087,1.3901026
0.10806551,-0.008981168,-0.032088608,-0.13276607,-3.2063868,1.3468288
0.10470145,-0.008701586,-0.031089697,-0.12863308,-3.1065726,1.3049023
0.101442136,-0.00843071,-0.030121887,-0.12462879,-3.0098662,1.2642812
0.0982843,-0.008168266,-0.02918421,-0.12074917,-2.9161708,1.2249248
0.09522478,-0.007913995,-0.028275726,-0.116990335,-2.8253927,1.1867938
0.09226052,-0.007667639,-0.027395528,-0.11334853,-2.7374408,1.14985
0.08938854,-0.007428953,-0.026542734,-0.109820105,-2.652227,1.1140563
0.08660598,-0.0071976986,-0.02571649,-0.10640154,-2.5696664,1.079377
0.083910055,-0.006973644,-0.024915969,-0.10308939,-2.489676,1.0457774
0.08129805,-0.006756564,-0.024140371,-0.09988037,-2.412176,1.0132239
0.07876737,-0.0065462426,-0.023388918,-0.09677125,-2.3370886,0.98168385
0.07631547,-0.006342469,-0.022660859,-0.09375892,-2.2643387,0.9511256
0.073939905,-0.0061450386,-0.021955466,-0.09084036,-2.1938539,0.92151874
0.071638286,-0.0059537548,-0.021272033,-0.08801267,-2.1255634,0.89283353
0.06940833,-0.005768426,-0.020609876,-0.085273005,-2.0593987,0.8650414
0.067247786,-0.0055888663,-0.01996833,-0.08261863,-1.9952936,0.8381144
0.0651545,-0.0054148966,-0.019346759,-0.080046885,-1.9331843,0.8120256
0.063126385,-0.0052463426,-0.018744536,-0.077555194,-1.8730085,0.786749
0.0611614,-0.0050830357,-0.01816106,-0.07514107,-1.8147058,0.76225924
0.059257586,-0.0049248124,-0.017595747,-0.072802104,-1.7582182,0.7385319
0.057413034,-0.004771515,-0.017048035,-0.07053595,-1.7034891,0.7155431
0.055625904,-0.004622989,-0.01651737,-0.06834033,-1.6504635,0.69326997
0.053894408,-0.0044790865,-0.016003225,-0.066213064,-1.5990887,0.67169017
0.05221681,-0.004339664,-0.015505084,-0.06415202,-1.5493131,0.65078217
0.050591435,-0.004204581,-0.015022451,-0.06215513,-1.5010868,0.630525
