ax,ay,az,gx,gy,gz
0.2309112,-1.3700124,-1.2791024,34.84577,-23.803852,34.124855
0.54018056,-1.6134812,-0.783528,59.94521,-16.213804,13.241377
0.5016655,-1.4197493,-0.4143019,71.91521,-15.076647,-0.7618478
0.5886541,-1.2408563,-0.0937748,72.83784,-14.075225,-6.447542
0.76038015,-1.3397359,0.21555948,69.77447,-10.659781,-3.7904875
0.821383,-1.3429239,0.32402825,64.35857,-7.936185,1.0286591
0.84216654,-1.2544439,0.32830605,58.343815,-6.881832,3.7914793
0.8421456,-1.2934701,0.3652133,56.196968,-6.807082,3.0159361
0.8093011,-1.4498007,0.42634866,59.0465,-6.8994865,-1.2686957
0.6927305,-1.6437826,0.4184691,62.774506,-7.0360456,-3.5581656
0.5875411,-1.8015314,0.34016737,64.9863,-6.903497,-2.1958647
0.42931727,-1.9019402,0.16577895,66.50739,-7.065939,1.8055936
0.26831767,-1.8998607,-0.052736953,67.86931,-8.246314,5.805208
0.09337373,-1.8337319,-0.3149867,69.18449,-11.338697,7.944548
-0.0996501,-1.8992851,-0.57486254,72.094826,-17.462463,7.680605
-0.25046322,-2.0369437,-0.82768196,74.78892,-24.766836,7.5424185
-0.21966027,-2.1669714,-0.9694892,76.26999,-30.802202,8.700531
-0.12680455,-2.295338,-1.0651264,76.66024,-34.891174,12.212267
-0.09579997,-2.3490443,-1.2178173,75.58611,-37.884434,17.852156
-0.12007816,-2.3434632,-1.4170961,73.429405,-41.303997,24.003199
-0.14731754,-2.358699,-1.5813584,72.22223,-45.29306,28.75464
-0.124259934,-2.3169916,-1.7009566,71.578316,-49.15385,31.893131
-0.0696893,-2.2876034,-1.760942,71.11305,-52.298756,34.329124
0.0036978174,-2.306485,-1.7516354,70.7706,-54.435085,37.076538
0.06630515,-2.3234725,-1.6981099,69.93914,-55.450592,41.05754
0.104318805,-2.3492024,-1.6005434,69.491615,-56.006905,44.821663
0.15329397,-2.3860705,-1.4832232,70.240395,-56.14537,47.557934
0.25351727,-2.371635,-1.3716247,71.27754,-55.895905,50.21622
0.44022006,-2.2692876,-1.2429229,71.92201,-54.48759,53.49716
0.6518649,-2.0824375,-1.1056358,71.807724,-51.9072,56.731266
0.80423594,-1.867973,-0.96728367,71.589066,-49.15082,58.797733
0.8642021,-1.7389896,-0.83954906,71.68118,-46.929897,59.8002
0.9403133,-1.6661525,-0.68836904,72.16866,-44.678017,60.499393
1.0961449,-1.5447024,-0.5330228,72.59818,-41.582695,61.71823
1.3133832,-1.3217224,-0.38482693,72.30556,-36.798717,63.149456
1.5184373,-1.0265613,-0.24745706,72.051506,-31.327536,63.225136
1.674211,-0.73780423,-0.11793602,71.999596,-25.71498,61.53099
1.757392,-0.5197862,-0.030713318,72.02779,-20.780521,59.11287
1.8119949,-0.35117504,0.017093973,72.00725,-16.079088,56.98483
1.9161708,-0.11385698,0.036762908,71.05254,-10.922656,55.537197
2.0985327,0.21235076,0.051724426,69.60484,-5.307607,53.135307
2.280559,0.51060593,0.09381105,68.15021,0.64306223,48.796875
2.4672997,0.75313854,0.12518162,67.04421,7.396208,42.61884
2.4589303,0.8845513,-0.0032796997,66.711716,13.218961,36.192364
2.2822478,0.8964673,-0.17046937,65.722595,16.53964,31.68059
2.1798313,0.9580974,-0.2904097,64.195946,18.966064,28.174513
2.152328,1.0809363,-0.3779971,61.956997,21.35139,24.735117
2.1282396,1.1602352,-0.440042,59.976437,23.463987,20.191954
2.1207647,1.1692963,-0.4645203,58.88049,25.70634,14.309446
2.1191113,1.1476551,-0.51318955,58.392757,28.170612,8.307347
1.9750247,1.1260475,-0.7043832,56.678577,29.49314,4.222961
1.809967,1.1129904,-0.9113458,54.27446,29.60127,1.1785734
1.6925753,1.1293602,-1.0983142,51.918938,28.622566,-2.2231307
1.6636509,1.1435182,-1.239903,49.83061,26.996468,-6.6927676
1.697784,1.1184896,-1.343397,47.470142,25.618904,-11.252962
1.7304955,1.0503256,-1.4565127,44.34253,24.567978,-14.678442
1.7294598,0.9701454,-1.5947701,40.712788,23.404863,-17.109983
1.7053894,0.89414036,-1.7434026,36.974167,21.81771,-19.247627
1.6765622,0.8169377,-1.8799807,33.503056,19.621414,-21.871
1.6531241,0.6989936,-1.9884813,30.592674,16.644312,-25.327627
1.6572453,0.5074783,-2.0417042,27.937584,13.728561,-28.240067
1.6638464,0.3109069,-2.0746295,25.153967,11.3677025,-29.826538
1.6283337,0.13367695,-2.1251225,22.220543,9.240819,-30.103327
1.5526788,-0.026919428,-2.1945398,19.569498,6.58322,-30.071426
1.4622471,-0.19249089,-2.2568119,17.69681,3.0212297,-30.482471
1.3727512,-0.38789105,-2.291592,16.16046,-0.8013327,-30.681534
1.3063557,-0.59796923,-2.3078535,14.750589,-4.554753,-30.066002
1.2463616,-0.78978693,-2.335978,13.392242,-8.115014,-28.428585
1.1787392,-0.9323611,-2.3900483,11.9158125,-11.703728,-26.154196
1.1007203,-1.0312628,-2.4603255,10.508235,-15.666701,-23.833302
1.0100495,-1.1160437,-2.5287068,9.170894,-19.999022,-21.898739
0.94232327,-1.2249423,-2.5481114,8.357279,-24.459278,-20.31752
0.9133214,-1.3493888,-2.5319133,7.9174747,-28.727543,-18.53079
0.92244524,-1.4656452,-2.4968388,7.317943,-32.528076,-15.836986
0.9515758,-1.5245794,-2.4664004,6.347522,-35.56964,-12.025083
0.92826694,-1.4863341,-2.4574006,5.2987623,-38.944324,-8.3707285
0.8956024,-1.4264803,-2.4211595,4.4038405,-43.046307,-5.7810726
0.9127961,-1.3770379,-2.327764,3.7211502,-47.38111,-3.9310718
0.9922573,-1.3439989,-2.1866586,2.9373574,-50.881916,-2.0678887
1.1092824,-1.3127859,-2.0191908,2.0019004,-52.545227,0.4854617
1.2204181,-1.2065941,-1.8615094,0.9005069,-53.22034,2.7929268
1.2963356,-1.0600028,-1.6873755,-0.29796603,-53.696915,4.3036084
1.375695,-0.9131541,-1.4682548,-1.5251343,-53.931595,5.0552917
1.4884417,-0.7818637,-1.2096682,-2.8088434,-53.57158,5.2379065
1.6276453,-0.68076175,-0.93696207,-4.492496,-52.064835,4.9467816
1.7810501,-0.62302285,-0.67916125,-6.4251475,-49.44675,4.3851504
1.7251534,-0.60346985,-0.6578464,-6.2235003,-47.89491,4.2475266
1.6710384,-0.58454,-0.6372109,-6.02828,-46.39253,4.114289
1.6186457,-0.5662127,-0.6172322,-5.8392725,-44.937965,3.985292
1.5679182,-0.5484679,-0.59788847,-5.656273,-43.529633,3.8603952
1.518801,-0.53128636,-0.5791588,-5.479082,-42.166008,3.7394629
1.471241,-0.5146496,-0.56102294,-5.30751,-40.845615,3.6223648
1.4251873,-0.49853975,-0.54346144,-5.141371,-39.567043,3.5089755
1.3805907,-0.48293954,-0.5264556,-4.9804883,-38.32892,3.3991733
1.3374035,-0.4678324,-0.5099872,-4.8246903,-37.129925,3.2928414
1.29558,-0.45320228,-0.49403876,-4.673812,-35.968796,3.1898673
1.255076,-0.43903372,-0.47859353,-4.5276933,-34.844296,3.0901418
1.2158489,-0.42531177,-0.46363518,-4.3861814,-33.75524,2.99356
1.1778573,-0.41202208,-0.44914797,-4.2491264,-32.700493,2.9000204
1.1410615,-0.3991507,-0.4351168,-4.1163855,-31.678944,2.8094249
1.1054231,-0.38668415,-0.42152694,-3.9878197,-30.689526,2.7216792
1.0709051,-0.3746095,-0.40836427,-3.8632956,-29.73121,2.6366916
1.0374713,-0.36291417,-0.39561513,-3.7426832,-28.803,2.554374
1.0050874,-0.35158604,-0.38326627,-3.6258578,-27.903934,2.4746408
0.97371966,-0.34061342,-0.37130493,-3.5126987,-27.033081,2.39741
0.9433358,-0.32998496,-0.35971877,-3.4030888,-26.189545,2.3226013
0.9139045,-0.3196897,-0.34849584,-3.2969153,-25.372452,2.250138
0.8853955,-0.30971706,-0.3376246,-3.194069,-24.580965,2.1799457
0.8577795,-0.30005682,-0.3270939,-3.094444,-23.814272,2.111952
0.8310283,-0.29069906,-0.31689295,-2.9979389,-23.071585,2.0460873
0.8051143,-0.28163418,-0.30701128,-2.9044542,-22.352144,1.9822842
0.7800113,-0.272853,-0.29743883,-2.8138947,-21.655214,1.9204776
0.75569344,-0.26434645,-0.28816578,-2.726168,-20.980085,1.8606043
0.732136,-0.2561059,-0.27918273,-2.6411846,-20.326069,1.8026032
0.70931506,-0.24812299,-0.27048048,-2.5588577,-19.692497,1.7464154
0.68720734,-0.24038956,-0.26205024,-2.479104,-19.078728,1.6919836
0.6657904,-0.23289777,-0.2538834,-2.4018424,-18.484135,1.6392525
0.6450425,-0.22564001,-0.24597166,-2.326994,-17.908117,1.5881689
0.62494254,-0.21860893,-0.23830703,-2.2544835,-17.35009,1.5386806
0.60547024,-0.2117974,-0.23088174,-2.184237,-16.809486,1.4907374
0.58660585,-0.20519851,-0.22368824,-2.1161838,-16.285759,1.4442911
0.5683303,-0.1988056,-0.21671928,-2.0502543,-15.77838,1.3992946
0.5506251,-0.1926122,-0.20996782,-1.9863828,-15.286836,1.3557023
0.5334723,-0.18661205,-0.20342703,-1.9245042,-14.810629,1.3134702
0.5168547,-0.18079911,-0.1970903,-1.864556,-14.349279,1.2725558
0.5007554,-0.17516749,-0.19095123,-1.8064779,-13.902321,1.2329175
0.48515832,-0.16971152,-0.18500364,-1.7502112,-13.469303,1.1945157
0.47004765,-0.1644257,-0.17924154,-1.6956993,-13.049789,1.1573114
0.45540813,-0.15930471,-0.1736591,-1.6428872,-12.643357,1.1212673
0.44122508,-0.15434338,-0.16825072,-1.5917218,-12.249597,1.086347
0.42748418,-0.14953673,-0.16301097,-1.5421513,-11.868113,1.0525153
0.41417164,-0.1448799,-0.15793455,-1.4941263,-11.498521,1.0197382
0.40127403,-0.14036824,-0.15301634,-1.4475981,-11.140449,0.98798287
0.38877842,-0.1359972,-0.14825144,-1.4025202,-10.793536,0.9572172
0.37667224,-0.13176237,-0.14363503,-1.358847,-10.457437,0.9274104
0.3649433,-0.12765951,-0.13916248,-1.3165349,-10.131809,0.89853245
0.35357985,-0.12368451,-0.1348293,-1.2755412,-9.816329,0.8705543
0.34257045,-0.11983336,-0.13063113,-1.2358247,-9.510679,0.8434479
0.33190408,-0.11610219,-0.12656376,-1.1973457,-9.214552,0.81718606
0.32157,-0.112487264,-0.12262311,-1.1600655,-8.92765,0.79174244
0.3115579,-0.10898496,-0.11880522,-1.1239467,-8.649687,0.7670914
0.30185765,-0.10559175,-0.11510626,-1.088953,-8.380382,0.7432083
0.29245955,-0.10230424,-0.111522526,-1.0550494,-8.119466,0.7200691
0.28335422,-0.099119134,-0.10805041,-1.0222018,-7.8666763,0.6976507
0.27453247,-0.09603323,-0.104686454,-0.9903773,-7.6217613,0.67593056
0.2659855,-0.09304344,-0.101427265,-0.959544,-7.384474,0.6548869
0.2577047,-0.090146765,-0.09826958,-0.929671,-7.154577,0.63449866
0.24968179,-0.0873403,-0.09521024,-0.90072834,-6.9318395,0.6147453
0.24190874,-0.08462124,-0.09224617,-0.87268704,-6.7160387,0.5956072
0.23437776,-0.08198685,-0.08937441,-0.845519,-6.5069585,0.57706505
0.2270813,-0.07943451,-0.08659208,-0.819197,-6.304389,0.55910033
0.22001205,-0.07696164,-0.08389638,-0.7936946,-6.1081276,0.541695
0.21316293,-0.07456577,-0.081284635,-0.76898634,-5.9179773,0.52483165
0.20652707,-0.0722445,-0.07875421,-0.7450475,-5.733748,0.5084934
0.20009784,-0.069995515,-0.07630257,-0.72185403,-5.5552554,0.49266392
0.1938688,-0.067816556,-0.073927276,-0.6993827,-5.3823204,0.47732732
0.1878337,-0.06570544,-0.07162593,-0.67761105,-5.21477,0.4624682
0.18198651,-0.063660055,-0.06939624,-0.65651727,-5.052436,0.44807175
0.17632137,-0.061678357,-0.067235984,-0.63608027,-4.8951564,0.43412355
0.17083262,-0.059758354,-0.065142974,-0.6162796,-4.742774,0.4206096
0.16551475,-0.05789813,-0.063115135,-0.5970953,-4.5951357,0.4075164
0.16036245,-0.05609582,-0.061150424,-0.5785084,-4.452094,0.39483082
0.15537056,-0.054349624,-0.059246883,-0.5605001,-4.3135056,0.3825402
0.15053408,-0.05265779,-0.057402603,-0.54305243,-4.1792316,0.37063223
0.14584817,-0.05101863,-0.05561574,-0.526148,-4.049138,0.35909498
0.14130813,-0.049430497,-0.05388451,-0.50976986,-3.9230947,0.3479169
0.13690944,-0.047891807,-0.052207172,-0.49390152,-3.800975,0.33708683
0.1326477,-0.04640102,-0.050582055,-0.47852725,-3.6826575,0.3265939
0.12851861,-0.04495664,-0.049007528,-0.46363157,-3.568023,0.31642762
0.124518074,-0.043557227,-0.047482017,-0.44919962,-3.4569573,0.30657783
0.12064208,-0.042201377,-0.046003997,-0.43521693,-3.3493493,0.29703468
0.11688674,-0.040887736,-0.044571992,-0.42166954,-3.245091,0.28778863
0.11324831,-0.03961499,-0.04318456,-0.40854385,-3.1440783,0.27883038
0.10972314,-0.038381863,-0.041840322,-0.39582682,-3.04621,0.27015102
0.10630771,-0.03718712,-0.040537927,-0.3835056,-2.9513886,0.26174182
0.1029986,-0.036029577,-0.03927608,-0.371568,-2.8595188,0.25359443
0.0997925,-0.03490806,-0.03805351,-0.36000198,-2.7705088,0.24570064
0.09668621,-0.03382146,-0.036868997,-0.348796,-2.6842697,0.23805258
0.09367661,-0.03276868,-0.035721354,-0.33793885,-2.6007152,0.2306426
0.09076069,-0.03174868,-0.03460944,-0.32741967,-2.5197616,0.22346328
