ax,ay,az,gx,gy,gz
-0.05636415,-1.7791071,-3.2318475,147.26225,6.9909725,40.50582
0.5246226,-0.5345243,-2.868376,131.3915,27.30325,48.71686
0.48499516,1.0685481,-3.2311697,109.85782,33.845016,44.906456
0.23847505,2.2853527,-3.8189113,82.66488,30.042171,37.5888
0.15926087,3.0202549,-4.1776347,62.765812,23.127089,27.859983
0.34671777,3.7336397,-4.3185267,45.61116,17.522097,17.653728
0.6496253,4.4082203,-4.42878,23.115751,13.740667,7.5638056
0.9143243,4.7610617,-4.5944347,1.7490985,10.602712,-1.440241
1.0933813,4.860101,-4.794503,-15.327746,7.276643,-10.685954
1.1911381,4.719408,-4.992488,-27.476345,3.3954108,-20.117645
1.1992402,4.406431,-5.2093077,-35.206596,-1.6635988,-29.035261
1.1622598,4.000871,-5.415618,-40.076782,-8.534951,-37.287163
1.1120548,3.447653,-5.531569,-44.462784,-15.9045725,-44.000763
1.098988,2.730807,-5.4963923,-47.73681,-22.633022,-49.30266
1.1092396,1.8053522,-5.31793,-48.83224,-28.407108,-53.12665
1.1602005,0.77254623,-4.999296,-46.79041,-32.570206,-55.26449
1.2437339,-0.19780745,-4.610222,-42.305782,-35.14455,-54.416725
1.3346245,-1.0598522,-4.1679688,-37.51038,-37.12246,-51.145203
1.4697456,-1.8460042,-3.6763043,-32.357414,-38.220654,-45.88799
1.6616646,-2.5550478,-3.15357,-26.163385,-37.930527,-39.960587
1.877858,-3.1886332,-2.6457446,-18.558857,-35.754612,-33.723495
2.062506,-3.722179,-2.1950548,-9.281384,-31.140335,-26.221453
2.14497,-3.9479358,-1.8879018,0.16282184,-25.982317,-18.633707
2.1518924,-3.8702476,-1.6836865,8.61535,-21.149109,-11.439666
2.1065993,-3.5072815,-1.5381407,15.28971,-16.650509,-5.0094223
1.9987649,-2.8926868,-1.455433,19.341616,-12.721676,0.36801487
1.8165506,-2.0953605,-1.4439766,19.465593,-10.038208,4.034078
1.5892129,-1.2696059,-1.5080444,16.766714,-8.624288,6.5153832
1.3769418,-0.6340428,-1.5955913,12.914229,-8.087312,8.06683
1.204329,-0.1676422,-1.6936489,9.350201,-8.173606,8.597049
1.0924122,0.20611261,-1.782043,6.364425,-8.436689,8.367401
1.031606,0.54663503,-1.8736731,3.9001544,-8.935307,7.274435
1.0117714,0.84972614,-1.9704561,1.9120816,-9.581628,5.559252
1.0079188,1.1290739,-2.0693035,0.4874955,-10.495585,3.2670557
1.0176308,1.3985482,-2.1567485,-0.9441434,-11.5599575,0.55892164
1.021744,1.6327875,-2.2341425,-2.668623,-12.735129,-2.4296849
1.0042797,1.8102958,-2.306378,-4.412172,-14.151042,-6.100621
0.967122,1.8865974,-2.3707547,-5.985394,-15.7982645,-10.195095
0.92909235,1.8738264,-2.4274507,-7.5482926,-17.842081,-14.277423
0.9071861,1.7638429,-2.4636343,-9.321062,-20.258379,-17.975668
0.9126464,1.5605177,-2.4745815,-11.045354,-22.897106,-21.302507
0.95868164,1.2803822,-2.456697,-12.961143,-25.688263,-23.875017
1.06139,0.86613107,-2.3912776,-14.998364,-28.368975,-25.745539
1.171808,0.2899487,-2.2854917,-16.320711,-30.616865,-26.699585
1.2726524,-0.3968378,-2.156076,-15.918245,-32.27329,-26.739222
1.3729179,-1.080096,-2.0184639,-14.268555,-33.41061,-25.559767
1.4774696,-1.6986878,-1.8756207,-11.408129,-33.82899,-22.785727
1.5835367,-2.2432454,-1.7326803,-7.8998327,-33.79706,-18.816002
1.7075537,-2.7260475,-1.5856762,-4.003396,-33.237843,-13.7462015
1.8569862,-3.1365619,-1.4275905,0.33727798,-31.986769,-7.672165
2.0138521,-3.395501,-1.2709748,4.988531,-30.205976,-0.9557411
2.1622674,-3.460594,-1.1237736,9.847991,-27.973381,5.5494294
2.294484,-3.3302863,-0.9909543,14.618567,-25.403587,11.391359
2.3908632,-3.0614476,-0.8775965,18.935747,-22.298996,16.906103
2.4180324,-2.6165285,-0.81586,22.30179,-19.188541,21.71027
2.3786607,-2.0828125,-0.7976148,24.718092,-16.210709,25.656767
2.289262,-1.5735878,-0.8217309,26.337822,-13.666602,28.698711
2.1747124,-1.1585002,-0.8763393,28.037035,-11.296416,31.24468
2.0584836,-0.70215607,-0.93869436,29.487953,-8.97726,33.31061
1.9614986,-0.16678433,-1.0047619,30.169605,-6.903503,34.299175
1.8803742,0.35636833,-1.0599571,29.685274,-5.1011424,34.041523
1.8194547,0.34482288,-1.0256171,28.723545,-4.935878,32.93866
1.7606531,0.3336788,-0.992471,27.795252,-4.776359,31.874142
1.7038828,0.32291973,-0.9604699,26.899025,-4.6223507,30.846395
1.6490617,0.31253,-0.92956746,26.033567,-4.47363,29.853935
1.5961118,0.30249497,-0.8997199,25.197655,-4.3299856,28.895353
1.5449595,0.2928006,-0.87088567,24.39012,-4.1912184,27.969315
1.4955351,0.28343368,-0.8430253,23.60986,-4.057138,27.074554
1.447772,0.2743816,-0.81610155,22.85583,-3.9275646,26.20987
1.401607,0.26563245,-0.7900786,22.127028,-3.802327,25.374119
1.3569802,0.25717476,-0.7649227,21.422508,-3.6812615,24.566214
1.3138342,0.24899773,-0.7406015,20.741367,-3.5642135,23.785114
1.2721144,0.24109101,-0.7170843,20.08274,-3.4510348,23.029837
1.2317688,0.2334447,-0.69434166,19.445808,-3.341584,22.299437
1.1927476,0.22604941,-0.6723456,18.829784,-3.2357259,21.593014
1.1550032,0.2188961,-0.6510693,18.233917,-3.1333315,20.909704
1.1184902,0.21197617,-0.63048714,17.657492,-3.034278,20.248688
1.083165,0.20528135,-0.61057454,17.099817,-2.9384468,19.609177
1.0489861,0.19880375,-0.591308,16.560236,-2.8457248,18.990414
1.0159134,0.1925358,-0.57266504,16.03812,-2.7560039,18.391678
0.9839084,0.18647024,-0.554624,15.532862,-2.66918,17.812275
0.9529346,0.18060009,-0.5371643,15.043882,-2.585153,17.251537
0.9229567,0.17491867,-0.5202659,14.570623,-2.503828,16.708828
0.8939406,0.16941954,-0.5039097,14.11255,-2.4251122,16.183535
0.86585397,0.16409656,-0.48807737,13.669148,-2.3489177,15.675065
0.8386653,0.15894377,-0.47275126,13.2399235,-2.2751594,15.182853
0.81234455,0.15395546,-0.45791438,12.824401,-2.2037556,14.706352
0.78686273,0.14912614,-0.4435504,12.422121,-2.1346276,14.24504
0.7621919,0.14445053,-0.4296436,12.032645,-2.0677,13.798409
0.7383052,0.13992353,-0.4161788,11.655549,-2.0028992,13.365974
0.71517676,0.13554023,-0.4031414,11.290422,-1.9401556,12.947267
0.6927816,0.1312959,-0.39051738,10.9368725,-1.8794013,12.541834
0.6710958,0.127186,-0.3782932,10.594521,-1.8205712,12.149242
0.65009594,0.12320613,-0.3664557,10.262999,-1.7636023,11.769071
0.6297599,0.119352035,-0.35499236,9.941956,-1.7084339,11.400914
0.61006594,0.115619645,-0.343891,9.631049,-1.6550075,11.044384
0.59099334,0.112005,-0.33313987,9.329951,-1.6032666,10.6991005
0.5725219,0.1085043,-0.32272762,9.038345,-1.5531567,10.364702
0.55463237,0.10511387,-0.31264338,8.755924,-1.5046253,10.040836
0.5373059,0.10183016,-0.30287653,8.482393,-1.4576215,9.727165
0.5205244,0.09864973,-0.2934169,8.217465,-1.4120961,9.42336
0.50427043,0.09556928,-0.2842546,7.9608655,-1.3680018,9.129105
0.4885271,0.09258561,-0.27538016,7.712327,-1.3252927,8.844093
0.47327805,0.08969561,-0.26678437,7.471592,-1.2839246,8.568031
0.45850754,0.0868963,-0.2584583,7.2384114,-1.2438546,8.300632
0.4442003,0.0841848,-0.2503934,7.0125446,-1.2050415,8.04162
0.43034163,0.0815583,-0.24258132,6.7937593,-1.1674452,7.790728
0.41691723,0.079014115,-0.23501407,6.58183,-1.1310271,7.5476985
0.40391335,0.07654962,-0.22768386,6.3765388,-1.0957497,7.3122816
0.39131665,0.0741623,-0.22058316,6.177676,-1.061577,7.084236
0.37911424,0.0718497,-0.21370472,5.985038,-1.0284739,6.8633285
0.36729366,0.069609456,-0.20704152,5.798427,-0.99640656,6.6493335
0.3558428,0.067439295,-0.20058672,5.617654,-0.96534234,6.442032
0.34475002,0.065336995,-0.19433379,5.4425335,-0.93524945,6.241213
0.33400404,0.063300416,-0.18827634,5.2728877,-0.9060974,6.046672
0.32359388,0.061327484,-0.18240818,5.108544,-0.87785643,5.858211
0.31350902,0.0594162,-0.1767234,4.949335,-0.85049784,5.6756387
0.3037392,0.057564624,-0.1712162,4.7950997,-0.8239939,5.4987698
0.2942745,0.055770874,-0.165881,4.6456814,-0.79831773,5.3274245
0.28510532,0.054033134,-0.16071239,4.500929,-0.77344334,5.16143
0.2762224,0.052349646,-0.15570514,4.3606954,-0.7493455,5.0006175
0.26761678,0.050718706,-0.15085419,4.2248387,-0.7259998,4.8448243
0.2592797,0.049138665,-0.14615461,4.093222,-0.7033827,4.6938934
0.25120276,0.047607925,-0.14160168,3.9657123,-0.6814713,4.547672
0.24337782,0.046124943,-0.1371908,3.8421807,-0.6602436,4.406012
0.23579697,0.04468822,-0.13291752,3.7225027,-0.63967794,4.2687716
0.22845256,0.043296307,-0.12877752,3.6065574,-0.6197538,4.1358113
0.2213372,0.041947804,-0.124766625,3.494228,-0.600451,4.0069976
0.21444371,0.040641353,-0.1208808,3.385401,-0.5817501,3.882201
0.20776516,0.039375633,-0.11711613,3.2799673,-0.5636323,3.761295
0.20129481,0.038149375,-0.11346883,3.1778207,-0.54607934,3.6441586
0.19502616,0.03696134,-0.10993523,3.0788581,-0.52907354,3.5306735
0.18895291,0.035810336,-0.10651177,2.9829803,-0.5125978,3.420726
0.18306895,0.034695208,-0.10319501,2.8900907,-0.4966356,3.3142052
0.17736836,0.033614833,-0.09998161,2.800096,-0.48117083,3.2110038
0.1718454,0.032568127,-0.09686836,2.712906,-0.466188,3.1110187
0.16649455,0.031554032,-0.09385211,2.6284325,-0.45167205,3.0141492
0.16131043,0.030571537,-0.09092984,2.5465913,-0.43760836,2.9202979
0.15628782,0.029619653,-0.08809863,2.4673,-0.42398286,2.8293705
0.15142168,0.028697424,-0.08535562,2.3904788,-0.41078186,2.741276
0.14670715,0.027803926,-0.082698055,2.3160508,-0.3979921,2.655926
0.14213948,0.02693826,-0.08012328,2.2439413,-0.38560075,2.5732348
0.13771409,0.02609956,-0.07762871,2.1740782,-0.3735954,2.4931192
0.13342653,0.025286984,-0.07521184,2.1063912,-0.361964,2.4154992
0.12927254,0.024499718,-0.07287025,2.0408123,-0.35069486,2.3402967
0.12524791,0.02373697,-0.07060159,1.9772758,-0.33977672,2.2674367
0.12134863,0.022997981,-0.06840359,1.9157183,-0.32919863,2.1968458
0.11757078,0.022282004,-0.06627404,1.8560779,-0.31894997,2.1284533
0.11391059,0.021588326,-0.0642108,1.7982949,-0.3090205,2.0621905
0.110364385,0.020916248,-0.062211826,1.7423112,-0.2994002,1.9979914
0.10692861,0.0202651,-0.060275096,1.688071,-0.29007953,1.9357916
0.10359982,0.019634228,-0.05839868,1.6355197,-0.28104907,1.8755286
0.10037469,0.019023001,-0.05658069,1.584605,-0.27229983,1.8171421
0.09724998,0.018430807,-0.05481931,1.5352755,-0.26382303,1.7605737
0.09422257,0.017857052,-0.05311277,1.4874821,-0.25561017,1.7057667
0.09128942,0.017301163,-0.05145937,1.4411768,-0.24765301,1.6526662
0.0884476,0.01676258,-0.04985745,1.3963132,-0.23994362,1.601219
0.08569426,0.016240768,-0.048305407,1.3528465,-0.23247428,1.5513737
0.08302665,0.015735203,-0.046801686,1.3107332,-0.22523749,1.5030804
0.080442086,0.015245377,-0.045344785,1.2699311,-0.218226,1.4562906
0.077938,0.014770802,-0.043933243,1.2303993,-0.21143283,1.4109576
0.07551187,0.014311003,-0.042565648,1.1920981,-0.20485114,1.3670359
0.073161274,0.013865517,-0.04124063,1.1549896,-0.19847436,1.3244817
0.070883855,0.0134339025,-0.03995686,1.1190362,-0.19229612,1.2832522
0.06867734,0.013015724,-0.03871306,1.0842023,-0.18631022,1.2433065
0.066539526,0.012610565,-0.037507985,1.0504527,-0.18051067,1.2046043
0.06446826,0.012218018,-0.036340423,1.0177538,-0.17489167,1.1671069
0.062461473,0.011837693,-0.03520921,0.9860729,-0.16944759,1.1307769
0.060517162,0.011469207,-0.03411321,0.9553783,-0.16417299,1.0955778
0.05863338,0.011112193,-0.03305133,0.9256392,-0.15906261,1.0614747
0.05680824,0.010766293,-0.03202251,0.8968259,-0.15411131,1.0284331
0.05503992,0.01043116,-0.031025715,0.8689096,-0.14931415,0.9964201
0.053326644,0.010106461,-0.030059952,0.8418623,-0.14466631,0.9654037
0.051666707,0.00979187,-0.029124252,0.815657,-0.14016318,0.9353528
0.05005844,0.009487071,-0.02821768,0.79026747,-0.13580021,0.9062374
0.048500236,0.009191761,-0.02733933,0.7656683,-0.13157308,0.8780284
0.046990544,0.008905644,-0.026488323,0.7418349,-0.12747753,0.85069746
0.045527842,0.008628433,-0.025663806,0.7187434,-0.12350946,0.8242174
0.044110674,0.008359851,-0.024864957,0.6963707,-0.11966492,0.7985615
0.04273762,0.0080996305,-0.024090974,0.6746945,-0.11594006,0.77370435
