ax,ay,az,gx,gy,gz
0.4172765,-3.528214,-2.4618404,219.39563,8.8782625,-15.758325
0.39189202,-3.3794544,-2.269424,220.62938,19.421398,-12.670188
0.2962698,-2.226898,-2.4825764,211.7771,29.575466,-8.062751
0.121900715,-0.42122173,-2.9022803,191.32535,33.40708,-5.5510855
-0.022114426,1.31888,-3.2832265,157.18826,30.295916,-6.322345
-0.03583115,2.5734787,-3.5175228,123.71077,25.92865,-10.407241
-0.012305253,3.2927558,-3.7319672,96.04455,21.905647,-15.882224
-0.0660518,3.7154002,-4.0855947,75.30022,15.540222,-22.261992
-0.11292731,3.9986668,-4.451472,56.93283,7.487064,-27.86313
-0.10478507,4.198265,-4.7978854,36.372314,-2.7016284,-32.815453
0.04107742,4.1003947,-5.03323,16.418558,-12.3669405,-37.30363
0.24404761,3.7780616,-5.1594243,-0.5712392,-20.019846,-42.376965
0.42201322,3.3171802,-5.263687,-14.37748,-26.561758,-47.58161
0.5412282,2.6948864,-5.348843,-24.776257,-33.415714,-52.376404
0.6085137,1.8900317,-5.3367653,-32.10321,-41.262386,-54.546215
0.68113136,0.94856393,-5.149063,-37.619667,-48.4323,-54.21271
0.7838709,-0.038512804,-4.828354,-41.126404,-54.26691,-51.68549
0.91685385,-1.0658238,-4.3964057,-42.23416,-58.246826,-47.97617
1.0639848,-2.06421,-3.9064581,-40.380222,-60.078518,-43.090916
1.2085836,-2.9351337,-3.4298503,-35.46834,-59.753925,-36.352554
1.3385369,-3.5621588,-2.964998,-29.37425,-58.077938,-28.341513
1.4384059,-3.916901,-2.5464175,-22.50336,-55.716484,-20.333239
1.5154493,-4.0381784,-2.151884,-16.1296,-52.914383,-12.627346
1.5838581,-4.0041494,-1.7708412,-10.521219,-49.61243,-5.607032
1.6321483,-3.86929,-1.4137228,-5.8986607,-45.523537,0.68562865
1.6361103,-3.6142972,-1.1236818,-1.8096788,-41.279034,6.2424955
1.6042261,-3.2636573,-0.90436894,1.4542785,-37.243748,11.031919
1.5422616,-2.8379107,-0.74959815,3.8583953,-33.630985,14.934843
1.4525481,-2.371963,-0.65280783,5.271908,-30.44008,18.042427
1.3457906,-1.9037088,-0.6080795,5.3198977,-27.898329,20.32055
1.2539824,-1.484602,-0.60629535,5.1298904,-25.825333,21.857601
1.1860323,-1.1122723,-0.6258141,4.960913,-24.061773,22.68926
1.143369,-0.7632812,-0.6626405,4.693979,-22.52967,22.985443
1.1237706,-0.42644238,-0.7066693,4.434463,-21.021406,22.685797
1.1092939,-0.09714178,-0.76862425,4.032346,-19.602976,21.714731
1.0836539,0.22006315,-0.86402833,3.5201395,-18.503618,20.328716
1.0522745,0.51813877,-0.9735986,2.9068446,-17.799154,18.548733
1.0174339,0.79617757,-1.0879704,1.8265151,-17.378046,16.455004
0.9782471,1.045977,-1.2047817,0.30197757,-17.24335,14.051581
0.9473766,1.2677491,-1.3194233,-1.6306309,-17.306925,11.035947
0.9309256,1.4408212,-1.4407331,-3.8167777,-17.56424,7.7348986
0.92981625,1.5515256,-1.5685871,-6.0509777,-18.07048,4.1864667
0.93419665,1.5979482,-1.7013469,-8.071315,-18.866863,0.6127143
0.9354947,1.5987965,-1.8340926,-9.887696,-20.026947,-2.8791187
0.93239737,1.577523,-1.9544575,-11.799667,-21.539164,-6.3630376
0.91744107,1.5042521,-2.0586567,-13.720584,-23.310396,-9.8323965
0.9042753,1.3827817,-2.1435087,-15.665469,-25.404604,-13.101769
0.8977149,1.2104425,-2.193086,-17.872587,-27.71101,-16.052044
0.89844066,0.96457285,-2.2054253,-20.172405,-30.278862,-18.64284
0.91988724,0.6307634,-2.1705568,-22.184862,-32.968853,-20.508476
0.99264085,0.18988828,-2.0603848,-23.96452,-35.44906,-21.504797
1.1008224,-0.31819975,-1.8936034,-25.093958,-37.295124,-21.66184
1.2147803,-0.8832085,-1.6978172,-24.955019,-38.33084,-21.174702
1.3051956,-1.4624714,-1.4971495,-23.31693,-38.64957,-19.832895
1.3695892,-1.9726547,-1.3017246,-20.68431,-38.15171,-16.957783
1.4120426,-2.3855796,-1.1193349,-17.645037,-37.20484,-13.21563
1.4551512,-2.7374778,-0.95349336,-14.10643,-35.977413,-9.029893
1.5231827,-3.0566041,-0.8014767,-9.947573,-34.34826,-4.437304
1.6084769,-3.31879,-0.6669607,-5.2118793,-32.09752,0.7664041
1.6853006,-3.413779,-0.56650746,-0.46752387,-29.362135,6.5148396
1.7441812,-3.2382195,-0.4935358,3.7011397,-26.443663,12.233059
1.7737218,-2.914399,-0.44887462,7.2492814,-23.714375,17.405066
1.7654251,-2.5271494,-0.41549397,10.315073,-21.33639,22.158585
1.7257836,-2.072893,-0.38945723,12.9246645,-19.192095,26.275562
1.663469,-1.545238,-0.3789215,13.991479,-17.076246,28.945301
1.592525,-1.032673,-0.3879467,14.347681,-15.038499,30.314713
1.542417,-0.57247406,-0.40586326,13.954367,-12.93107,30.759356
1.510381,-0.16518427,-0.43728256,13.27951,-10.887017,30.388443
1.4852343,0.16837318,-0.47802535,12.383656,-9.1007395,29.127487
1.4378748,0.1630043,-0.4627826,11.98878,-8.810546,28.198702
1.3920932,0.15781426,-0.4480477,11.6070595,-8.53002,27.300861
1.3478308,0.15279646,-0.43380177,11.238007,-8.258802,26.432814
1.3050314,0.14794454,-0.42002672,10.881152,-7.996551,25.59346
1.2636418,0.14325242,-0.4067054,10.536052,-7.742937,24.781754
1.2236109,0.13871433,-0.3938214,10.20228,-7.4976487,23.996693
1.1848899,0.13432473,-0.38135895,9.879431,-7.2603865,23.23732
1.1474321,0.13007833,-0.3693031,9.567113,-7.0308647,22.502722
1.111193,0.12597008,-0.35763943,9.264956,-6.8088098,21.79202
1.0761296,0.12199513,-0.34635422,8.972603,-6.5939593,21.10438
1.0422009,0.118148826,-0.33543426,8.689712,-6.3860626,20.438993
1.0093678,0.11442672,-0.32486686,8.415955,-6.184879,19.795092
0.9775926,0.110824525,-0.31463996,8.151017,-5.9901767,19.171936
0.946839,0.107338145,-0.30474183,7.894598,-5.8017344,18.568813
0.9170721,0.10396363,-0.2951613,7.6464067,-5.6193385,17.985044
0.88825864,0.100697204,-0.28588766,7.4061646,-5.442785,17.419973
0.86036646,0.097535215,-0.2769105,7.1736035,-5.2718763,16.872969
0.83336467,0.09447416,-0.26821992,6.948467,-5.1064234,16.343426
0.80722344,0.09151067,-0.25980633,6.7305055,-4.9462433,15.830761
0.78191423,0.088641495,-0.2516605,6.519481,-4.791162,15.334414
0.75740945,0.085863516,-0.2437736,6.315164,-4.6410093,14.853841
0.7336826,0.08317372,-0.23613705,6.1173325,-4.4956236,14.388523
0.7107079,0.080569215,-0.22874263,5.9257736,-4.354847,13.93796
0.68846095,0.078047186,-0.22158238,5.7402816,-4.2185287,13.501665
0.66691774,0.07560495,-0.21464868,5.560658,-4.0865235,13.079174
0.64605546,0.0732399,-0.20793411,5.386711,-3.9586902,12.670035
0.6258519,0.07094953,-0.20143157,5.2182574,-3.8348935,12.273816
0.60628575,0.06873142,-0.19513418,5.055118,-3.7150025,11.890098
0.5873364,0.06658323,-0.18903528,4.897121,-3.5988908,11.518475
0.5689839,0.06450271,-0.1831285,4.744101,-3.4864364,11.158557
0.5512091,0.062487673,-0.17740765,4.595897,-3.3775215,10.809969
0.5339934,0.060536016,-0.17186674,4.452355,-3.2720325,10.472344
0.51731884,0.05864571,-0.1665,4.3133254,-3.1698596,10.145333
0.50116813,0.05681479,-0.16130187,4.178663,-3.0708964,9.828596
0.4855245,0.055041354,-0.15626694,4.0482287,-2.9750404,9.521803
0.47037178,0.05332357,-0.15139002,3.9218879,-2.8821926,9.224637
0.45569435,0.051659666,-0.14666605,3.7995098,-2.7922568,8.936792
0.44147706,0.050047927,-0.14209019,3.680968,-2.7051408,8.657972
0.42770532,0.0484867,-0.13765773,3.5661414,-2.6207547,8.387889
0.41436493,0.046974372,-0.13336411,3.4549115,-2.539012,8.1262665
0.4014423,0.045509398,-0.12920493,3.3471644,-2.4598286,7.872835
0.38892412,0.04409028,-0.12517594,3.24279,-2.3831239,7.627337
0.37679768,0.042715568,-0.12127301,3.1416812,-2.3088193,7.38952
0.36505052,0.041383855,-0.11749217,3.0437353,-2.2368388,7.1591425
0.35367072,0.040093787,-0.11382956,2.9488523,-2.1671095,6.935969
0.34264666,0.038844045,-0.110281445,2.8569355,-2.0995598,6.7197723
0.33196715,0.037633367,-0.10684423,2.7678912,-2.0341213,6.510332
0.32162133,0.036460515,-0.10351441,2.6816294,-1.9707276,6.3074365
0.3115987,0.0353243,-0.10028861,2.5980623,-1.909314,6.110879
0.3018891,0.034223575,-0.09716355,2.5171049,-1.8498186,5.92046
0.29248267,0.03315722,-0.094136074,2.4386756,-1.792181,5.735987
0.2833699,0.032124154,-0.091203116,2.3626947,-1.7363428,5.5572734
0.2745416,0.031123333,-0.0883617,2.2890856,-1.6822474,5.3841376
0.26598877,0.030153746,-0.08560897,2.2177737,-1.6298403,5.2164054
0.25770286,0.029214414,-0.08294213,2.148687,-1.5790684,5.053907
0.24967542,0.028304387,-0.08035848,2.0817554,-1.5298805,4.896478
0.2418984,0.027422749,-0.07785544,2.016912,-1.4822271,4.7439604
0.23436396,0.026568606,-0.07543046,1.9540908,-1.43606,4.5961995
0.22706448,0.025741104,-0.07308111,1.8932289,-1.3913325,4.453047
0.21999262,0.024939405,-0.07080502,1.8342648,-1.3479998,4.3143578
0.21314125,0.0241627,-0.068599895,1.7771391,-1.3060182,4.179993
0.20650348,0.02341021,-0.066463515,1.7217944,-1.2653455,4.049817
0.20007263,0.022681179,-0.06439374,1.6681749,-1.2259406,3.9236994
0.19384222,0.021974871,-0.06238847,1.6162268,-1.1877639,3.8015125
0.18780601,0.021290578,-0.060445704,1.5658977,-1.1507771,3.683134
0.1819579,0.020627609,-0.058563482,1.5171372,-1.114943,3.5684447
0.17629205,0.0199853,-0.056739915,1.4698961,-1.0802256,3.4573295
0.17080274,0.019363007,-0.05497317,1.4241271,-1.04659,3.3496766
0.16548447,0.018760102,-0.053261474,1.3797841,-1.0140023,3.245378
0.16033189,0.018175982,-0.05160311,1.3368227,-0.9824301,3.1443288
0.15533985,0.01761006,-0.04999641,1.2951999,-0.9518415,3.046428
0.15050332,0.017061768,-0.048439763,1.2548736,-0.9222057,2.951577
0.14581746,0.016530557,-0.04693161,1.2158036,-0.8934932,2.8596807
0.14127755,0.016015891,-0.045470435,1.1779505,-0.86567503,2.770647
0.13687906,0.015517257,-0.044054773,1.1412766,-0.83872336,2.6843865
0.13261756,0.015034154,-0.042683203,1.105745,-0.81261116,2.6008127
0.1284888,0.014566097,-0.04135435,1.0713199,-0.7873122,2.519842
0.12448862,0.014112619,-0.040066887,1.0379671,-0.76280123,2.441393
0.12061302,0.013673263,-0.038819518,1.0056529,-0.7390536,2.3653872
0.116858125,0.01324759,-0.037610997,0.9743451,-0.7160455,2.2917485
0.113220155,0.012835172,-0.03644011,0.9440123,-0.69375396,2.220403
0.10969547,0.012435597,-0.035305686,0.91462404,-0.6721566,2.151279
0.10628055,0.012048466,-0.034206588,0.88615096,-0.6512317,2.0843077
0.10297196,0.011673389,-0.033141714,0.8585645,-0.63095844,2.0194218
0.0997664,0.011309992,-0.03211,0.831837,-0.6113164,1.9565563
0.09666065,0.010957909,-0.031110406,0.80594176,-0.592286,1.8956484
0.09365161,0.01061679,-0.03014194,0.7808528,-0.5738481,1.8366368
0.090736255,0.010286291,-0.029203627,0.756545,-0.5559844,1.7794627
0.08791167,0.009966083,-0.02829453,0.732994,-0.5386768,1.7240688
0.08517503,0.009655844,-0.027413737,0.71017635,-0.5219081,1.6703994
0.08252359,0.009355265,-0.026560368,0.6880691,-0.5056615,1.6184012
0.079954706,0.009064044,-0.025733568,0.6666501,-0.48992068,1.5680218
0.0774658,0.008781889,-0.024932507,0.645898,-0.47466996,1.5192109
0.075054385,0.00850852,-0.024156388,0.62579197,-0.45989406,1.4719197
0.07271804,0.00824366,-0.023404432,0.60631186,-0.44557816,1.4261007
0.070454426,0.007987048,-0.022675885,0.5874382,-0.43170792,1.3817081
0.06826129,0.0077384226,-0.021970019,0.5691522,-0.41826952,1.3386978
0.06613643,0.0074975383,-0.021286128,0.5514354,-0.40524948,1.2970263
0.06407772,0.007264153,-0.02062353,0.53427017,-0.39263478,1.2566521
0.062083095,0.007038033,-0.019981556,0.51763934,-0.3804128,1.2175349
0.060150567,0.006818953,-0.019359568,0.50152624,-0.36857125,1.1796353
0.058278203,0.0066066924,-0.018756945,0.4859147,-0.35709837,1.1429156
0.05646412,0.00640104,-0.01817308,0.4707892,-0.34598264,1.107339
0.054706518,0.0062017892,-0.01760739,0.45613456,-0.33521295,1.07287
0.053003624,0.0060087414,-0.017059311,0.4419361,-0.32477853,1.0394739
0.05135374,0.005821703,-0.016528295,0.42817965,-0.3146689,1.0071175
0.04975522,0.005640487,-0.016013809,0.4148514,-0.304874,0.97576827
0.04820646,0.0054649124,-0.015515337,0.40193808,-0.29538402,0.945395
0.046705913,0.005294803,-0.015032383,0.38942674,-0.28618944,0.91596717
0.045252074,0.0051299892,-0.014564462,0.37730485,-0.27728108,0.8874554
0.043843493,0.0049703056,-0.014111107,0.36556032,-0.26865003,0.85983115
