ax,ay,az,gx,gy,gz
-0.09090992,-0.104546405,-0.060909647,16.868336,-3.4400313,-9.321902
-0.11382325,0.002442539,-0.1228934,16.392185,-3.1970181,-8.428097
-0.07703946,0.015549328,-0.03825838,16.28225,-3.3669977,-8.406737
-0.046428844,0.035244267,0.043815427,14.896088,-2.9760404,-8.246207
-0.03529499,0.04723185,0.078578025,13.558718,-2.40088,-7.823533
-0.027799126,0.059936203,0.06242985,10.840096,-1.8317801,-7.0540824
-0.018407797,0.016556222,0.0037075928,8.038489,-0.67300886,-6.39567
0.012808536,-0.05288113,-0.040112983,6.5758047,1.4517475,-5.906369
0.03014355,-0.17229012,-0.070005395,6.8794875,3.7519968,-5.8873277
0.024627917,-0.27851155,-0.17788577,7.782826,5.378055,-6.3570194
0.00712687,-0.3940319,-0.36034286,9.351172,6.0719247,-7.0677752
-0.015370037,-0.53402805,-0.575007,11.805748,5.5698304,-7.7892413
-0.019108193,-0.6695872,-0.765562,14.069106,4.0664034,-8.001503
-0.019100072,-0.8042992,-0.963112,15.991267,0.84236276,-7.4878907
0.016395904,-0.9209955,-1.1281062,16.677343,-2.764028,-6.518387
0.08253225,-1.0367305,-1.2485837,16.5947,-5.8415675,-5.298329
0.17036818,-1.1630844,-1.3395954,15.68315,-8.202189,-3.6652782
0.26164493,-1.3058819,-1.4394727,14.220778,-10.140934,-1.6989644
0.3406574,-1.4674156,-1.5823857,12.536871,-12.682211,0.9202533
0.39584917,-1.6185732,-1.7415782,10.771744,-15.648635,3.8856707
0.45018324,-1.742455,-1.8932945,9.067986,-18.77624,7.1074705
0.50948906,-1.8392664,-2.0458488,7.4697933,-21.865606,10.267091
0.5569889,-1.9281226,-2.1935537,5.972284,-24.774712,13.341852
0.5869644,-2.027741,-2.3119159,5.044555,-27.726023,16.549967
0.63330674,-2.09897,-2.3699167,4.17505,-30.799475,20.048876
0.7047792,-2.124677,-2.3868577,3.021847,-33.699024,23.65584
0.7728252,-2.0977204,-2.3653412,1.5968803,-36.471657,27.081287
0.824095,-2.0325658,-2.314108,0.24017647,-39.287437,30.189388
0.86259,-1.9361645,-2.2185876,-1.1579868,-42.41343,32.93969
0.90455836,-1.811444,-2.0657835,-2.402252,-45.293594,35.46491
0.94955325,-1.641873,-1.8736273,-3.5919263,-47.917206,37.70691
0.99229497,-1.4230115,-1.6233232,-4.8489375,-50.08507,39.495525
1.0194172,-1.1745628,-1.3117094,-6.2206483,-51.693336,40.821667
1.0382754,-0.90485775,-0.9743414,-7.5436215,-52.600174,41.437805
1.0546143,-0.6357356,-0.65347195,-8.269893,-52.86611,41.47591
1.0683054,-0.3631763,-0.3604274,-8.142481,-52.566452,40.89009
1.0848979,-0.07851856,-0.08056364,-7.689086,-51.760216,39.719826
1.1085578,0.21109262,0.18871912,-7.10747,-50.4577,37.989082
1.1371024,0.4917144,0.43565306,-6.95986,-48.651752,35.71237
1.163243,0.735143,0.6244547,-6.95087,-46.598267,33.109867
1.1864421,0.9540372,0.7614042,-6.9643793,-44.544308,30.309002
1.2142622,1.1671457,0.8616134,-6.826226,-42.7341,27.229437
1.2454389,1.371539,0.9407124,-6.4945154,-41.121136,23.841166
1.2730755,1.5630031,1.0091472,-6.0975285,-39.75687,19.997211
1.3043987,1.7255123,1.082679,-5.8477783,-38.3162,15.966812
1.3493512,1.8536174,1.1531281,-5.5915403,-36.4969,11.838148
1.3970746,1.9584211,1.2023436,-5.236318,-34.47665,7.549017
1.4484502,2.0389724,1.2231505,-4.7280474,-32.389843,3.048934
1.4982468,2.0921264,1.218304,-3.86556,-30.24088,-1.6872165
1.5329566,2.129078,1.1896443,-2.821892,-28.247128,-6.553051
1.570193,2.156833,1.1656762,-2.1009076,-26.405142,-11.505159
1.6160991,2.1706996,1.1467918,-1.8460425,-24.531584,-16.46139
1.6621976,2.1594179,1.1176009,-1.9311959,-22.643625,-21.373968
1.7009754,2.1237133,1.076934,-2.2669098,-20.879385,-26.201384
1.7303935,2.0646229,1.0282716,-2.7700887,-19.253567,-30.911957
1.7513034,1.9849701,0.9730183,-3.3997853,-17.85277,-35.483376
1.7668802,1.8794156,0.90340376,-4.014546,-16.615444,-39.914192
1.7760932,1.7502441,0.8187382,-4.451062,-15.416828,-44.22893
1.7795205,1.5892735,0.72727215,-4.451224,-14.386764,-48.34124
1.7878096,1.3842839,0.6480788,-4.509033,-13.4947,-52.031082
1.800289,1.1495252,0.5766802,-4.79676,-12.737158,-55.202225
1.8152797,0.8879628,0.50745696,-5.4421916,-12.176189,-57.754173
1.8322377,0.5976174,0.44109297,-6.213136,-11.721531,-59.69468
1.8521568,0.273482,0.38488886,-6.8708425,-11.359319,-60.67468
1.8717136,-0.07832718,0.35973215,-7.5079303,-10.936892,-60.79232
1.8928827,-0.44025034,0.35970864,-8.303596,-10.407385,-59.97112
1.9133332,-0.80094266,0.38083762,-9.436057,-9.760868,-58.2037
1.925767,-1.1473087,0.40877077,-10.651321,-8.876519,-55.648575
1.9212712,-1.4666064,0.43867126,-11.184438,-7.7138944,-52.352833
1.8891525,-1.7384228,0.46922937,-10.75191,-6.4831276,-48.87736
1.8507807,-1.9698207,0.5239228,-9.921786,-5.2311835,-45.11736
1.8167346,-2.1585333,0.6076749,-9.569434,-3.859706,-40.948433
1.7847347,-2.3166842,0.6980895,-9.742353,-2.3494532,-36.450245
1.7504271,-2.4485352,0.7934231,-10.168946,-0.6392175,-31.71113
1.7163587,-2.553344,0.90457135,-10.556414,1.3435786,-26.941978
1.6967274,-2.6398818,1.0188862,-10.749657,3.638131,-22.1705
1.6896864,-2.706336,1.1325066,-10.747486,6.268793,-17.41382
1.6910228,-2.7541733,1.2359245,-10.581534,9.251454,-12.582498
1.7004884,-2.7793171,1.314088,-10.36704,12.491701,-7.5805206
1.7204936,-2.7496388,1.3607787,-10.382708,15.875332,-2.661516
1.7396952,-2.6779482,1.3739856,-10.720908,19.347773,2.119798
1.753021,-2.5589855,1.3320857,-11.372932,22.808226,6.6067934
1.7535865,-2.4026053,1.2245576,-12.213287,25.938536,10.6941805
1.7411815,-2.2094305,1.0583267,-13.383562,28.323698,14.299248
1.7201566,-1.9668312,0.8300891,-14.635276,30.013042,17.309427
1.6971033,-1.7061142,0.57576984,-15.777948,30.966091,19.587084
1.6800271,-1.446219,0.31397092,-16.514473,31.413656,21.115831
1.6703962,-1.1944504,0.05976343,-16.737392,31.508087,21.916199
1.6762469,-0.9619507,-0.18500522,-16.602999,31.297138,22.10933
1.7040999,-0.75288665,-0.43565813,-16.25864,30.903542,21.982615
1.740968,-0.549112,-0.6900391,-15.904194,30.157236,21.559752
1.7746943,-0.35646406,-0.93785787,-15.78842,29.014107,20.966825
1.7961462,-0.17573962,-1.1754178,-16.020203,27.477303,20.285686
1.800585,0.0007692637,-1.4020199,-16.634298,25.238552,19.490479
1.7957493,0.17526555,-1.611575,-17.261423,22.608498,18.523735
1.7895653,0.33946726,-1.802536,-17.763765,19.591942,17.417648
1.7868903,0.48295078,-1.9707466,-17.96786,16.248875,16.195736
1.795645,0.5988765,-2.1137455,-17.522638,12.635383,14.842535
1.8207161,0.69558966,-2.2209928,-16.414413,8.887766,13.54152
1.859962,0.78941494,-2.2877834,-15.259067,5.216154,12.290983
1.8719565,0.86532855,-2.359344,-13.854127,1.5876023,10.854844
1.8713334,0.9128757,-2.4591634,-11.58804,-2.2680342,9.185561
1.8847787,0.94128984,-2.5685222,-8.5375595,-6.5094333,7.4772763
1.9376627,0.99031854,-2.6115816,-5.6057367,-11.368272,5.8549967
1.9869522,1.0409607,-2.5806978,-3.6040344,-16.350866,4.234098
2.0236495,1.0652074,-2.5140557,-2.552649,-21.013357,2.7192702
2.0509908,1.0567459,-2.4635425,-1.3742676,-25.421133,1.1757766
2.0810628,1.021379,-2.4366982,0.40121964,-29.782183,-0.50211823
2.1188326,0.9789168,-2.3617253,2.4333086,-34.613907,-1.9732481
2.164963,0.95213014,-2.1170437,3.3872046,-39.111614,-3.234615
2.212643,0.9003624,-1.807645,3.4623804,-42.743412,-4.2128987
2.2603273,0.8197832,-1.4976381,3.3239627,-45.51747,-5.0616083
2.3045876,0.7057471,-1.1953954,3.6655934,-47.595856,-5.733438
2.3267334,0.5779759,-0.88842016,4.5958776,-49.009907,-6.070345
2.331012,0.47346237,-0.5646403,5.392441,-49.930748,-6.1607904
2.3154902,0.38620955,-0.25322378,5.8749657,-50.35105,-6.117162
2.2859926,0.308851,0.02951385,6.0704036,-50.288376,-5.930322
2.2472575,0.23883274,0.28238425,6.115172,-49.828213,-5.593348
2.202129,0.18561561,0.5112782,5.966468,-48.825176,-5.0976343
2.1554182,0.15509222,0.71585655,5.565661,-47.404655,-4.476656
2.1154,0.1420659,0.90317446,4.8084416,-45.593002,-3.783806
2.0789988,0.13661176,1.067635,3.8561828,-43.343506,-3.0973482
2.0416465,0.1249103,1.2014799,2.9982846,-40.76489,-2.4513478
2.0045872,0.0988082,1.3016479,2.3934395,-37.865566,-1.7171289
1.9715189,0.066355966,1.3633668,1.8645003,-34.86086,-0.8194778
1.9408214,0.04326384,1.4007959,1.0782967,-31.851015,0.2669031
1.9103339,0.026560744,1.4144136,0.084661916,-28.90845,1.5284907
1.8749729,0.028256305,1.4088256,-0.9977413,-26.127977,2.6747072
1.8454797,0.038993254,1.403256,-2.3581512,-23.299257,3.610304
1.8233216,0.040768653,1.3982964,-4.0106897,-20.440887,4.623179
1.8022903,0.040402144,1.3771101,-5.858794,-17.696325,5.703323
1.7793922,0.038988248,1.3385533,-7.736734,-15.084842,6.8011174
1.7524433,0.034037244,1.2776561,-9.561837,-12.607977,7.9426074
1.7208226,0.022856876,1.1961427,-11.449789,-10.449675,9.333606
1.6824336,0.013208229,1.0983927,-13.459478,-8.6190195,10.989157
1.6385462,0.02039469,0.9931019,-15.497745,-7.098194,12.743265
1.5902038,0.055069666,0.8862034,-17.527613,-5.961137,14.258349
1.5424645,0.096261635,0.78276026,-19.365013,-5.1521645,15.526701
1.4944378,0.09326441,0.758388,-18.762058,-4.991745,15.043257
1.4479074,0.09036055,0.73477507,-18.177889,-4.8363237,14.574874
1.4028267,0.08754717,0.71189773,-17.611917,-4.685744,14.121083
1.3591502,0.08482142,0.689733,-17.063576,-4.539855,13.681428
1.3168342,0.082180575,0.6682588,-16.532316,-4.3985105,13.255468
1.2758362,0.079621986,0.6474534,-16.017605,-4.2615685,12.842777
1.2361153,0.077143095,0.6272961,-15.518924,-4.128892,12.442939
1.1976315,0.07474141,0.60776657,-15.035775,-4.0003476,12.055554
1.1603463,0.072414525,0.58884525,-14.567674,-3.8758068,11.680235
1.1242222,0.070160106,0.57051325,-14.114151,-3.7551446,11.316605
1.089223,0.06797589,0.55275214,-13.674752,-3.63824,10.964298
1.055314,0.0658597,0.53554416,-13.249037,-3.5249763,10.622963
1.0224607,0.06380941,0.51887196,-12.836578,-3.4152396,10.292257
0.99063057,0.061822962,0.50271904,-12.436963,-3.30892,9.97185
0.9597916,0.059898373,0.48706904,-12.049792,-3.2059112,9.66142
0.92991287,0.05803371,0.47190636,-11.674677,-3.1061096,9.360656
0.9009645,0.056227107,0.45721582,-11.311242,-3.0094159,9.069256
0.8729175,0.05447676,0.4429827,-10.959124,-2.9157329,8.78693
0.8457437,0.052780908,0.42919275,-10.617968,-2.8249667,8.513395
0.81941605,0.05113786,0.41583213,-10.287435,-2.7370265,8.248377
0.7939081,0.049545966,0.40288752,-9.967193,-2.6518245,7.991609
0.7691943,0.048003636,0.39034593,-9.656921,-2.5692751,7.7428365
0.74525,0.046509326,0.3781948,-9.35631,-2.489296,7.5018086
0.72205114,0.04506154,0.366422,-9.065058,-2.4118066,7.2682853
0.69957453,0.043658827,0.35501572,-8.782873,-2.33673,7.042032
0.6777977,0.042299785,0.34396455,-8.509474,-2.2639906,6.8228226
0.6566988,0.040983055,0.3332574,-8.244586,-2.1935158,6.610438
0.6362568,0.039707314,0.32288364,-7.9879446,-2.125235,6.404665
0.61645114,0.03847129,0.31283277,-7.739293,-2.05908,6.2052984
0.5972621,0.037273746,0.30309483,-7.4983826,-1.9949844,6.0121384
0.57867044,0.036113482,0.29366007,-7.2649717,-1.9328842,5.8249917
0.56065756,0.03498934,0.284519,-7.038827,-1.8727171,5.6436706
0.5432054,0.03390019,0.27566248,-6.8197227,-1.8144233,5.4679947
0.52629656,0.03284495,0.26708168,-6.6074386,-1.7579441,5.297787
0.50991404,0.03182256,0.25876802,-6.4017634,-1.7032231,5.132879
0.4940416,0.03083199,0.25071314,-6.202491,-1.6502055,4.9731035
0.4786632,0.029872263,0.24290901,-6.0094213,-1.5988383,4.818302
0.46376354,0.028942408,0.23534782,-5.8223624,-1.5490704,4.6683197
0.44932768,0.0280415,0.22802201,-5.641126,-1.5008515,4.5230064
0.43534124,0.027168639,0.22092424,-5.465532,-1.4541336,4.382216
0.42179015,0.026322946,0.21404743,-5.2954035,-1.4088701,4.2458086
0.4086609,0.025503581,0.20738468,-5.130571,-1.3650156,4.1136475
