ax,ay,az,gx,gy,gz
0.5745507,-2.0618367,-2.566387,37.564888,-29.352993,-37.897617
0.80680424,-2.2968128,-2.857324,73.14702,-3.3274174,-28.419441
0.80751383,-3.206262,-3.5746477,131.42416,20.095783,-28.407019
0.85341185,-3.768521,-4.316256,180.99744,34.764954,-30.821308
0.8993033,-3.790714,-4.520222,202.21109,31.385868,-24.426893
1.31033,-3.6922948,-3.9139957,194.2717,19.55568,-5.940531
1.9736793,-3.8359792,-3.0152428,172.94672,12.025578,18.445498
2.6203952,-4.050242,-2.3500638,152.29474,7.170286,41.461605
3.134921,-4.1511726,-1.9647753,131.94781,1.9450655,62.058857
3.511137,-4.2293916,-1.766558,115.93826,-3.8428187,78.910194
3.7518678,-4.264706,-1.6339619,104.79958,-9.900506,92.96713
3.9138472,-4.2543073,-1.5418674,98.2948,-15.557451,105.17089
3.9860091,-4.1549563,-1.5191108,93.95244,-20.631948,116.071846
3.9590573,-3.919906,-1.5179013,90.48696,-25.516277,126.09876
3.8330748,-3.4861279,-1.4633317,86.22582,-31.008837,135.42755
3.6874313,-2.8566024,-1.319009,80.14709,-37.27632,143.52513
3.5542638,-2.1087809,-1.0781612,72.02815,-44.25877,148.99104
3.4112027,-1.3062116,-0.7738617,64.08191,-51.256233,151.74554
3.2867205,-0.5574609,-0.46376854,57.878323,-57.07798,151.45418
3.157033,0.13888924,-0.16136402,54.346474,-61.112278,148.2589
3.0023284,0.8171906,0.11909789,52.741333,-62.99723,142.60771
2.8050606,1.4850103,0.34732458,52.503433,-62.198563,134.59584
2.533626,2.1690893,0.4753126,51.349865,-61.26623,126.02504
2.2471027,2.810648,0.53051966,48.94227,-61.251987,116.571594
1.9809946,3.3864636,0.53736556,45.700684,-61.924213,106.27334
1.7714269,3.8814027,0.5015362,41.645206,-63.311295,94.805695
1.6388928,4.286449,0.4569802,37.29661,-64.87975,82.22621
1.6135085,4.6059265,0.42591575,32.311836,-66.34349,69.541306
1.6544834,4.854107,0.38694656,26.78063,-67.23721,56.774136
1.7222008,5.0202184,0.30840677,21.242947,-67.56792,43.95578
1.7953312,5.118487,0.1761521,15.942129,-67.62346,31.253338
1.8815379,5.1703453,-0.0070363916,10.61462,-67.929054,18.594988
1.993134,5.1756144,-0.20917933,5.10419,-68.62045,6.551009
2.1231234,5.154391,-0.39137763,-0.28943545,-69.1561,-5.2633777
2.2660708,5.090802,-0.547325,-4.2318873,-68.93791,-17.699821
2.4144394,4.969485,-0.6887881,-5.956683,-68.18154,-30.641798
2.550621,4.83671,-0.8024523,-6.9687457,-68.09593,-42.089535
2.7187324,4.701922,-0.88764244,-9.824125,-69.10257,-51.186974
2.9206562,4.4754734,-0.9533221,-14.522357,-70.80278,-57.974453
3.1615274,4.11287,-0.99667734,-20.1444,-72.922905,-62.811096
3.4505742,3.607951,-0.98086715,-25.447863,-75.04927,-65.95766
3.7914362,2.99671,-0.8670531,-29.870588,-75.9215,-66.534225
4.17849,2.3306477,-0.6391832,-33.183933,-74.75839,-65.16014
4.5478954,1.7392455,-0.38290185,-35.683937,-71.7363,-62.052498
4.8611927,1.2462487,-0.1356937,-37.49839,-67.45235,-57.81054
5.1199336,0.835114,0.0956605,-38.592026,-62.147522,-52.87468
5.3328304,0.5002363,0.31070665,-39.29715,-55.527824,-47.14176
5.484913,0.25050557,0.4890998,-39.94013,-47.979595,-40.91112
5.578505,0.07244748,0.6207348,-41.1442,-40.005173,-34.005917
5.631277,-0.05704907,0.7108281,-42.756012,-31.92338,-26.980087
5.6561584,-0.15954465,0.7722176,-44.562347,-23.627365,-20.090038
5.6574287,-0.25007606,0.7930186,-45.82805,-14.558659,-13.546967
5.622704,-0.31605265,0.7367937,-46.319767,-5.308625,-7.1323233
5.5593486,-0.3411975,0.63571525,-46.37885,3.863749,-0.6847056
5.472675,-0.3130987,0.49102306,-46.50852,12.634369,5.9477386
5.3708763,-0.24907276,0.30835962,-46.484344,20.931038,12.470967
5.250593,-0.15702997,0.099472985,-46.274403,28.389334,18.934973
5.11224,-0.008240219,-0.12756011,-46.506126,34.88605,25.133434
4.96976,0.17791854,-0.3567838,-47.459354,40.34643,30.719027
4.826285,0.39374858,-0.5870806,-48.88766,44.918957,35.370552
4.67572,0.61785203,-0.82400376,-49.849243,48.56896,38.70023
4.5127697,0.82092464,-1.074793,-49.26446,50.782135,40.596416
4.3449807,0.98057896,-1.3506031,-47.621033,52.247696,41.757984
4.160289,1.1165327,-1.6569973,-45.278675,52.5704,42.41892
3.970998,1.2521302,-1.977035,-43.020664,51.479904,42.652637
3.7929533,1.3881723,-2.2956846,-41.088604,49.123356,42.584385
3.6206324,1.5045651,-2.6180656,-38.770298,45.166573,42.105736
3.4403443,1.615491,-2.9470246,-36.440464,40.16799,41.22734
3.2419717,1.752326,-3.281278,-34.276676,34.10939,39.85218
3.0424564,1.8835301,-3.6195889,-31.761002,27.062407,37.981976
2.8563066,1.9838403,-3.9626439,-28.648983,18.92679,35.69604
2.694139,2.0449247,-4.3058567,-25.125965,9.41549,32.99497
2.565435,2.0573432,-4.638963,-21.386051,-0.8822583,30.051767
2.4523556,2.0508306,-4.95412,-17.997734,-12.75916,27.075792
2.3810349,2.0245106,-5.2358694,-15.360623,-25.932238,24.106653
2.4215393,1.939085,-5.47147,-12.323106,-39.464214,20.921764
2.5759828,1.7815869,-5.6216164,-7.74268,-52.50841,18.301916
2.8438692,1.6883042,-5.599868,-4.016795,-65.11284,17.525328
3.1899025,1.7513094,-5.409439,-3.1966941,-77.862976,17.941082
3.5541525,1.8625001,-5.087426,-3.1478662,-88.970825,17.261896
3.8964026,1.9126694,-4.710378,-1.1758726,-97.06457,14.318395
4.192809,1.8526154,-4.3370404,6.4026723,-100.37071,8.870077
4.3770366,1.8476255,-3.963815,13.649227,-101.90587,4.672149
4.4765053,1.896335,-3.650414,19.059124,-103.1423,2.257193
4.513124,1.9662002,-3.4041705,22.62929,-104.878,1.1200408
4.5324945,2.0288703,-3.180967,24.636398,-107.25776,0.900892
4.579461,2.0733142,-2.9357643,25.259644,-109.475334,1.6464875
4.647296,2.0998418,-2.663401,25.066551,-110.95597,2.8776138
4.7176437,2.2585893,-2.3359334,19.995935,-112.46796,6.71613
4.8476825,2.328771,-1.9555997,12.888678,-112.9965,10.748262
4.9341536,2.2630243,-1.6915307,10.32243,-111.17372,12.161043
4.954346,2.205656,-1.498306,12.120692,-107.690506,10.3506155
4.9220934,2.1445642,-1.3457901,15.877641,-103.280174,7.0556846
4.862261,2.0822444,-1.2195343,19.328573,-98.56055,3.9070199
4.796968,2.0328119,-1.1049016,20.02989,-94.17338,2.4674063
4.7430243,1.9593594,-0.99148065,17.725763,-90.02399,2.852166
4.6879377,1.865496,-0.89958304,14.049842,-85.43305,4.25516
4.624274,1.7850618,-0.8418684,11.258604,-80.62821,5.816146
4.552897,1.7273468,-0.7949396,9.678582,-76.01475,7.0113688
4.488859,1.6964087,-0.72137225,8.613544,-71.50076,8.022177
4.4372983,1.6728778,-0.6254451,7.747852,-66.749405,8.858207
4.391543,1.6476821,-0.5276309,6.594893,-61.573723,9.627925
4.3469124,1.6521254,-0.44228685,4.2567334,-56.35293,10.617384
4.2112265,1.6005553,-0.42848116,4.1238623,-54.59391,10.28597
4.0797987,1.5506036,-0.41510874,3.995161,-52.89009,9.964955
3.952493,1.5022188,-0.40215573,3.8704965,-51.23971,9.65401
3.8291783,1.4553509,-0.3896088,3.7497401,-49.641075,9.352813
3.7097282,1.4099516,-0.37745506,3.6327682,-48.092537,9.061054
3.59402,1.3659744,-0.365682,3.51946,-46.592503,8.778435
3.4819343,1.3233743,-0.35427764,3.4097,-45.139442,8.504665
3.3733573,1.2821075,-0.3432302,3.3033752,-43.73186,8.239465
3.2681777,1.2421321,-0.33252844,3.2003777,-42.36832,7.982562
3.1662881,1.2034069,-0.32216147,3.100602,-41.047436,7.7336955
3.0675848,1.1658928,-0.31211865,3.003946,-39.767853,7.4926114
2.971967,1.1295515,-0.30238977,2.910312,-38.528275,7.2590637
2.8793375,1.094346,-0.292965,2.8196042,-37.327435,7.0328155
2.7896023,1.0602405,-0.28383467,2.7317307,-36.16412,6.8136363
2.7026703,1.0272005,-0.27498958,2.6466022,-35.037144,6.601304
2.6184535,0.9951922,-0.26642072,2.5641325,-33.945362,6.395603
2.5368664,0.96418345,-0.25811946,2.4842377,-32.887676,6.196326
2.4578261,0.93414277,-0.25007734,2.4068375,-31.863008,6.003269
2.3812532,0.9050398,-0.24228624,2.331853,-30.870323,5.816239
2.30707,0.87684506,-0.23473828,2.2592087,-29.908619,5.635045
2.2352014,0.8495301,-0.22742584,2.188831,-28.976923,5.4595056
2.165575,0.8230673,-0.22034155,2.120649,-28.074293,5.2894425
2.0981207,0.79743,-0.21347824,2.054594,-27.199821,5.1246843
2.0327702,0.7725923,-0.206829,1.9905994,-26.352625,4.965065
1.9694577,0.7485292,-0.20038712,1.9286003,-25.531849,4.8104234
1.9081194,0.72521645,-0.19414611,1.8685346,-24.736666,4.660604
1.8486937,0.7026306,-0.1880997,1.8103416,-23.966276,4.5154557
1.7911206,0.6807489,-0.1822418,1.7539629,-23.219904,4.374833
1.7353421,0.65954924,-0.17656648,1.6993417,-22.4968,4.2385936
1.6813024,0.6390104,-0.17106809,1.646423,-21.796232,4.1066008
1.6289469,0.6191117,-0.16574104,1.5951536,-21.1175,3.9787219
1.5782231,0.5998332,-0.16058002,1.545482,-20.459923,3.8548281
1.5290799,0.5811554,-0.15557984,1.4973583,-19.822836,3.7347953
1.4814681,0.5630596,-0.15073545,1.4507343,-19.2056,3.6185029
1.4353397,0.5455277,-0.14604202,1.4055629,-18.607597,3.5058339
1.3906485,0.528542,-0.14149481,1.3617989,-18.028225,3.396675
1.3473498,0.51208544,-0.13708927,1.3193983,-17.466904,3.2909174
1.3053998,0.49614158,-0.13282098,1.2783186,-16.923069,3.1884542
1.2647566,0.48069438,-0.12868564,1.2385186,-16.396175,3.0891829
1.2253795,0.46572837,-0.124679126,1.1999583,-15.8856945,2.9930036
1.1872289,0.45122853,-0.1207974,1.1625992,-15.391113,2.8998203
1.1502665,0.4371803,-0.11703659,1.1264037,-14.911938,2.8095396
1.1144555,0.42356962,-0.1133929,1.0913355,-14.447686,2.7220705
1.0797597,0.41038284,-0.10986269,1.0573596,-13.997894,2.6373255
1.0461445,0.39760676,-0.10644244,1.0244417,-13.56211,2.55522
1.013576,0.38522854,-0.10312869,0.99254894,-13.139896,2.4756713
0.9820219,0.3732358,-0.09991814,0.9616494,-12.730832,2.3986
0.9514504,0.36161652,-0.09680757,0.9317121,-12.334506,2.3239286
0.9218309,0.35035905,-0.093793854,0.90270704,-11.950521,2.2515826
0.89313364,0.33945215,-0.090873994,0.8746052,-11.578493,2.1814895
0.86533004,0.32888484,-0.088045046,0.8473783,-11.21805,2.1135786
0.83839214,0.31864658,-0.085304186,0.82099926,-10.86883,2.0477824
0.812293,0.30872712,-0.082648665,0.79544157,-10.530483,1.984035
0.7870065,0.29911652,-0.08007583,0.77067965,-10.202671,1.9222724
0.76250726,0.28980514,-0.077583104,0.74668866,-9.885066,1.8624328
0.73877084,0.28078368,-0.075167984,0.7234447,-9.57735,1.8044564
0.71577346,0.27204308,-0.07282806,0.7009244,-9.279214,1.748285
0.69349205,0.26357463,-0.070560984,0.6791052,-8.99036,1.6938624
0.6719044,0.2553698,-0.06836449,0.65796536,-8.7105,1.6411343
0.6509888,0.24742046,-0.06623639,0.6374837,-8.439352,1.5900477
0.6307244,0.23971859,-0.06417454,0.61763966,-8.176646,1.5405515
0.6110908,0.23225649,-0.062176876,0.5984134,-7.9221187,1.4925964
0.5920685,0.2250267,-0.060241405,0.5797857,-7.675515,1.4461342
0.5736384,0.21802199,-0.05836619,0.56173795,-7.4365892,1.4011184
0.555782,0.21123534,-0.05654935,0.54425204,-7.205101,1.357504
0.53848153,0.20465997,-0.054789074,0.5273105,-6.980819,1.3152474
0.52171963,0.1982893,-0.053083595,0.5108963,-6.76352,1.2743063
0.5054796,0.19211695,-0.05143121,0.49499312,-6.552985,1.2346396
0.48974502,0.18613675,-0.04983026,0.47958502,-6.3490043,1.1962079
0.47450033,0.18034272,-0.048279155,0.46465656,-6.1513734,1.1589725
0.45973018,0.17472905,-0.046776332,0.45019284,-5.959895,1.1228963
0.44541985,0.16929014,-0.04532029,0.43617937,-5.7743773,1.0879431
0.43155497,0.16402052,-0.04390958,0.42260215,-5.5946345,1.054078
0.4181217,0.15891497,-0.042542778,0.40944755,-5.420487,1.021267
0.4051066,0.15396833,-0.041218527,0.39670247,-5.2517605,0.9894776
0.39249665,0.14917569,-0.039935496,0.3843541,-5.0882864,0.9586776
0.3802792,0.14453223,-0.038692407,0.37239015,-4.929901,0.9288364
