ax,ay,az,gx,gy,gz
-2.070928,-0.6700061,-5.032773,-46.442238,-20.530188,-7.9346175
-2.4611888,-1.1145469,-5.806187,-43.01347,-34.88557,-19.654459
-2.667954,-1.6682765,-6.371667,-39.468185,-44.065884,-26.794338
-2.8207252,-2.1267335,-6.7352877,-34.258633,-50.98442,-30.066599
-2.875039,-2.5936165,-7.0359282,-27.511173,-56.8211,-32.13052
-2.902835,-3.0441434,-7.306516,-18.44329,-63.48801,-31.24738
-2.9755065,-3.3649738,-7.481426,-7.500207,-72.38063,-28.54721
-3.0297306,-3.5734565,-7.508265,2.6079886,-80.41976,-28.37301
-2.89946,-3.82209,-7.492046,13.094793,-85.94639,-30.034542
-2.6119344,-4.1015115,-7.433262,24.420069,-89.172485,-30.606083
-2.2740974,-4.2804594,-7.290713,35.481113,-91.71158,-29.146132
-1.8839875,-4.335902,-7.048906,45.575497,-94.45853,-26.051413
-1.3738897,-4.301358,-6.695219,54.765896,-96.71613,-22.382563
-0.8141537,-4.187521,-6.27592,63.27813,-98.1109,-18.255383
-0.22242545,-3.9594924,-5.7621846,70.69219,-98.13918,-14.138572
0.40738755,-3.6232266,-5.1436267,76.481255,-95.78354,-10.097651
1.0289366,-3.2215672,-4.4748993,80.33842,-90.12035,-5.536074
1.5627823,-2.742531,-3.8086345,83.10333,-83.45738,-0.9496408
2.026756,-2.2183077,-3.1435556,84.42718,-76.42975,3.5439308
2.4513032,-1.6848065,-2.5077283,84.03817,-68.59084,8.691948
2.7703109,-1.1882528,-1.9770036,82.00844,-60.25448,14.869581
2.9577894,-0.7521188,-1.5617441,78.02505,-51.239452,22.773386
2.9998486,-0.35157183,-1.2505879,73.09647,-41.66513,30.984383
2.968175,0.026385091,-1.0359576,67.876755,-31.337532,38.101265
2.837958,0.3847249,-0.9505753,63.376465,-21.59882,42.568714
2.6250694,0.72098774,-0.946026,59.50237,-13.475568,44.288513
2.3765163,1.0220397,-0.96700746,55.597416,-7.270623,44.141163
2.1140227,1.2994256,-1.0086769,51.606785,-2.9034119,43.297287
1.8537865,1.5610205,-1.0657935,47.49195,-0.050109517,41.766525
1.5994307,1.7980807,-1.1393642,43.31863,1.5980119,39.39332
1.3631408,2.015133,-1.2199839,39.32542,2.2194006,35.86351
1.1635958,2.195787,-1.3044958,35.559708,1.3691452,30.89511
1.0084518,2.3254626,-1.3834769,32.074963,-0.3735205,25.723515
0.88746285,2.4321904,-1.4228623,28.612864,-2.8287804,20.650192
0.80301726,2.5246885,-1.4077607,24.899061,-5.0062766,15.740488
0.76876825,2.585995,-1.3609945,20.994402,-6.4208302,11.07369
0.78239304,2.6203,-1.2872411,16.793005,-6.8635855,6.7558265
0.8524126,2.6121418,-1.1840494,12.495318,-6.6230407,3.0362842
0.93461895,2.5806892,-1.0808733,8.066203,-6.258751,-0.23356047
1.016979,2.5085564,-0.98606294,3.4705763,-6.1146913,-3.1843956
1.1120195,2.3822145,-0.8919622,-1.1144919,-5.824804,-5.6766696
1.2279899,2.2085195,-0.81225806,-5.527761,-4.9590273,-7.3975234
1.3692698,1.9897718,-0.7604025,-9.800044,-3.7843044,-8.375936
1.522334,1.746414,-0.73696876,-13.757703,-2.2020268,-8.678982
1.6686962,1.4841374,-0.75923043,-17.253922,-0.31551072,-8.588855
1.8037796,1.1979325,-0.8323015,-20.238768,1.7718642,-7.9107504
1.9205548,0.90240914,-0.9508879,-22.462189,4.023863,-6.3104954
2.0028849,0.6087027,-1.1222781,-23.998692,6.3748813,-4.1200123
2.0519164,0.32920712,-1.325812,-24.751608,8.8190775,-1.4657643
2.0486984,0.07939157,-1.5571489,-24.647026,11.013647,1.4851756
1.979264,-0.13856737,-1.8107731,-23.79929,12.34049,4.813176
1.8551773,-0.3197148,-2.070549,-21.968117,11.881248,8.662505
1.7035363,-0.4342107,-2.3065522,-19.584679,9.987688,12.899719
1.5641145,-0.487424,-2.509636,-16.933485,7.1258426,17.456783
1.4388881,-0.4860186,-2.6847277,-14.037152,3.8972936,21.773623
1.3141795,-0.44707632,-2.8484895,-10.5263605,0.7392488,25.137928
1.1702763,-0.35730237,-2.9891152,-5.9172587,-2.0808651,26.318344
1.0301305,-0.2031945,-3.0751076,-0.9906376,-4.481023,26.34396
0.8970633,-0.005210878,-3.1215928,3.8013804,-6.705489,25.571066
0.7662163,0.21254519,-3.1382182,7.9916964,-9.077556,24.342516
0.623677,0.40582955,-3.1499047,11.574307,-11.5721445,23.16125
0.44721806,0.5779308,-3.1642923,14.774462,-14.455975,21.685175
0.25074872,0.7489932,-3.1557508,17.74103,-17.519642,19.52861
0.06722463,0.9334607,-3.1188073,20.25876,-20.855349,16.69477
-0.087508745,1.1395866,-3.0374126,21.97916,-24.481058,13.537967
-0.21791954,1.3483732,-2.9274256,22.943167,-28.472954,10.459541
-0.3488062,1.553917,-2.7909837,23.180027,-33.013935,7.139382
-0.4595005,1.754342,-2.6297507,22.901228,-37.83501,3.4842315
-0.5320776,1.9328916,-2.4607792,21.867702,-42.72989,-0.2761195
-0.53889894,2.0703914,-2.286333,20.160328,-47.636135,-3.780229
-0.46019426,2.1685727,-2.0960798,18.006516,-52.20791,-7.270593
-0.27637765,2.2096345,-1.8967506,15.481706,-55.71783,-10.870251
0.06562724,2.1315625,-1.7370031,13.11012,-58.02249,-14.174555
0.5218651,1.9724602,-1.6194023,11.052801,-58.801376,-17.008055
1.051194,1.7518647,-1.5356619,9.542542,-58.083263,-19.375362
1.6033278,1.5112412,-1.4560225,8.369481,-55.903366,-20.36919
2.0991971,1.2822298,-1.3673476,7.3311725,-52.069595,-18.938036
2.4379172,1.1017896,-1.2733775,6.3382015,-47.369728,-15.774189
2.6367147,0.96465933,-1.1945419,5.6682563,-42.090504,-11.515051
2.5535836,0.9342452,-1.15688,5.489546,-40.763462,-11.152
2.4731364,0.9048132,-1.1204342,5.3166056,-39.479267,-10.800673
2.3952813,0.87632936,-1.0851625,5.1492367,-38.236446,-10.460664
2.3199291,0.84876126,-1.0510248,4.9872494,-37.03358,-10.131586
2.246995,0.8220778,-1.0179826,4.8304596,-35.869316,-9.813068
2.1763966,0.796249,-0.98599863,4.6786914,-34.74234,-9.504752
2.1080556,0.771246,-0.9550373,4.531776,-33.651394,-9.206293
2.0418963,0.7470411,-0.9250643,4.38955,-32.595276,-8.917362
1.9778455,0.7236077,-0.89604664,4.2518578,-31.572819,-8.63764
1.9158334,0.70092016,-0.8679525,4.1185474,-30.582903,-8.36682
1.8557922,0.6789537,-0.84075135,3.9894743,-29.624453,-8.104609
1.7976569,0.65768456,-0.81441367,3.8644986,-28.696424,-7.850721
1.7413648,0.6370897,-0.788911,3.7434852,-27.797821,-7.6048822
1.6868556,0.61714715,-0.76421607,3.6263044,-26.927677,-7.36683
1.6340709,0.59783554,-0.7403023,3.5128307,-26.085062,-7.136308
1.5829544,0.5791342,-0.7171445,3.4029436,-25.269077,-6.9130726
1.533452,0.5610235,-0.6947178,3.2965262,-24.478859,-6.696886
1.4855114,0.5434841,-0.6729987,3.1934662,-23.713572,-6.48752
1.439082,0.52649754,-0.65196425,3.093655,-22.972408,-6.284754
1.3941151,0.5100461,-0.63159233,2.9969878,-22.254591,-6.088374
1.3505635,0.4941125,-0.61186165,2.903363,-21.559366,-5.898176
1.3083818,0.47868004,-0.5927516,2.8126833,-20.886011,-5.71396
1.267526,0.46373272,-0.57424223,2.724854,-20.23382,-5.5355353
1.2279538,0.44925496,-0.5563144,2.639784,-19.60212,-5.3627157
1.1896241,0.43523178,-0.53894943,2.557385,-18.990253,-5.195322
1.1524972,0.42164865,-0.52212936,2.4775717,-18.397587,-5.0331817
1.1165348,0.40849155,-0.5058369,2.4002616,-17.823511,-4.876127
1.0816998,0.39574698,-0.4900552,2.3253756,-17.267431,-4.7239957
1.0479565,0.38340175,-0.47476807,2.252836,-16.728779,-4.576632
1.0152701,0.37144324,-0.45995978,2.1825688,-16.206999,-4.433884
0.9836073,0.35985917,-0.4456152,2.114502,-15.701557,-4.295606
0.9529355,0.3486377,-0.4317196,2.0485654,-15.211936,-4.1616564
0.92322344,0.33776733,-0.4182588,1.9846922,-14.737636,-4.031898
0.89444077,0.327237,-0.40521902,1.9228169,-14.278171,-3.9061985
0.86655813,0.31703597,-0.39258704,1.8628764,-13.833075,-3.7844298
0.8395472,0.30715385,-0.38034996,1.8048099,-13.401892,-3.6664677
0.8133804,0.29758057,-0.36849532,1.7485582,-12.984185,-3.5521922
0.7880313,0.28830642,-0.35701108,1.6940639,-12.579531,-3.4414873
0.763474,0.27932197,-0.3458856,1.6412721,-12.187517,-3.334241
0.7396837,0.2706181,-0.3351076,1.590129,-11.807747,-3.2303438
0.7166362,0.26218605,-0.32466614,1.5405829,-11.439835,-3.1296911
0.6943083,0.25401723,-0.31455064,1.4925836,-11.083408,-3.0321805
0.6726772,0.24610338,-0.3047509,1.4460826,-10.738107,-2.9377136
0.6517213,0.2384365,-0.29525697,1.4010327,-10.403583,-2.846195
0.63141924,0.23100887,-0.2860593,1.3573885,-10.079495,-2.757532
0.6117506,0.22381297,-0.27714857,1.3151059,-9.76552,-2.6716352
0.5926955,0.21684152,-0.26851583,1.2741424,-9.461339,-2.5884175
0.5742347,0.21008752,-0.2601523,1.2344564,-9.166645,-2.5077958
0.55634964,0.20354415,-0.25204962,1.1960082,-8.881142,-2.4296882
0.53902227,0.19720483,-0.2441996,1.1587589,-8.604541,-2.3540163
0.52223516,0.19106317,-0.23659435,1.1226709,-8.336564,-2.2807035
0.50597143,0.18511295,-0.22922619,1.087708,-8.076942,-2.2096765
0.49021465,0.17934825,-0.22208771,1.053835,-7.825413,-2.1408637
0.474949,0.17376322,-0.21517174,1.0210179,-7.581724,-2.0741956
0.46015918,0.16835225,-0.20847133,0.98922354,-7.3456306,-2.0096054
0.44583026,0.16310991,-0.20197973,0.95842004,-7.1168947,-1.9470283
0.43194786,0.15803096,-0.19569042,0.92857647,-6.8952866,-1.8864012
0.41849804,0.15311025,-0.1895971,0.89966285,-6.680584,-1.8276632
0.4054673,0.14834288,-0.18369363,0.8716501,-6.4725714,-1.7707554
0.39284256,0.14372402,-0.17797409,0.8445102,-6.2710395,-1.7156206
0.38061112,0.13924907,-0.17243274,0.8182157,-6.075786,-1.6622036
0.36876073,0.13491353,-0.16706403,0.79274046,-5.8866158,-1.6104506
0.3572795,0.13071305,-0.16186254,0.7680588,-5.703338,-1.5603098
0.3461559,0.1266434,-0.15682308,0.74414593,-5.525769,-1.5117309
0.3353788,0.122700535,-0.15194061,0.7209779,-5.3537316,-1.4646652
0.32493737,0.118880466,-0.1472102,0.6985315,-5.1870527,-1.4190654
0.31482112,0.115179375,-0.14262712,0.6767842,-5.0255647,-1.3748857
0.30501997,0.11159355,-0.13818678,0.6557142,-4.8691063,-1.3320822
0.29552403,0.108119406,-0.13388473,0.63530046,-4.7175207,-1.2906115
0.28632385,0.10475345,-0.12971666,0.6155224,-4.570656,-1.2504325
0.27741015,0.10149232,-0.12567839,0.59636027,-4.4283643,-1.2115046
0.26877403,0.09833274,-0.12176587,0.57779485,-4.290504,-1.173789
0.26040685,0.09527155,-0.11797518,0.55980754,-4.1569366,-1.1372479
0.2523002,0.09230568,-0.11430253,0.5423804,-4.0275283,-1.1018445
0.244446,0.089432165,-0.110744245,0.5254958,-3.9021497,-1.0675436
0.23683634,0.08664813,-0.10729676,0.50913703,-3.780675,-1.0343108
0.22946362,0.08395077,-0.10395661,0.4932876,-3.6629825,-1.0021127
0.22232047,0.0813374,-0.10072046,0.47793165,-3.5489547,-0.97091717
0.21539973,0.0788054,-0.097585075,0.46305385,-3.438477,-0.9406929
0.20869446,0.07635223,-0.0945473,0.44863924,-3.3314393,-0.9114097
0.20219795,0.073975444,-0.09160411,0.43467343,-3.227734,-0.88303816
0.1959037,0.071672656,-0.08875256,0.42114243,-3.1272576,-0.85555
0.18980543,0.06944156,-0.08598979,0.40803272,-3.0299091,-0.8289176
0.183897,0.06727993,-0.083313026,0.3953311,-2.9355917,-0.80311435
0.17817253,0.06518559,-0.0807196,0.383025,-2.8442106,-0.77811444
0.17262627,0.063156456,-0.07820691,0.37110198,-2.7556744,-0.75389284
0.16725269,0.06119049,-0.07577246,0.35955012,-2.6698945,-0.73042536
0.16204639,0.05928573,-0.07341378,0.34835792,-2.586785,-0.7076884
0.15700217,0.05744027,-0.07112854,0.33751416,-2.506263,-0.6856593
0.15211497,0.05565226,-0.068914436,0.32700795,-2.4282475,-0.664316
0.14737993,0.05391991,-0.066769265,0.31682882,-2.352661,-0.6436371
0.14279228,0.052241493,-0.06469087,0.30696657,-2.2794273,-0.623602
0.13834746,0.050615326,-0.06267718,0.29741135,-2.2084734,-0.6041905
0.134041,0.049039777,-0.060726173,0.2881536,-2.1397285,-0.5853834
0.12986861,0.04751328,-0.0588359,0.27918398,-2.0731235,-0.5671617
0.12582609,0.0460343,-0.057004474,0.27049363,-2.008592,-0.54950726
0.121909425,0.044601362,-0.05523006,0.2620738,-1.9460691,-0.5324024
0.11811467,0.04321303,-0.053510882,0.25391608,-1.8854927,-0.51583
0.11443806,0.04186791,-0.05184522,0.2460123,-1.8268019,-0.49977347
0.11087588,0.040564667,-0.05023141,0.23835455,-1.7699381,-0.48421678
0.1074246,0.039301995,-0.048667833,0.23093519,-1.7148445,-0.46914434
