ax,ay,az,gx,gy,gz
1.8136529,-0.012727389,2.7709343,0.7209156,-7.8791623,3.8836715
2.367473,0.14628269,3.1697686,-20.241207,-0.28610724,1.4805286
2.4807513,0.11452108,3.175337,-32.812943,3.1595225,1.0809247
2.2798252,0.21305099,2.8912778,-40.185093,-1.4390719,-1.4249077
2.1265514,0.15779473,2.8343983,-48.032204,-5.321879,-2.143324
2.208543,-0.07733246,3.078099,-52.729435,-4.8552175,0.9182931
2.3700328,-0.31150043,3.3873749,-52.468754,-1.1916631,4.9948273
2.5436988,-0.5983323,3.664672,-47.2328,4.480466,7.734235
2.7999496,-0.8850918,3.927784,-38.862198,11.641453,8.930188
3.0728662,-1.0718112,4.110154,-31.757114,17.885664,8.934448
3.267824,-1.165104,4.1860657,-27.223646,22.6904,8.738714
3.3754444,-1.2593466,4.1775312,-23.400629,27.0666,8.438065
3.4466767,-1.3382828,4.098845,-19.939394,31.115757,8.143288
3.5263534,-1.4008725,4.005616,-16.63255,35.359653,8.045145
3.598084,-1.4676175,3.897692,-12.67359,40.549046,8.300556
3.6336684,-1.5154088,3.7326734,-8.722511,45.75771,8.5618925
3.6411922,-1.5303881,3.5169618,-5.5523,50.202335,8.661722
3.614185,-1.5411627,3.26527,-2.8939319,53.73641,8.78422
3.5596352,-1.5419664,2.9933712,-0.33645755,56.436283,8.876674
3.5119023,-1.5208253,2.7300391,1.6367289,58.868603,9.103295
3.472305,-1.4776856,2.478934,2.7262182,61.392338,9.588183
3.4180076,-1.4164145,2.236798,3.6109552,64.31315,10.477904
3.3085403,-1.324108,1.9575899,4.505782,67.00008,11.478533
3.149622,-1.2140968,1.6506461,5.434482,69.06542,12.269652
2.97636,-1.1025999,1.338219,6.495745,70.39123,12.900053
2.7981577,-0.9763977,1.0324179,7.3677645,71.25515,13.428609
2.6256065,-0.8408481,0.7560225,7.830249,71.82005,13.934237
2.4644012,-0.6922605,0.51537544,8.065824,72.4278,14.462512
2.2954443,-0.52912325,0.27308175,8.091713,73.006935,14.817466
2.0953774,-0.3603856,0.0026336832,8.170098,73.08383,14.807739
1.8417369,-0.19881006,-0.31077924,8.314549,72.32955,14.561
1.5816222,-0.050709493,-0.6157123,8.559841,70.923805,14.124975
1.3411932,0.09611471,-0.8919064,8.820622,69.10155,13.552361
1.1263928,0.24486133,-1.137517,8.903543,67.102585,12.943787
0.92672604,0.39496467,-1.3624302,8.775833,65.084496,12.284685
0.7152319,0.55287623,-1.5887057,8.327393,62.825005,11.428258
0.49993825,0.7022792,-1.8080486,7.7815633,60.259514,10.428112
0.29652745,0.8396464,-2.0117588,7.045959,57.3027,9.481824
0.11210979,0.9700685,-2.1923966,6.1630664,54.014584,8.594649
-0.049624503,1.0885756,-2.3468726,5.0137296,50.515182,7.818408
-0.15800162,1.1929718,-2.4540458,3.6963603,47.172527,7.2105007
-0.2513739,1.2855918,-2.5520797,2.24357,43.888695,6.6168885
-0.3457366,1.3569396,-2.6520715,0.95268947,40.387688,5.8259687
-0.4319468,1.4078017,-2.7477224,0.092419334,36.590874,4.6538982
-0.4883352,1.4493197,-2.820709,-0.61793923,32.63766,3.313926
-0.497289,1.4923985,-2.8612027,-1.7460275,28.428104,1.928311
-0.4710469,1.5289026,-2.8732762,-3.889364,24.204695,0.8168518
-0.44127476,1.5352168,-2.8602335,-6.508746,20.393562,-0.11967995
-0.44058353,1.5055473,-2.862885,-8.226294,16.618443,-1.5806011
-0.42272994,1.4511119,-2.8573287,-8.677857,12.566058,-3.7681344
-0.33666703,1.3866891,-2.7934043,-8.780427,8.55008,-5.8992896
-0.217601,1.3441768,-2.6765287,-9.591903,4.997899,-7.4568152
-0.11378485,1.2968663,-2.557047,-11.353299,1.9722486,-8.565672
-0.053985685,1.2046998,-2.472159,-12.991644,-1.016845,-9.673464
0.012633544,1.0901212,-2.3794956,-13.924067,-4.1495333,-11.043343
0.12986659,0.96728605,-2.2337122,-14.872524,-6.975557,-12.23389
0.2604506,0.84123486,-2.0616105,-15.930889,-9.12854,-13.11408
0.36373588,0.7123643,-1.9090327,-16.56295,-10.823666,-13.968499
0.4384597,0.5988912,-1.7698922,-17.116537,-12.499949,-14.963793
0.51147294,0.48072058,-1.6141976,-17.660387,-14.345299,-16.06287
0.6027328,0.3385872,-1.4167315,-18.115679,-16.034369,-17.194557
0.71713716,0.17288715,-1.1928731,-18.098259,-17.355852,-18.219404
0.868091,0.008326549,-0.9310029,-17.980839,-18.100758,-18.85357
1.0274051,-0.14561628,-0.64593464,-17.65889,-18.188211,-19.257214
1.1684763,-0.2790232,-0.37203705,-17.273348,-17.764051,-19.338703
1.2853702,-0.39342716,-0.13744685,-16.799053,-17.242662,-19.270418
1.3926231,-0.5116386,0.07921202,-16.233309,-16.555115,-18.989279
1.4988445,-0.6252494,0.2860896,-15.395716,-15.67015,-18.690315
1.6210729,-0.7377879,0.49303943,-14.346526,-14.423127,-18.38189
1.754007,-0.84244746,0.6993144,-12.984078,-12.447125,-17.795748
1.8703175,-0.9041387,0.8740411,-11.824408,-10.146347,-17.083372
1.9553925,-0.95815504,1.009489,-10.749798,-7.6482825,-16.23747
2.029145,-1.0085758,1.1156914,-9.737862,-5.1707463,-15.303215
2.1013882,-1.0560989,1.2056777,-8.606323,-2.552204,-14.359104
2.1711013,-1.0938889,1.2749699,-7.1870937,0.3535278,-13.366693
2.2320144,-1.1054428,1.3201915,-5.7467103,3.4809434,-12.38166
2.2677999,-1.0960714,1.3341267,-4.1217856,6.656839,-11.6101265
2.2848926,-1.0782248,1.3173838,-2.4205492,9.721709,-11.11623
2.295372,-1.0574862,1.2883413,-0.75718725,12.581209,-10.659531
2.3071835,-1.0247444,1.2609955,0.58677703,15.440507,-10.075199
2.3101704,-0.98310477,1.211913,1.7931191,18.332489,-9.50397
2.3028302,-0.9483786,1.1359537,2.8741508,21.183176,-8.9723
2.2769136,-0.9194563,1.0439074,3.7341602,23.85196,-8.160092
2.2336261,-0.8735423,0.9327136,4.324815,26.118492,-7.1456127
2.169606,-0.81106436,0.8113826,3.9703205,27.95193,-5.981458
2.0881014,-0.7251807,0.67006624,3.0637016,29.450764,-5.0365887
2.005307,-0.65104574,0.5189811,1.9791393,30.817453,-4.2885303
1.9212304,-0.60675234,0.3625168,1.386714,32.414368,-3.683012
1.8110473,-0.5772252,0.18416238,1.4714398,33.937504,-3.2383888
1.6698616,-0.52839124,-0.015067712,1.9647406,34.94358,-3.085252
1.4979154,-0.46970466,-0.23284666,2.9509661,35.311615,-3.0880322
1.3255963,-0.396251,-0.44027618,4.051189,35.188248,-3.1920254
1.1659344,-0.31613976,-0.61731505,4.9274054,34.722992,-3.2965438
1.0274702,-0.24050312,-0.7561156,5.705244,34.25524,-3.3270676
0.8969798,-0.17757997,-0.88036275,6.851803,33.79655,-3.398638
0.77060974,-0.13881564,-1.0017185,8.534781,33.159584,-3.357245
0.6634829,-0.10411925,-1.1053337,10.265801,32.36523,-2.7676132
0.5589829,-0.05451411,-1.1976187,11.142943,31.363192,-1.7444673
0.42234048,0.0020589565,-1.3070263,11.128509,29.74428,-0.99955636
0.2832825,0.044449225,-1.4078981,11.08785,27.615763,-0.89588606
0.20060083,0.06292492,-1.4437251,11.7957115,25.849657,-1.0318453
0.19433683,0.06096002,-1.3986431,11.427377,25.042473,-0.9996248
0.18826963,0.059056845,-1.3549774,11.070614,24.260645,-0.96841645
0.18239293,0.057213426,-1.3126826,10.725052,23.503366,-0.938188
0.17670064,0.055427857,-1.2717153,10.390334,22.76985,-0.9089081
0.17118688,0.05369829,-1.2320328,10.066115,22.059341,-0.8805467
0.16584599,0.05202295,-1.1935943,9.752061,21.371109,-0.8530744
0.16067247,0.050400108,-1.1563605,9.447848,20.704443,-0.8264629
0.15566102,0.0488281,-1.120293,9.153165,20.05866,-0.8006851
0.15080647,0.047305316,-1.0853548,8.867708,19.433098,-0.7757144
0.14610387,0.045830194,-1.0515102,8.591187,18.827116,-0.75152534
0.14154842,0.044401232,-1.0187247,8.323318,18.240097,-0.72809315
0.13713548,0.043016966,-0.98696464,8.0638275,17.671438,-0.7053939
0.13286051,0.04167599,-0.95619774,7.812452,17.120562,-0.6834045
0.12871921,0.04037693,-0.9263927,7.568935,16.586908,-0.6621025
0.12470732,0.039118476,-0.8975192,7.3330283,16.069931,-0.6414663
0.12082079,0.03789934,-0.8695478,7.104493,15.569109,-0.62147486
0.11705568,0.03671829,-0.8424502,6.883097,15.083931,-0.60210794
0.11340815,0.035574127,-0.81619895,6.6686153,14.613907,-0.5833459
0.10987452,0.03446569,-0.7907674,6.460831,14.158559,-0.5651697
0.1064512,0.033391856,-0.76612973,6.259534,13.717426,-0.54756093
0.10313474,0.03235154,-0.7422612,6.0645194,13.290063,-0.5305018
0.09992178,0.03134369,-0.7191375,5.8755913,12.876038,-0.5139751
0.09680907,0.030367289,-0.6967353,5.6925583,12.47493,-0.497964
0.093793474,0.02942135,-0.6750321,5.5152354,12.086337,-0.48245245
0.09087195,0.02850492,-0.6540058,5.343444,11.709866,-0.4674248
0.088041544,0.027617073,-0.6336354,5.177011,11.345137,-0.45286584
0.08529941,0.026756914,-0.61390024,5.015768,10.991782,-0.43876094
0.082642786,0.025923576,-0.5947805,4.8595533,10.6494465,-0.42509583
0.08006899,0.025116222,-0.5762569,4.7082095,10.317783,-0.4118568
0.07757543,0.024334038,-0.55831075,4.5615835,9.996461,-0.3990305
0.07515961,0.023576237,-0.5409241,4.4195285,9.685155,-0.38660407
0.072819084,0.022842057,-0.52407926,4.2819014,9.383553,-0.37456495
0.07055151,0.022130758,-0.5077595,4.1485634,9.091351,-0.36290103
0.06835461,0.021441627,-0.4919484,4.019381,8.808254,-0.35160065
0.066226155,0.020773971,-0.47662994,3.8942244,8.53398,-0.3406524
0.064164035,0.02012712,-0.46178886,3.7729678,8.268252,-0.3300453
0.062166166,0.019500423,-0.44741017,3.6554892,8.010805,-0.31976873
0.060230542,0.018893253,-0.4334795,3.5416708,7.7613783,-0.3098123
0.05835522,0.018304998,-0.4199828,3.4313984,7.519722,-0.30016607
0.05653832,0.01773507,-0.40690655,3.324561,7.2855945,-0.29082036
0.05477802,0.017182894,-0.39423767,3.2210522,7.05876,-0.2817658
0.053072553,0.01664792,-0.3819634,3.1207674,6.8389916,-0.27299324
0.051420208,0.016129607,-0.37007147,3.0236065,6.6260686,-0.26449394
0.049819328,0.01562744,-0.35854995,2.9294717,6.4197774,-0.25625938
0.04826831,0.015140913,-0.34738725,2.8382688,6.219911,-0.2482813
0.0467656,0.014669539,-0.33657223,2.7499063,6.02627,-0.24055168
0.045309685,0.014212845,-0.326094,2.664296,5.838659,-0.23306279
0.04389911,0.013770374,-0.3159421,2.5813515,5.656891,-0.22580713
0.042532466,0.013341681,-0.30610636,2.5009902,5.4807835,-0.2187774
0.04120838,0.012926338,-0.2965769,2.4231315,5.31016,-0.2119666
0.039925523,0.01252393,-0.2873442,2.347697,5.14485,-0.2053679
0.038682617,0.012134051,-0.27839896,2.2746117,4.9846873,-0.19897464
0.03747841,0.011756313,-0.2697323,2.203802,4.8295116,-0.19278048
0.036311697,0.011390336,-0.26133546,2.1351972,4.679168,-0.18677919
0.035181317,0.011035755,-0.25320008,2.0687284,4.5335054,-0.18096475
0.03408613,0.010692215,-0.24531803,2.0043294,4.3923783,-0.17533135
0.03302504,0.01035937,-0.23768137,1.9419354,4.2556458,-0.16987336
0.03199699,0.0100368885,-0.23028249,1.8814842,4.12317,-0.16458529
0.031000948,0.0097244475,-0.22311397,1.822915,3.9948184,-0.15946187
0.030035917,0.009421734,-0.21616863,1.7661692,3.8704634,-0.15449797
0.029100928,0.009128446,-0.20943952,1.7111902,3.7499797,-0.14968862
0.028195051,0.008844288,-0.20291992,1.6579229,3.6332474,-0.14502898
0.027317377,0.008568977,-0.19660328,1.6063138,3.520149,-0.14051442
0.026467025,0.008302237,-0.1904833,1.5563116,3.4105718,-0.1361404
0.025643148,0.0080438005,-0.18455385,1.507866,3.304406,-0.13190256
0.024844918,0.0077934107,-0.17880899,1.4609286,3.2015452,-0.12779665
0.024071539,0.007550815,-0.17324297,1.4154525,3.1018867,-0.12381856
0.023322236,0.007315772,-0.16785024,1.371392,3.0053308,-0.11996432
0.02259626,0.007088046,-0.16262539,1.3287033,2.9117806,-0.11623006
0.021892885,0.0068674097,-0.15756318,1.2873434,2.8211427,-0.112612054
0.021211404,0.0066536414,-0.15265857,1.2472711,2.7333264,-0.109106675
0.02055114,0.006446528,-0.14790665,1.2084461,2.648244,-0.10571042
0.019911427,0.0062458618,-0.14330263,1.1708299,2.56581,-0.10241989
0.01929163,0.0060514426,-0.13884196,1.1343848,2.4859421,-0.099231794
0.018691128,0.005863075,-0.13452013,1.099074,2.4085605,-0.09614294
0.018109318,0.005680572,-0.13033284,1.0648625,2.333588,-0.09315024
0.017545618,0.0055037495,-0.1262759,1.0317159,2.2609491,-0.0902507
0.016999468,0.0053324318,-0.12234525,0.9996012,2.1905713,-0.08744142
0.016470319,0.005166447,-0.11853695,0.96848613,2.1223845,-0.0847196
