ax,ay,az,gx,gy,gz
1.6963791,-0.060909647,2.2972937,52.046837,8.711898,-14.81468
1.3374188,0.44219643,2.068926,37.95016,1.4200958,-13.223433
1.1834565,0.6796599,1.9138303,20.7942,-9.946326,-17.096437
1.5451704,0.527228,2.1435013,12.625655,-14.877651,-21.980732
2.2562344,0.23062932,2.6854072,11.760331,-13.54392,-26.206133
2.9646578,-0.09582092,3.2847443,15.37954,-8.1511135,-28.657015
3.4586859,-0.318501,3.7543533,18.393864,-1.4995786,-28.582794
3.7449918,-0.42638487,4.0396957,17.670046,4.6945553,-25.673534
3.8528085,-0.48446545,4.1352916,15.264928,9.539684,-22.780323
3.9272952,-0.5803801,4.163989,14.331698,13.392766,-21.485617
4.0447946,-0.68826413,4.218836,14.685706,17.079401,-21.195194
4.228146,-0.77404994,4.3315387,15.681577,21.250212,-20.941456
4.4289513,-0.80635303,4.467297,16.812197,26.7149,-19.923225
4.571744,-0.7824533,4.501208,17.369148,31.697052,-18.381735
4.6368723,-0.766727,4.4360123,17.336477,36.062325,-16.340082
4.6435704,-0.7532317,4.2954574,16.68298,40.06853,-14.360877
4.628529,-0.74673164,4.1133304,15.723152,44.063774,-12.400028
4.5750523,-0.7298834,3.8849719,14.4435,48.259056,-10.318529
4.4410534,-0.7058441,3.5704,13.342231,52.27678,-8.382732
4.2605815,-0.67338514,3.2190356,12.676242,55.69699,-6.8221264
4.063773,-0.632311,2.874808,12.10003,58.55515,-5.399489
3.850395,-0.58014095,2.5398912,11.624156,60.885204,-3.9948883
3.6264179,-0.5252749,2.2168717,11.199644,62.772354,-2.5922217
3.3960042,-0.4404541,1.912205,10.757883,64.46366,-1.1837258
3.1523128,-0.34045434,1.6084698,10.259704,65.854225,-0.0633665
2.8994877,-0.25140968,1.3142871,9.814368,66.981064,0.691621
2.642451,-0.16358833,1.040284,9.748972,67.565285,1.1606406
2.3939526,-0.054481857,0.7928051,9.306579,67.455185,1.5339242
2.153615,0.051949788,0.56164646,8.306523,67.021,2.1065912
1.9043733,0.15455036,0.33173284,7.131663,66.28927,2.754401
1.6463429,0.25951436,0.102595165,6.03501,65.37146,3.2469733
1.3846574,0.3655699,-0.12549141,5.2629747,64.32829,3.3830793
1.115532,0.47064134,-0.3596727,5.0206103,62.774883,3.0351765
0.8522905,0.5736977,-0.5911857,4.8371987,60.70293,2.5836754
0.60493803,0.6809333,-0.8029467,4.2203336,58.110878,2.19654
0.3742429,0.7772833,-0.99418783,3.1093562,55.16453,1.9767784
0.15142222,0.8508749,-1.1748581,1.9783407,52.03694,1.7173253
-0.05880828,0.9122436,-1.3389244,1.336435,48.671192,1.0076283
-0.23364258,0.9676649,-1.4634606,1.0434512,45.19005,-0.0062153595
-0.36858323,1.0250123,-1.5525545,0.7397197,41.611614,-1.0817157
-0.46870697,1.0809495,-1.6112238,0.16047561,38.047688,-1.9751004
-0.5517948,1.1410353,-1.6552296,-0.9837561,34.583237,-2.5413573
-0.6420887,1.1864085,-1.7098769,-2.3790648,31.037622,-3.0955813
-0.7249358,1.2064983,-1.7732975,-3.3456838,27.372543,-4.0326257
-0.77694947,1.212186,-1.8212733,-3.9442458,23.665087,-5.248011
-0.8003379,1.2031446,-1.8484383,-4.4986024,19.964565,-6.4294376
-0.80805784,1.18029,-1.8536696,-5.0469713,16.290287,-7.5895042
-0.78758,1.1460508,-1.8278546,-5.210916,12.729682,-8.987158
-0.70982504,1.099783,-1.7559204,-5.1643457,9.515513,-10.366304
-0.6074054,1.0462551,-1.6670254,-5.3637943,6.6082506,-11.330946
-0.5151139,0.99096745,-1.5789964,-6.2450953,3.8060105,-11.648692
-0.44771802,0.93492043,-1.5091544,-7.543161,1.0542128,-11.704314
-0.39775032,0.8608594,-1.4598403,-8.2576685,-1.6052053,-12.106493
-0.33931607,0.7666641,-1.4069912,-8.364685,-4.2600937,-12.944231
-0.24595188,0.66977686,-1.3101263,-8.089603,-6.737409,-13.815547
-0.11038376,0.5752022,-1.1592067,-7.7259417,-8.7327585,-14.407013
0.053749476,0.5018329,-0.9615384,-7.720748,-10.286043,-14.519309
0.21870348,0.43363807,-0.7536097,-8.2538395,-11.427159,-14.419538
0.37258658,0.3442661,-0.5565599,-8.576391,-12.310048,-14.399102
0.53204393,0.24624586,-0.35872704,-8.462048,-12.851439,-14.615969
0.7076417,0.14716691,-0.14967991,-7.8779173,-12.9554,-15.017515
0.89957637,0.050001275,0.07281602,-7.156038,-12.569306,-15.264595
1.0989287,-0.039778702,0.30105305,-7.0075994,-11.640374,-14.905391
1.2762723,-0.1267476,0.5011891,-7.137845,-10.345996,-14.243734
1.4184096,-0.20564707,0.6613466,-7.1340213,-8.856456,-13.526224
1.5369753,-0.27588096,0.79330385,-6.799123,-7.221799,-12.991954
1.6547204,-0.33450058,0.9189223,-6.1078434,-5.3413887,-12.681217
1.7750787,-0.37524083,1.03953,-5.502423,-3.042231,-12.236475
1.8683007,-0.4063399,1.1171204,-5.205841,-0.5805721,-11.490919
1.9265165,-0.43381557,1.1549025,-5.0086894,1.9291033,-10.571782
1.9550604,-0.45824257,1.1623243,-4.6082506,4.3745856,-9.830973
1.9793185,-0.4730516,1.1664474,-3.8659422,6.797138,-9.37477
2.0152225,-0.46882665,1.174086,-3.3633065,9.370274,-8.786372
2.0379553,-0.4639797,1.1599064,-3.204371,11.938006,-7.948281
2.0458448,-0.45808804,1.130733,-3.137675,14.494914,-7.075832
2.0448687,-0.44539565,1.0925145,-3.2392652,17.142012,-6.191363
2.0171485,-0.4329909,1.0292408,-3.204388,19.749031,-5.393632
1.9678112,-0.4235479,0.9438331,-2.6289673,22.082342,-5.0632863
1.9312452,-0.4098674,0.8696532,-2.1126697,24.355345,-4.7764134
1.8907236,-0.39634594,0.7915369,-1.7728046,26.51824,-4.298683
1.8468479,-0.37466058,0.70901215,-1.7707945,28.58052,-3.5767884
1.7828215,-0.33831146,0.6089672,-2.1819658,30.557156,-2.536149
1.6734457,-0.29274964,0.46696424,-2.7527199,32.1342,-1.5116961
1.5138832,-0.26204246,0.28456134,-2.9405715,33.234684,-0.8770013
1.3520478,-0.22826575,0.11566678,-2.5777903,34.056366,-0.6270006
1.1984013,-0.17858107,-0.031153705,-2.1384344,34.593025,-0.48465994
1.0489063,-0.1204081,-0.16054551,-1.8452933,34.88653,-0.24150662
0.90342325,-0.058693923,-0.27800253,-1.6878468,35.096024,0.07815189
0.7463608,0.0010560778,-0.4034161,-1.4588777,35.15531,0.28238323
0.5814098,0.05426874,-0.52948177,-1.0554485,34.971714,0.31944582
0.42363727,0.10457051,-0.6434634,-0.54055387,34.495655,0.19089967
0.28167042,0.15449867,-0.7362953,0.15294595,33.86077,-0.07692686
0.15540603,0.20344032,-0.81106794,0.94296277,33.028194,-0.36682257
0.041084398,0.25111523,-0.87042636,1.5590055,32.084457,-0.37824962
-0.07591163,0.2908706,-0.9330076,2.1345565,30.918514,0.002080546
-0.073537715,0.28177446,-0.90383047,2.0678043,29.951626,0.0020154829
-0.07123869,0.2729653,-0.8755738,2.003158,29.015242,0.0019524725
-0.069012135,0.2644338,-0.8482079,1.9405499,28.108376,0.0018914483
-0.06685571,0.25617105,-0.821704,1.8799134,27.230074,0.0018323463
-0.064767174,0.24816838,-0.7960343,1.8211858,26.379417,0.0017751046
-0.06274432,0.24041744,-0.77117205,1.7643054,25.55552,0.0017196633
-0.060785055,0.23291011,-0.7470913,1.7092129,24.757519,0.0016659648
-0.058887344,0.22563866,-0.7237671,1.6558511,23.984587,0.0016139534
-0.057049215,0.21859549,-0.70117515,1.6041648,23.235926,0.0015635749
-0.05526877,0.21177337,-0.67929226,1.5541006,22.510756,0.0015147773
-0.053544167,0.2051652,-0.65809566,1.5056065,21.808332,0.0014675104
-0.051873636,0.19876422,-0.63756365,1.458633,21.127932,0.0014217253
-0.05025545,0.19256383,-0.617675,1.4131312,20.468851,0.001377375
-0.048687957,0.18655765,-0.5984094,1.3690549,19.830416,0.0013344139
-0.047169544,0.18073955,-0.579747,1.3263587,19.211971,0.001292798
-0.045698658,0.17510356,-0.56166875,1.2849989,18.612886,0.0012524847
-0.044273794,0.16964391,-0.5441562,1.2449332,18.032545,0.0012134329
-0.042893503,0.16435504,-0.52719146,1.2061208,17.470358,0.0011756025
-0.041556373,0.15923157,-0.5107572,1.1685222,16.92575,0.0011389552
-0.040261045,0.15426825,-0.4948367,1.1320989,16.398169,0.0011034536
-0.0390062,0.14946006,-0.47941378,1.096814,15.887074,0.0010690615
-0.037790563,0.14480212,-0.46447274,1.0626316,15.391951,0.0010357439
-0.0366129,0.14028968,-0.44999847,1.0295169,14.912294,0.0010034672
-0.035472024,0.13591816,-0.43597624,0.9974366,14.447618,0.00097219856
-0.034366768,0.13168314,-0.42239183,0.9663579,13.997451,0.00094190624
-0.033296015,0.12758034,-0.40923154,0.9362495,13.561338,0.0009125596
-0.032258686,0.12360562,-0.39648205,0.9070808,13.138838,0.0008841291
-0.03125373,0.119754925,-0.38413042,0.8788225,12.729523,0.00085658574
-0.03028013,0.11602438,-0.3721642,0.8514459,12.33298,0.0008299019
-0.029336907,0.11241023,-0.36057132,0.82492346,11.948809,0.00080405053
-0.028423106,0.108908825,-0.34934005,0.7992283,11.576621,0.0007790055
-0.027537808,0.10551663,-0.3384591,0.77433467,11.2160425,0.0007547417
-0.026680117,0.10223021,-0.3279175,0.75021726,10.866709,0.0007312346
-0.025849173,0.09904628,-0.3177046,0.726852,10.528268,0.0007084605
-0.025044136,0.09596162,-0.30781013,0.70421517,10.200379,0.0006863965
-0.024264196,0.09297313,-0.29822412,0.68228406,9.882713,0.0006650203
-0.02350857,0.090077795,-0.28893694,0.6610367,9.574949,0.0006443105
-0.022776496,0.0872727,-0.27993923,0.6404515,9.276779,0.0006242462
-0.02206724,0.084555045,-0.27122197,0.62050796,8.987902,0.0006048073
-0.021380087,0.081922084,-0.26277637,0.6011859,8.708027,0.0005859742
-0.020714348,0.07937117,-0.25459397,0.582466,8.436873,0.00056772796
-0.020069353,0.076899745,-0.24666652,0.56432945,8.17417,0.00055005023
-0.019444454,0.07450532,-0.23898609,0.54675794,7.9196515,0.0005329234
-0.018839026,0.0721855,-0.23154496,0.52973396,7.673063,0.0005163301
-0.01825246,0.06993796,-0.22433564,0.5132403,7.4341564,0.0005002538
-0.017684167,0.06776043,-0.21735092,0.49726048,7.202693,0.00048467834
-0.017133577,0.06565073,-0.21058376,0.48177844,6.97844,0.00046958806
-0.016600138,0.063606754,-0.20402741,0.4667787,6.761172,0.00045496784
-0.016083313,0.061626438,-0.19767529,0.45224613,6.5506716,0.000440803
-0.015582588,0.059707806,-0.19152102,0.43816623,6.346728,0.00042707936
-0.015097457,0.05784893,-0.18555841,0.42452487,6.1491356,0.00041378316
-0.014627435,0.05604795,-0.17978151,0.41130835,5.957698,0.00040090104
-0.014172052,0.054303054,-0.17418453,0.39850342,5.772222,0.00038842013
-0.01373085,0.052612502,-0.16876185,0.3860973,5.592522,0.00037632792
-0.013303389,0.050974596,-0.16350804,0.3740775,5.4184184,0.00036461226
-0.012889238,0.049387697,-0.15841784,0.36243203,5.249737,0.00035326145
-0.012487984,0.04785021,-0.15348615,0.35114917,5.0863075,0.0003422641
-0.012099224,0.0463606,-0.14870802,0.34021768,4.9279675,0.0003316092
-0.01172257,0.044917375,-0.14407867,0.32962656,4.7745576,0.00032128603
-0.011357645,0.04351909,-0.13959348,0.3193652,4.6259246,0.00031128436
-0.011004081,0.04216434,-0.13524793,0.30942336,4.48192,0.00030159406
-0.010661527,0.04085177,-0.1310377,0.29979107,4.3423986,0.0002922055
-0.010329637,0.039580073,-0.12695853,0.2904587,4.207221,0.00028310926
-0.010008082,0.038347967,-0.123006396,0.2814169,4.076253,0.00027429624
-0.009696538,0.037154224,-0.1191773,0.2726566,3.949362,0.00026575758
-0.009394692,0.035997648,-0.115467414,0.26416904,3.826422,0.0002574848
-0.009102246,0.034877077,-0.11187303,0.2559457,3.7073095,0.00024946957
-0.008818903,0.033791393,-0.108390555,0.24797843,3.5919054,0.00024170386
-0.008544383,0.032739513,-0.1050165,0.24025919,3.480094,0.00023417994
-0.008278408,0.031720378,-0.10174748,0.23278026,3.3717635,0.00022689025
-0.008020714,0.030732973,-0.09858024,0.22553417,3.2668056,0.0002198275
-0.007771042,0.029776305,-0.0955116,0.21851367,3.1651154,0.00021298464
-0.0075291432,0.028849421,-0.09253849,0.21171172,3.066591,0.0002063548
-0.007294775,0.027951391,-0.08965794,0.20512152,2.9711335,0.00019993135
-0.0070677027,0.027081318,-0.08686706,0.19873647,2.8786478,0.00019370788
-0.006847699,0.026238332,-0.08416306,0.19255021,2.7890413,0.00018767813
-0.0066345446,0.025421586,-0.081543244,0.18655653,2.7022243,0.0001818361
-0.0064280257,0.024630267,-0.07900497,0.18074942,2.61811,0.00017617593
-0.006227935,0.023863582,-0.07654573,0.1751231,2.536614,0.00017069197
-0.006034074,0.023120763,-0.074163035,0.16967191,2.457655,0.00016537872
-0.0058462475,0.022401068,-0.07185451,0.16439043,2.381154,0.00016023088
-0.005664268,0.021703776,-0.06961785,0.15927334,2.3070345,0.00015524327
-0.0054879533,0.02102819,-0.06745082,0.15431556,2.235222,0.00015041092
-0.005317127,0.020373637,-0.06535125,0.1495121,2.1656451,0.00014572902
-0.0051516183,0.019739456,-0.06331703,0.14485818,2.0982342,0.00014119284
