ax,ay,az,gx,gy,gz
2.9491177,0.039091267,3.2927573,0.3327303,1.1654651,17.977436
3.596104,-0.1343862,3.7483754,10.788926,14.801728,16.100426
3.6694288,-0.18984592,3.7369432,17.184404,23.05612,13.875613
3.6135077,-0.10346655,3.6889749,16.698116,30.306559,12.660238
3.458521,0.04638217,3.515349,12.054651,33.455284,13.257245
3.2495866,0.110032536,3.3271291,7.120462,35.160942,13.396546
3.1177654,0.1011788,3.195088,3.6301436,36.702118,11.798066
3.0885148,0.037946496,3.136391,2.5220056,38.655453,9.425741
3.1409595,-0.062105965,3.114649,3.658849,41.150906,7.6318007
3.1929176,-0.14450845,3.0903378,5.1825423,44.022137,6.8481307
3.2071033,-0.20247824,3.031916,6.242006,46.690727,6.6078415
3.182713,-0.23371065,2.9455116,6.897889,49.00974,6.6958175
3.137041,-0.2364595,2.8432584,6.7950444,51.064903,6.8391695
3.083661,-0.25068888,2.7358096,6.976793,53.224686,6.8389316
3.0449443,-0.27460578,2.6299925,7.665872,55.709923,6.65315
3.008689,-0.2981805,2.5132546,8.463715,58.27924,6.591861
2.9634385,-0.31571755,2.3790178,9.050973,60.938145,6.879004
2.8855803,-0.32034513,2.2132225,9.375708,63.39144,7.524346
2.7568944,-0.3078374,2.0232224,9.515354,65.395775,8.324525
2.6113539,-0.27733138,1.8342619,9.593993,66.916245,8.925872
2.4707644,-0.22486833,1.6433815,9.6720705,68.30893,9.433458
2.3269253,-0.160059,1.4508333,9.569212,69.70204,10.163382
2.1643615,-0.08349458,1.2532086,9.422709,70.95922,10.817953
1.9858583,-0.011774109,1.0496119,9.484038,71.93021,11.4181385
1.7951957,0.0765372,0.8393444,9.173489,72.481125,12.343381
1.5524828,0.19091868,0.6034088,8.519149,72.5275,13.30887
1.2781109,0.30556142,0.36010882,7.816764,72.065,13.993019
1.0026984,0.41611338,0.12781826,7.432506,71.15535,14.148081
0.74747163,0.52721334,-0.080474,7.3463564,70.03352,13.838448
0.5107283,0.6414934,-0.26834717,7.126457,68.623375,13.331683
0.27434322,0.74571425,-0.4435179,6.6948123,66.92137,12.943845
0.03674565,0.8493203,-0.61121726,6.1591477,64.84657,12.551283
-0.19952619,0.954922,-0.7702107,5.595091,62.449234,12.031883
-0.4265923,1.0581644,-0.9156042,4.862365,59.673393,11.348539
-0.63266754,1.1479061,-1.0387658,4.095162,56.557163,10.440863
-0.8021981,1.2194327,-1.1337048,3.388812,53.37574,9.423608
-0.9434193,1.2786462,-1.2072048,2.7412248,50.204987,8.337705
-1.0653468,1.3278029,-1.269047,2.0799274,47.044556,7.2255025
-1.166365,1.364505,-1.3254364,1.3422266,43.822,6.1510224
-1.2498678,1.3859873,-1.3774168,0.4495389,40.41411,5.3569965
-1.3298872,1.3962702,-1.4197263,-0.56557846,36.926704,4.6724563
-1.3963243,1.4016411,-1.4553201,-1.5020431,33.371105,3.8370752
-1.4334373,1.3968889,-1.4811608,-2.2885914,29.803482,2.8563302
-1.4444969,1.3904736,-1.4918773,-3.1120293,26.287426,1.9095544
-1.4508846,1.3704364,-1.4875765,-3.8640232,22.778149,0.8578969
-1.4378922,1.3272966,-1.4719537,-4.2939134,19.318443,-0.37450472
-1.3909197,1.2839689,-1.44096,-4.74611,15.9635105,-1.4991899
-1.3384467,1.2533762,-1.3967857,-5.44369,12.839063,-2.1741648
-1.3094512,1.2346115,-1.3601075,-6.410924,9.793887,-2.6993492
-1.2937721,1.2034664,-1.3313528,-6.913697,6.761301,-3.6921635
-1.2406256,1.1480368,-1.2891818,-6.993405,3.770692,-4.9921427
-1.1402212,1.0878257,-1.2182933,-7.238023,0.98319525,-5.9102874
-1.0348142,1.0356495,-1.1299549,-8.0422325,-1.474042,-6.1492057
-0.96553427,0.98703116,-1.0487622,-8.889293,-3.6622934,-6.2999454
-0.903601,0.937703,-0.972974,-9.080066,-5.6700845,-7.069867
-0.81124324,0.88180846,-0.8762808,-9.203389,-7.5475636,-7.8638186
-0.70541674,0.8186788,-0.7634489,-9.44063,-9.324461,-8.466247
-0.5814562,0.75514275,-0.6344402,-9.729338,-10.915142,-8.980904
-0.4413217,0.69077915,-0.4922481,-9.937889,-12.113847,-9.407342
-0.29678568,0.6238492,-0.3488871,-10.111213,-12.949898,-9.699347
-0.15270123,0.5487226,-0.20590375,-10.173345,-13.550271,-9.975078
-0.007148761,0.46926042,-0.0646536,-10.035546,-13.844886,-10.322247
0.14106728,0.38635585,0.074465014,-9.794047,-13.837327,-10.671146
0.28974167,0.3039935,0.21571048,-9.716371,-13.587975,-10.797408
0.4354673,0.22169189,0.35564578,-9.998784,-12.930848,-10.540355
0.5649804,0.13712645,0.48280913,-10.118687,-11.921824,-10.252871
0.68089867,0.058829103,0.59309244,-9.900033,-10.692789,-10.092506
0.7812889,-0.01103329,0.6912372,-9.495444,-9.29048,-9.968814
0.8622404,-0.070115946,0.77627826,-9.051824,-7.7325706,-9.833662
0.9214148,-0.1290711,0.84536827,-8.379781,-6.063306,-9.843175
0.9848582,-0.1878769,0.91231555,-7.5941095,-4.2689342,-9.893189
1.0603455,-0.23805429,0.980062,-6.855844,-2.2934747,-9.735827
1.1280346,-0.27364904,1.0389006,-6.366802,-0.15071723,-9.248374
1.1707224,-0.29624152,1.0731881,-5.988729,2.0143573,-8.633718
1.1912274,-0.31064782,1.0842065,-5.6791387,4.1586347,-8.139788
1.190176,-0.32882315,1.0720166,-5.2966113,6.226956,-7.6542983
1.1772091,-0.3432442,1.049476,-4.8899236,8.158346,-7.1711493
1.157558,-0.35249028,1.023721,-4.4020023,10.069321,-6.802004
1.1418577,-0.36295098,1.0006317,-3.706504,12.068493,-6.558464
1.1398128,-0.3687222,0.9873384,-3.0950909,14.233906,-6.101509
1.1358492,-0.3596579,0.96993774,-2.7264645,16.406301,-5.470886
1.1092846,-0.3391435,0.9383649,-2.5138316,18.52599,-4.8067803
1.0653595,-0.31280816,0.89468896,-2.3598788,20.583286,-4.1966796
1.0112432,-0.28341955,0.8396191,-2.3509226,22.541967,-3.560099
0.9545243,-0.2552864,0.773557,-2.524452,24.47816,-2.7482927
0.8794595,-0.2259489,0.68345016,-2.761421,26.333294,-1.8071964
0.782939,-0.19136523,0.5768556,-3.0482898,27.995136,-0.83484817
0.6698269,-0.15637815,0.4616445,-3.1881518,29.452753,0.033734266
0.54636264,-0.12027852,0.34154075,-3.0652416,30.619013,0.7158674
0.41977116,-0.077084005,0.22346802,-2.6841774,31.313997,1.1047003
0.30274293,-0.016496131,0.12189319,-2.332408,31.8072,1.4467626
0.1879221,0.047118384,0.03027143,-2.1714406,32.097473,1.8659096
0.065218344,0.109907694,-0.05409758,-2.1626933,32.21234,2.2985144
-0.060644094,0.16980308,-0.13639195,-2.1313171,32.195587,2.6162038
-0.18090191,0.22780544,-0.22015196,-2.003553,31.954077,2.6966538
-0.306619,0.29207575,-0.31099278,-2.0592313,31.349895,2.6638603
-0.43931195,0.35159853,-0.39865503,-2.342125,30.44039,2.5824864
-0.5714164,0.3950553,-0.48430404,-2.6180074,29.206656,2.3586867
-0.6812677,0.4247382,-0.55635005,-2.780304,27.838238,2.0580382
-0.77001095,0.4413658,-0.6155069,-2.725875,26.497614,1.785909
-0.8483421,0.45522168,-0.6672748,-2.6159713,25.132446,1.5337707
-0.924492,0.4643016,-0.716666,-2.442792,23.732065,1.350574
-0.9985618,0.45757985,-0.765848,-2.1721518,22.27468,1.4513344
-1.0670285,0.44463903,-0.8151401,-1.7652371,20.813517,1.7413362
-1.0337276,0.43076232,-0.78970045,-1.710146,20.163948,1.686991
-1.0014713,0.41732085,-0.76505876,-1.6567827,19.534754,1.6343503
-0.9702262,0.40430078,-0.74118954,-1.6050924,18.925287,1.5833598
-0.9399603,0.39168873,-0.71806836,-1.555022,18.334917,1.5339674
-0.91064245,0.37947175,-0.6956714,-1.50652,17.76304,1.4861221
-0.88224256,0.3676373,-0.67397577,-1.4595368,17.209072,1.439775
-0.8547316,0.35617328,-0.65295917,-1.4140241,16.672441,1.3948785
-0.8280815,0.34506798,-0.63260025,-1.3699355,16.152603,1.3513869
-0.802265,0.33431002,-0.6128781,-1.327226,15.649025,1.3092557
-0.77725583,0.3238885,-0.5937727,-1.2858521,15.161195,1.2684419
-0.75302845,0.31379277,-0.5752646,-1.2457715,14.688614,1.2289041
-0.7295583,0.30401257,-0.5573349,-1.2069438,14.2308035,1.190602
-0.70682144,0.29453796,-0.53996545,-1.169329,13.787298,1.1534966
-0.6847949,0.28535932,-0.5231386,-1.1328895,13.357647,1.1175504
-0.66345626,0.27646735,-0.5068373,-1.097588,12.941414,1.0827268
-0.64278394,0.26785302,-0.49104497,-1.0633887,12.538178,1.0489906
-0.62275696,0.25950766,-0.47574568,-1.0302571,12.1475315,1.0163077
-0.6033551,0.25142273,-0.46092394,-0.9981597,11.769078,0.9846449
-0.5845588,0.24359016,-0.44656476,-0.967064,11.402435,0.9539702
-0.5663489,0.23600198,-0.43265364,-0.9369386,11.047234,0.9242526
-0.5487072,0.22865054,-0.4191765,-0.907753,10.703113,0.8954623
-0.5316158,0.22152841,-0.4061198,-0.87947786,10.369727,0.8675699
-0.5150575,0.21462844,-0.39347032,-0.85208464,10.04674,0.8405476
-0.49901554,0.20794363,-0.3812153,-0.82554567,9.733825,0.814368
-0.48347384,0.20146729,-0.36934248,-0.7998343,9.430667,0.78900474
-0.46841672,0.19519287,-0.3578398,-0.7749246,9.136962,0.76443225
-0.45382902,0.18911405,-0.34669575,-0.7507914,8.852413,0.74062586
-0.43969604,0.18322474,-0.33589908,-0.72741055,8.576735,0.71756154
-0.4260036,0.177519,-0.32543895,-0.70475847,8.309649,0.6952162
-0.4127379,0.17199108,-0.31530482,-0.6828124,8.050888,0.67356724
-0.39988562,0.16663544,-0.30548653,-0.6615502,7.8001914,0.652593
-0.3874339,0.16144669,-0.2959742,-0.6409507,7.557307,0.63227236
-0.37537012,0.15641963,-0.28675827,-0.6209931,7.3219905,0.61258495
-0.36368227,0.1515492,-0.2778295,-0.6016573,7.094006,0.5935109
-0.35235855,0.14683053,-0.26917893,-0.5829239,6.873125,0.5750312
-0.3413876,0.14225885,-0.26079786,-0.5647741,6.6591253,0.55712724
-0.33075845,0.1378296,-0.25267786,-0.5471898,6.4517927,0.539781
-0.3204604,0.13353834,-0.24481083,-0.5301532,6.2509184,0.5229751
-0.31048316,0.12938073,-0.23718886,-0.5136474,6.056301,0.5066927
-0.30081666,0.12535262,-0.22980429,-0.49765563,5.8677464,0.49091747
-0.29145125,0.121449985,-0.22264974,-0.48216197,5.685064,0.4756336
-0.28237754,0.117668904,-0.215718,-0.46715087,5.5080714,0.46082577
-0.27358642,0.11400557,-0.20900217,-0.4526073,5.3365917,0.4464791
-0.2650691,0.11045634,-0.20249549,-0.43851668,5.170452,0.43257925
-0.256817,0.10701763,-0.19619143,-0.42486486,5.0094867,0.4191123
-0.2488219,0.10368601,-0.1900837,-0.41163817,4.8535337,0.4060647
-0.24107578,0.100458145,-0.18416616,-0.39882338,4.7024374,0.3934234
-0.23357087,0.09733079,-0.1784329,-0.38640764,4.556046,0.38117576
-0.22629964,0.094300814,-0.17287816,-0.3743785,4.414213,0.3693095
-0.21925484,0.09136519,-0.16749638,-0.36272395,4.276797,0.35781273
-0.21242939,0.088520974,-0.1622822,-0.35143226,4.1436596,0.34667397
-0.20581646,0.08576532,-0.15723035,-0.3404922,4.0146675,0.335882
-0.19940944,0.08309545,-0.15233581,-0.32989272,3.8896916,0.32542607
-0.19320191,0.08050873,-0.14759365,-0.31962332,3.768607,0.3152957
-0.18718764,0.078002535,-0.14299914,-0.3096736,3.6512923,0.30548072
-0.18136063,0.075574376,-0.13854769,-0.30003372,3.5376303,0.2959713
-0.17571503,0.07322181,-0.13423482,-0.29069394,3.4275072,0.286758
-0.17024522,0.07094249,-0.13005623,-0.2816449,3.3208125,0.27783152
-0.16494568,0.06873414,-0.12600774,-0.27287763,3.2174394,0.26918295
-0.15981112,0.06659453,-0.12208527,-0.26438332,3.1172848,0.26080364
-0.15483643,0.06452154,-0.11828493,-0.25615343,3.020248,0.2526852
-0.15001662,0.06251308,-0.11460291,-0.24817978,2.9262323,0.24481949
-0.14534685,0.060567155,-0.1110355,-0.24045436,2.8351436,0.23719865
-0.14082246,0.058681805,-0.107579164,-0.23296943,2.7468905,0.22981508
-0.1364389,0.05685515,-0.10423042,-0.22571751,2.6613848,0.22266136
-0.13219182,0.055085357,-0.10098593,-0.21869136,2.578541,0.21573034
-0.12807696,0.05337066,-0.09784244,-0.21188395,2.4982762,0.20901509
-0.124090195,0.051709343,-0.09479681,-0.20528844,2.42051,0.20250888
-0.12022753,0.05009974,-0.09184599,-0.19889826,2.3451648,0.19620521
-0.11648512,0.04854025,-0.08898703,-0.19270699,2.272165,0.19009778
-0.112859204,0.0470293,-0.08621707,-0.18670847,2.2014377,0.18418047
-0.10934616,0.04556539,-0.08353333,-0.18089667,2.1329122,0.17844737
-0.10594248,0.04414705,-0.08093314,-0.17526579,2.0665197,0.17289273
-0.10264475,0.04277286,-0.07841389,-0.16981019,2.0021942,0.167511
-0.09944967,0.041441448,-0.07597306,-0.16452444,1.9398708,0.16229682
-0.09635406,0.04015148,-0.07360821,-0.1594032,1.8794876,0.15724492
