ax,ay,az,gx,gy,gz
-0.9827362,-1.7400159,0.51364106,16.646515,8.822807,-27.410248
-1.0752965,-2.2536397,0.47617117,25.465673,6.131337,-27.378683
-0.9953787,-2.8522594,0.5278224,22.758942,1.2898794,-22.10084
-0.5641798,-3.5410845,0.5765826,19.249393,1.0338402,-13.657219
-0.20070323,-4.0848484,0.44486332,16.438862,3.6959493,-5.085728
0.07876012,-4.510348,0.13128255,18.324312,7.1346726,2.2202754
0.25948706,-4.7749147,-0.2631132,21.563034,9.853531,8.462983
0.3844632,-4.9493494,-0.6996615,25.741037,11.491516,15.3072405
0.4493929,-4.9507713,-1.2466484,30.23051,12.072922,21.957842
0.44599116,-4.7803655,-1.8620843,35.395603,10.96743,27.75419
0.4074693,-4.489779,-2.425739,40.707664,8.691939,32.06545
0.39295512,-4.0349092,-2.837229,46.06091,5.8134813,35.31847
0.3679468,-3.4337485,-3.1272528,50.275425,2.2942178,37.864517
0.3162255,-2.6633682,-3.2412696,52.39823,-1.5941298,40.40585
0.2603605,-1.7907536,-3.1843412,51.792007,-6.00344,43.18891
0.22180271,-0.89305615,-2.9761295,49.42553,-10.41993,44.868675
0.20954402,-0.04646349,-2.673727,46.558475,-14.115424,44.150227
0.21193756,0.68238,-2.312369,43.53041,-16.48784,40.87576
0.1988146,1.3145252,-1.8903801,40.0591,-18.135818,37.037464
0.15246654,1.8789417,-1.4800508,35.74737,-19.48368,32.75807
0.101070926,2.334939,-1.1199706,30.85506,-20.729273,27.652504
0.088872045,2.6376424,-0.8229802,25.772879,-21.696518,21.570915
0.12022647,2.7666695,-0.5751612,20.801716,-22.228605,14.940416
0.20833714,2.706443,-0.3381313,15.822366,-22.308363,8.875351
0.32748955,2.5398705,-0.12802862,10.939951,-21.858633,3.6222124
0.46674818,2.2848508,0.026068114,6.6662164,-21.114616,-1.0574245
0.61422336,1.9415256,0.13458043,3.0928986,-20.326029,-5.459213
0.791629,1.4897354,0.23457111,0.49406567,-18.717276,-8.892976
0.962178,0.95080215,0.2767922,-1.3986385,-16.53922,-10.912373
1.0928347,0.4158721,0.25523463,-2.72547,-14.086978,-11.412645
1.1769967,-0.085118845,0.16262116,-3.3481653,-11.759419,-10.500165
1.2122335,-0.532572,0.007814574,-3.1175733,-9.780935,-8.587812
1.2043002,-0.9166674,-0.18763894,-1.7348363,-8.427079,-5.889386
1.1570426,-1.202598,-0.4065045,0.19742462,-7.5178223,-2.8410165
1.0890794,-1.4097604,-0.6246998,2.6288004,-7.0149136,0.51900303
1.0085123,-1.5385265,-0.8370587,5.3596735,-6.8701086,4.092937
0.92619145,-1.5697478,-1.027303,8.268793,-7.171246,7.694044
0.8585045,-1.5057025,-1.1795431,11.210162,-7.792837,10.900966
0.7942606,-1.3664356,-1.3042783,13.985146,-8.650646,13.558814
0.73757416,-1.2191694,-1.4172196,16.475523,-9.704666,15.821508
0.68226737,-1.0802784,-1.5155824,18.736294,-10.906815,17.915915
0.6286305,-0.9164095,-1.590819,20.58418,-12.391883,20.143545
0.5788954,-0.6973103,-1.6400759,21.920622,-14.412472,22.129406
0.5468382,-0.42832705,-1.6402849,22.850294,-16.459446,23.325094
0.5317235,-0.15037322,-1.6009688,23.428429,-18.246088,23.856684
0.5207174,0.1556474,-1.5292114,23.377853,-19.853893,24.066933
0.50736946,0.4843896,-1.4391174,22.535116,-21.359587,23.872473
0.49326038,0.80307174,-1.3444513,20.985569,-22.720367,22.859022
0.4811821,1.0853367,-1.2512901,18.99652,-23.939297,21.347176
0.4661562,1.3343879,-1.1555,16.593483,-25.039726,19.464552
0.4438235,1.5456762,-1.0550432,13.860005,-26.008787,17.130337
0.4205711,1.7139659,-0.954927,10.977686,-26.795115,14.27754
0.4033139,1.8338319,-0.87044275,7.964303,-27.39253,10.931694
0.39006492,1.8764471,-0.812052,5.13121,-27.961405,7.169527
0.3904603,1.8570857,-0.7526524,2.488378,-28.537415,3.132773
0.40994892,1.7728963,-0.6775857,-0.09141899,-29.120436,-0.8460321
0.45483634,1.6140405,-0.58874863,-2.567091,-29.68822,-4.5272193
0.53434867,1.3895779,-0.49918863,-4.925325,-30.075455,-7.4613004
0.653679,1.0873332,-0.42080832,-7.02959,-30.016113,-9.634271
0.78091884,0.7596725,-0.35863307,-8.80062,-29.386314,-10.879129
0.88876265,0.44869778,-0.3149563,-10.642053,-28.31481,-11.281094
0.97436464,0.17666543,-0.28165305,-12.288494,-27.011885,-11.089621
1.0447742,-0.032099288,-0.25416148,-13.609452,-25.647738,-10.198653
1.0110866,-0.031064281,-0.24596633,-13.17063,-24.820755,-9.869809
0.9785556,-0.03006481,-0.23805253,-12.746875,-24.022165,-9.552255
0.9471351,-0.029099457,-0.23040889,-12.3375845,-23.250835,-9.245541
0.9167813,-0.028166877,-0.22302474,-11.942189,-22.505692,-8.94924
0.8874527,-0.027265796,-0.21589,-11.560149,-21.785717,-8.662947
0.85911006,-0.026395006,-0.20899509,-11.190951,-21.089943,-8.386276
0.8317157,-0.025553351,-0.20233089,-10.834106,-20.417452,-8.118864
0.8052341,-0.024739739,-0.19588873,-10.489151,-19.767365,-7.8603616
0.77963114,-0.023953123,-0.18966033,-10.155642,-19.13885,-7.6104364
0.7548746,-0.02319251,-0.18363781,-9.833158,-18.531109,-7.368773
0.7309334,-0.02245695,-0.17781366,-9.521295,-17.943388,-7.1350694
0.70777816,-0.021745536,-0.1721807,-9.219669,-17.37496,-6.9090376
0.68538064,-0.0210574,-0.16673206,-8.927915,-16.82513,-6.690402
0.66371375,-0.020391716,-0.16146117,-8.645678,-16.29324,-6.478899
0.64275175,-0.019747688,-0.15636177,-8.372622,-15.778652,-6.2742767
0.6224699,-0.019124554,-0.15142782,-8.108426,-15.280761,-6.0762935
0.6028445,-0.018521588,-0.14665355,-7.852781,-14.798985,-5.884718
0.5838527,-0.017938092,-0.14203344,-7.60539,-14.332764,-5.6993284
0.56547284,-0.017373394,-0.13756217,-7.3659697,-13.881563,-5.519912
0.54768384,-0.016826853,-0.13323466,-7.134247,-13.444869,-5.346263
0.5304657,-0.016297849,-0.12904602,-6.9099593,-13.022187,-5.1781864
0.513799,-0.015785787,-0.12499153,-6.692856,-12.613044,-5.0154934
0.49766523,-0.015290097,-0.12106667,-6.4826937,-12.216982,-4.8580017
0.48204646,-0.0148102315,-0.1172671,-6.27924,-11.833563,-4.705538
0.4669255,-0.014345661,-0.11358864,-6.082271,-11.462364,-4.5579333
0.4522858,-0.013895875,-0.110027246,-5.8915715,-11.102981,-4.4150267
0.4381114,-0.013460386,-0.10657905,-5.7069325,-10.755019,-4.276662
0.42438695,-0.01303872,-0.10324031,-5.528155,-10.418103,-4.1426897
0.41109765,-0.012630424,-0.10000743,-5.355046,-10.091869,-4.0129647
0.3982292,-0.012235059,-0.09687694,-5.187419,-9.775968,-3.8873487
0.3857679,-0.011852202,-0.09384549,-5.025095,-9.470059,-3.7657065
0.37370044,-0.011481445,-0.090909846,-4.867902,-9.1738205,-3.6479092
0.36201403,-0.011122396,-0.0880669,-4.715672,-8.886935,-3.5338311
0.35069633,-0.010774675,-0.08531365,-4.568245,-8.609101,-3.4233522
0.33973536,-0.010437914,-0.08264718,-4.4254656,-8.340026,-3.316356
0.32911965,-0.010111761,-0.08006471,-4.2871833,-8.079425,-3.21273
0.31883812,-0.009795873,-0.077563524,-4.153253,-7.8270273,-3.1123655
0.30887994,-0.009489923,-0.075141005,-4.023536,-7.582568,-3.0151582
0.2992348,-0.009193589,-0.07279464,-3.8978965,-7.345794,-2.9210064
0.28989267,-0.008906565,-0.07052199,-3.776204,-7.116458,-2.8298123
0.28084388,-0.008628552,-0.06832069,-3.6583323,-6.8943224,-2.7414818
0.27207905,-0.008359264,-0.06618848,-3.5441597,-6.6791577,-2.655923
0.2635891,-0.008098423,-0.06412314,-3.433568,-6.470742,-2.5730479
0.25536534,-0.007845758,-0.06212255,-3.3264437,-6.2688603,-2.492771
0.2473993,-0.007601012,-0.060184654,-3.222676,-6.073305,-2.4150095
0.23968278,-0.007363932,-0.05830746,-3.122159,-5.8838754,-2.339684
0.23220788,-0.007134276,-0.056489047,-3.0247896,-5.700377,-2.2667172
0.22496696,-0.006911808,-0.05472755,-2.9304676,-5.5226226,-2.1960342
0.2179526,-0.0066963015,-0.053021174,-2.839097,-5.3504295,-2.127563
0.21115763,-0.006487536,-0.05136817,-2.7505846,-5.1836233,-2.0612335
0.20457518,-0.006285298,-0.049766857,-2.66484,-5.0220327,-1.9969782
0.19819848,-0.006089383,-0.048215605,-2.581776,-4.8654943,-1.9347316
0.1920211,-0.005899591,-0.046712838,-2.5013077,-4.713848,-1.8744304
0.18603672,-0.005715729,-0.04525702,-2.4233541,-4.56694,-1.8160135
0.18023929,-0.0055376105,-0.043846685,-2.3478355,-4.424621,-1.7594213
0.17462292,-0.0053650555,-0.042480394,-2.2746754,-4.286747,-1.7045966
0.16918193,-0.005197888,-0.04115677,-2.2038,-4.153178,-1.6514839
0.16391079,-0.0050359396,-0.039874464,-2.135137,-4.0237794,-1.6000292
0.1588042,-0.004879046,-0.038632184,-2.0686173,-3.8984196,-1.5501808
0.15385696,-0.004727049,-0.037428673,-2.0041735,-3.776972,-1.5018879
0.1490641,-0.0045797946,-0.036262717,-1.9417408,-3.659314,-1.455102
0.14442076,-0.004437134,-0.035133135,-1.8812556,-3.5453265,-1.4097756
0.13992226,-0.0042989245,-0.034038793,-1.8226573,-3.434895,-1.3658632
0.13556409,-0.004165025,-0.03297858,-1.7658868,-3.3279078,-1.3233205
0.13134181,-0.0040353015,-0.03195143,-1.7108866,-3.224257,-1.2821045
0.12725121,-0.0039096233,-0.030956313,-1.6576015,-3.1238384,-1.2421737
0.12328815,-0.0037878633,-0.02999222,-1.6059778,-3.0265508,-1.2034879
0.11944864,-0.0036698994,-0.029058186,-1.5559635,-2.932296,-1.1660081
0.11572881,-0.0035556129,-0.028153267,-1.5075083,-2.8409796,-1.1296967
0.112124935,-0.0034448884,-0.027276555,-1.4605634,-2.7525096,-1.0945172
0.108633384,-0.0033376152,-0.026427167,-1.4150816,-2.666797,-1.0604341
0.10525064,-0.003233685,-0.02560425,-1.3710173,-2.5837553,-1.0274132
0.10197332,-0.0031329936,-0.024806976,-1.3283262,-2.5033016,-0.9954213
0.09879812,-0.0030354396,-0.024034549,-1.2869654,-2.4253547,-0.9644263
0.09572185,-0.0029409255,-0.023286186,-1.2468932,-2.3498368,-0.93439704
0.09274142,-0.002849356,-0.02256114,-1.2080696,-2.2766716,-0.90530336
0.08985385,-0.0027606392,-0.021858683,-1.1704555,-2.2057858,-0.8771161
0.08705624,-0.0026746863,-0.02117811,-1.1340132,-2.1371083,-0.84980696
0.08434577,-0.002591411,-0.020518737,-1.0987061,-2.0705702,-0.8233485
0.08171974,-0.0025107295,-0.019879904,-1.0644988,-2.0061047,-0.7977143
0.0791755,-0.0024325612,-0.019260969,-1.031357,-1.9436473,-0.77287847
0.07671051,-0.0023568277,-0.01866131,-0.9992475,-1.8831352,-0.74881625
0.07432229,-0.0022834528,-0.018080331,-0.96813804,-1.8245077,-0.72550344
0.07200845,-0.0022123633,-0.017517446,-0.9379975,-1.7677063,-0.7029167
0.06976668,-0.0021434876,-0.01697209,-0.9087956,-1.7126738,-0.6810334
0.067594714,-0.002076757,-0.016443718,-0.8805032,-1.6593552,-0.6598316
0.06549039,-0.0020121045,-0.0159318,-0.8530918,-1.607697,-0.63929003
0.063451596,-0.0019494653,-0.015435824,-0.82653403,-1.5576475,-0.61938816
0.061476287,-0.0018887765,-0.014955292,-0.80080324,-1.5091563,-0.60010606
0.05956249,-0.0018299776,-0.014489724,-0.77587366,-1.4621754,-0.58142436
0.057708282,-0.0017730097,-0.014038653,-0.7517204,-1.4166572,-0.56332433
0.055911813,-0.0017178155,-0.013601627,-0.72831917,-1.3725563,-0.54578793
0.054171275,-0.0016643399,-0.013178208,-0.70564663,-1.3298287,-0.52879757
0.052484937,-0.0016125294,-0.012767973,-0.68368,-1.2884314,-0.5123362
0.0508511,-0.0015623319,-0.012370512,-0.6623973,-1.2483231,-0.4963874
0.049268134,-0.0015136974,-0.011985425,-0.6417773,-1.2094635,-0.48093513
0.047734454,-0.0014665772,-0.011612327,-0.62179923,-1.1718137,-0.465964
0.046248525,-0.001420924,-0.011250846,-0.60244316,-1.1353363,-0.45145893
0.044808853,-0.0013766921,-0.0109006185,-0.5836897,-1.0999944,-0.4374055
0.043414008,-0.0013338373,-0.010561295,-0.56552017,-1.0657529,-0.42378956
0.042062588,-0.0012923166,-0.010232536,-0.54791623,-1.0325774,-0.41059756
0.040753238,-0.0012520887,-0.009914012,-0.53086036,-1.0004348,-0.39781624
0.039484654,-0.0012131131,-0.009605404,-0.5143355,-0.9692927,-0.38543284
0.03825556,-0.0011753509,-0.009306403,-0.4983251,-0.93912023,-0.37343493
0.03706473,-0.0011387642,-0.009016711,-0.48281312,-0.909887,-0.36181056
0.035910975,-0.0011033166,-0.008736038,-0.46778402,-0.8815639,-0.35054806
0.034793135,-0.0010689724,-0.008464102,-0.4532228,-0.8541225,-0.33963618
0.033710096,-0.0010356975,-0.008200631,-0.4391149,-0.8275354,-0.32906398
0.032660767,-0.0010034584,-0.0079453625,-0.42544615,-0.801776,-0.3188209
0.03164411,-0.0009722229,-0.0076980405,-0.41220292,-0.7768184,-0.3088967
0.0306591,-0.00094195973,-0.0074584177,-0.39937198,-0.7526378,-0.29928142
0.029704751,-0.00091263873,-0.007226254,-0.38694045,-0.7292099,-0.28996548
0.028780112,-0.0008842304,-0.0070013176,-0.3748959,-0.7065113,-0.28093955
0.027884256,-0.00085670647,-0.0067833834,-0.3632263,-0.6845193,-0.27219456
0.027016288,-0.00083003927,-0.0065722335,-0.35191995,-0.6632119,-0.26372182
0.026175339,-0.0008042022,-0.0063676564,-0.34096557,-0.64256775,-0.25551283
0.025360567,-0.0007791695,-0.0061694477,-0.3303522,-0.6225663,-0.24755937
