ax,ay,az,gx,gy,gz
-0.7136429,-1.9836544,-1.9009265,7.6018877,-1.7200156,-15.314685
-0.7929065,-2.3859572,-2.1420538,6.3064275,-2.0926054,-16.07337
-0.66981053,-3.0219617,-2.410264,6.004129,-2.9155133,-12.25957
-0.46250486,-3.5532036,-2.6121657,5.8043346,-3.0683925,-4.910305
-0.23905274,-3.9331784,-2.8208847,6.5739665,-3.1494086,2.0316374
-0.014970685,-4.17162,-3.0216432,8.324359,-2.5878336,8.594199
0.1455933,-4.294705,-3.248773,12.667926,-2.140122,15.14678
0.1892504,-4.257168,-3.5121968,18.377806,-2.891336,20.951681
0.20619845,-4.0534344,-3.696215,23.825394,-4.6042094,26.199167
0.21442975,-3.7448244,-3.8090656,28.996304,-6.7342,30.873379
0.21494932,-3.3629718,-3.8920743,33.601555,-8.907029,34.939213
0.17911397,-2.9705465,-3.9793413,37.97904,-11.036991,37.923626
0.09533094,-2.4631295,-4.0209203,41.525196,-13.763211,40.265717
-0.0048412913,-1.9089308,-4.0211515,44.03915,-17.211224,41.724106
-0.10057357,-1.384308,-3.9956906,45.90952,-20.952246,42.114124
-0.18763731,-0.91552806,-3.9435303,47.395035,-24.683104,41.82424
-0.26999855,-0.38846654,-3.8117554,47.1175,-29.047338,41.58268
-0.305305,0.25544775,-3.5462446,45.092266,-33.6093,40.78922
-0.2875722,0.8751595,-3.2121413,41.891804,-37.581005,38.788795
-0.2464258,1.4245898,-2.842884,38.19285,-40.496563,35.39912
-0.200782,1.9142439,-2.4677134,34.221905,-42.485744,30.974852
-0.13571768,2.361717,-2.0893657,28.686275,-43.806263,25.96881
-0.034654662,2.688524,-1.7214103,22.55381,-44.497013,20.65051
0.07153271,2.8816547,-1.4017054,16.403236,-44.657562,14.92589
0.19010724,2.9094849,-1.1316833,10.324926,-44.398254,9.169186
0.33524457,2.7696736,-0.9098541,4.482457,-43.563293,3.9039967
0.49616054,2.4947977,-0.7387576,-0.7734004,-41.821632,-0.8201148
0.6419316,2.052148,-0.6314917,-5.205601,-39.72091,-4.8957815
0.75049865,1.506522,-0.58328205,-8.592853,-37.826405,-7.957332
0.85455316,0.897451,-0.56512237,-10.90662,-36.062546,-9.777544
0.96183634,0.27703685,-0.57638216,-12.022147,-34.159508,-10.28767
1.0490804,-0.30119735,-0.6243797,-11.622371,-32.064285,-9.374865
1.099223,-0.7954847,-0.7018445,-10.23636,-30.00429,-7.6268873
1.1158823,-1.1885626,-0.78203833,-7.935412,-28.030714,-5.0078864
1.1045082,-1.47429,-0.8687558,-5.1241956,-26.223919,-1.8694655
1.0715429,-1.6621851,-0.9689435,-1.9653711,-24.65344,1.4054838
1.0281023,-1.7661896,-1.0834339,1.3131605,-23.386261,4.498805
0.96340835,-1.8081881,-1.2274848,4.8155746,-22.437016,7.3141947
0.89454883,-1.8028967,-1.37857,8.523805,-21.831161,9.969262
0.8299902,-1.734157,-1.5171334,12.142321,-21.510511,12.628826
0.765798,-1.5747015,-1.6351227,15.324605,-21.639927,15.340454
0.7020982,-1.3321522,-1.7237557,17.437208,-22.426905,17.6736
0.6488971,-1.0642384,-1.7761085,19.198093,-23.309292,19.31321
0.60509485,-0.8005483,-1.8108461,20.641426,-24.086641,20.410183
0.5514351,-0.51947165,-1.832867,21.655773,-24.986809,21.225384
0.4993646,-0.1977754,-1.8218907,21.84072,-26.224642,21.910986
0.4568629,0.13871293,-1.7748492,21.179577,-27.664211,21.97843
0.42150652,0.45546332,-1.7060872,20.086828,-29.047401,21.371138
0.39244083,0.7243158,-1.6383046,18.638266,-30.308641,20.199276
0.36957425,0.94797325,-1.574486,16.96544,-31.462152,18.64115
0.3450014,1.1566449,-1.5060369,15.036664,-32.640713,16.78348
0.3207362,1.3519864,-1.4195135,12.6392565,-33.98289,14.507706
0.30795005,1.5264724,-1.296491,9.7885475,-35.320953,11.986076
0.31919453,1.6603391,-1.160397,6.7100005,-36.51126,9.116634
0.36884642,1.7446709,-1.0135291,3.6367486,-37.34186,5.8908744
0.44604173,1.7786732,-0.8526298,0.5577931,-37.7592,2.3649108
0.53255635,1.7452086,-0.6746446,-2.5293183,-37.643513,-1.3174912
0.6396071,1.6050651,-0.5004029,-5.65089,-37.13794,-4.5668054
0.7772239,1.3761476,-0.36618343,-8.862045,-36.313496,-7.031727
0.9467255,1.0523366,-0.27321467,-11.631059,-35.015354,-8.72715
0.91597366,1.0181543,-0.26434,-11.253255,-33.877975,-8.443672
0.88629836,0.98516864,-0.25577605,-10.888678,-32.780415,-8.170118
0.8576548,0.95332974,-0.24750984,-10.536775,-31.721008,-7.906075
0.8300007,0.9225907,-0.23952916,-10.197028,-30.6982,-7.651152
0.803296,0.892907,-0.23182248,-9.868946,-29.710508,-7.404982
0.7775029,0.8642366,-0.22437887,-9.552063,-28.75653,-7.167215
0.7525855,0.8365395,-0.21718797,-9.245938,-27.834942,-6.9375196
0.7285097,0.809778,-0.21023996,-8.950154,-26.944479,-6.715583
0.7052432,0.78391594,-0.2035255,-8.664311,-26.08395,-6.5011067
0.6827552,0.7589193,-0.1970357,-8.388034,-25.252214,-6.2938066
0.6610164,0.7347555,-0.19076213,-8.12096,-24.448189,-6.0934134
0.639999,0.7113935,-0.18469673,-7.8627496,-23.670843,-5.899669
0.6196763,0.68880373,-0.17883183,-7.6130743,-22.919195,-5.71233
0.60002303,0.6669581,-0.1731601,-7.3716226,-22.192303,-5.5311613
0.5810149,0.6458295,-0.16767457,-7.138097,-21.489273,-5.3559394
0.56262875,0.6253923,-0.16236852,-6.9122124,-20.809248,-5.1864514
0.5448424,0.6056219,-0.1572356,-6.6936975,-20.151407,-5.0224924
0.52763474,0.58649457,-0.15226963,-6.482291,-19.514969,-4.8638678
0.5109854,0.56798786,-0.14746481,-6.2777443,-18.899178,-4.7103896
0.49487484,0.5500802,-0.14281549,-6.079818,-18.303318,-4.561879
0.47928452,0.53275067,-0.13831629,-5.8882813,-17.726698,-4.418164
0.46419647,0.5159795,-0.13396205,-5.702916,-17.168655,-4.279078
0.4495935,0.4997475,-0.1297478,-5.523511,-16.628555,-4.1444645
0.43545914,0.4840364,-0.12566876,-5.349862,-16.105783,-4.01417
0.42177746,0.46882847,-0.12172038,-5.1817746,-15.599757,-3.8880494
0.40853325,0.4541068,-0.11789824,-5.019062,-15.109909,-3.7659607
0.39571178,0.43985507,-0.11419811,-4.861543,-14.635698,-3.6477695
0.383299,0.42605758,-0.11061592,-4.709045,-14.176602,-3.5333452
0.37128127,0.41269922,-0.10714773,-4.5614004,-13.732118,-3.4225628
0.35964552,0.39976546,-0.10378978,-4.4184484,-13.30176,-3.3153014
0.3483791,0.38724223,-0.10053842,-4.2800345,-12.885064,-3.211445
0.33746994,0.37511608,-0.097390145,-4.146009,-12.48158,-3.1108816
0.32690623,0.363374,-0.094341576,-4.016228,-12.090874,-3.0135028
0.31667677,0.35200337,-0.09138946,-3.8905532,-11.712528,-2.919205
0.3067706,0.34099212,-0.088530645,-3.7688503,-11.346141,-2.8278873
0.29717723,0.33032855,-0.085762106,-3.6509902,-10.991323,-2.7394533
0.2878865,0.32000142,-0.08308091,-3.5368485,-10.647699,-2.653809
0.27888867,0.30999982,-0.08048423,-3.426305,-10.314907,-2.570865
0.27017424,0.3003133,-0.07796934,-3.3192434,-9.992598,-2.490533
0.2617341,0.2909316,-0.07553361,-3.2155516,-9.680433,-2.41273
0.25355944,0.28184506,-0.0731745,-3.1151214,-9.378087,-2.337374
0.24564177,0.2730441,-0.07088954,-3.0178483,-9.085246,-2.2643867
0.23797283,0.26451966,-0.06867636,-2.9236307,-8.801604,-2.1936924
0.23054466,0.25626287,-0.06653268,-2.8323717,-8.526868,-2.125218
0.2233496,0.24826518,-0.06445626,-2.7439764,-8.260754,-2.058892
0.21638022,0.24051833,-0.062444974,-2.6583536,-8.002986,-1.9946465
0.20962934,0.23301436,-0.060496744,-2.5754151,-7.753299,-1.9324152
0.20309001,0.22574554,-0.058609564,-2.4950757,-7.511437,-1.8721341
0.19675553,0.21870442,-0.0567815,-2.417253,-7.277151,-1.8137412
0.19061938,0.21188375,-0.055010676,-2.341867,-7.0502014,-1.7571768
0.1846753,0.2052766,-0.05329528,-2.2688406,-6.830355,-1.7023828
0.17891721,0.19887617,-0.05163356,-2.1980994,-6.617388,-1.6493033
0.17333925,0.19267595,-0.050023817,-2.1295707,-6.4110823,-1.5978842
0.1679357,0.18666962,-0.048464414,-2.0631852,-6.2112284,-1.5480729
0.16270109,0.18085106,-0.04695376,-1.9988748,-6.017622,-1.4998189
0.15763006,0.17521434,-0.045490317,-1.9365745,-5.830066,-1.453073
0.15271749,0.16975376,-0.044072602,-1.8762208,-5.648371,-1.4077877
0.14795838,0.16446374,-0.042699177,-1.8177524,-5.472352,-1.363917
0.1433479,0.15933895,-0.04136864,-1.7611101,-5.3018303,-1.3214165
0.13888139,0.15437418,-0.040079657,-1.7062365,-5.136633,-1.2802432
0.13455433,0.14956442,-0.03883091,-1.6530759,-4.976593,-1.2403551
0.13036232,0.14490476,-0.037621144,-1.6015748,-4.8215485,-1.2017121
0.12630112,0.14039055,-0.03644913,-1.5516808,-4.6713424,-1.1642752
0.12236667,0.13601717,-0.03531369,-1.5033438,-4.525823,-1.1280063
0.11855496,0.13178025,-0.03421367,-1.4565147,-4.3848443,-1.092869
0.11486215,0.12767549,-0.033147965,-1.4111465,-4.248263,-1.0588278
0.11128452,0.12369876,-0.0321155,-1.3671933,-4.1159415,-1.0258483
0.10781846,0.11984605,-0.031115234,-1.3246108,-3.987747,-0.9938973
0.104460485,0.116113484,-0.030146157,-1.2833562,-3.8635497,-0.96294266
0.101207204,0.112497285,-0.029207297,-1.2433878,-3.7432246,-0.9329531
0.09805535,0.10899383,-0.028297706,-1.2046654,-3.626651,-0.90389854
0.09500175,0.10559958,-0.02741647,-1.1671503,-3.5137112,-0.8757497
0.092043325,0.10231114,-0.026562702,-1.1308044,-3.4042916,-0.8484782
0.08917711,0.099125184,-0.025735542,-1.0955913,-3.2982826,-0.8220567
0.08640022,0.09603852,-0.024934161,-1.0614756,-3.1955771,-0.79645866
0.083709866,0.09304804,-0.024157755,-1.0284231,-3.0960724,-0.7716583
0.08110334,0.09015076,-0.02340554,-0.9964005,-2.9996681,-0.7476307
0.07857803,0.08734374,-0.022676764,-0.9653756,-2.906268,-0.7243518
0.0761314,0.08462418,-0.021970695,-0.9353174,-2.8157773,-0.7017982
0.073761,0.08198935,-0.021286622,-0.90619564,-2.7281063,-0.6799472
0.07146444,0.07943659,-0.020623859,-0.8779811,-2.643166,-0.65877694
0.06923942,0.076963365,-0.019981742,-0.8506455,-2.560872,-0.63826615
0.06708371,0.07456718,-0.019359628,-0.82416135,-2.4811416,-0.61839426
0.06499515,0.07224562,-0.01875689,-0.79850215,-2.4038944,-0.59914136
0.06297164,0.06999638,-0.018172927,-0.7736422,-2.3290534,-0.58048815
0.061011147,0.06781719,-0.017607152,-0.7495565,-2.2565432,-0.5624159
0.059111718,0.06570587,-0.017058998,-0.7262209,-2.1862915,-0.5449065
0.057271443,0.06366031,-0.016527914,-0.7036121,-2.1182275,-0.52794236
0.05548848,0.061678447,-0.01601337,-0.6817074,-2.0522833,-0.51150656
0.05376104,0.059758306,-0.015514851,-0.6604848,-1.9883926,-0.4955826
0.052087393,0.05789796,-0.015031855,-0.6399231,-1.9264915,-0.4801545
0.050465863,0.05609554,-0.014563899,-0.62000173,-1.866518,-0.46520686
0.04889483,0.054349247,-0.014110515,-0.6007006,-1.8084121,-0.45072466
0.04737271,0.052657332,-0.013671248,-0.58200055,-1.7521154,-0.4366934
0.04589799,0.0510181,-0.01324566,-0.56388277,-1.6975716,-0.42309904
0.044469185,0.049429905,-0.012833322,-0.5463291,-1.6447263,-0.40992796
0.043084867,0.047891162,-0.012433823,-0.52932197,-1.5935262,-0.397167
0.041743655,0.04640033,-0.012046764,-0.5128444,-1.5439204,-0.38480335
0.0404442,0.044955913,-0.0116717545,-0.49687985,-1.4958591,-0.37282464
0.0391852,0.04355647,-0.011308421,-0.48141235,-1.4492941,-0.3612189
0.0379654,0.042200595,-0.0109564,-0.4664264,-1.4041789,-0.34997445
0.036783576,0.040886935,-0.0106153395,-0.45190704,-1.3604683,-0.33908013
0.035638545,0.039614175,-0.010284896,-0.43783972,-1.3181185,-0.32852495
0.034529164,0.038381036,-0.009964741,-0.42421034,-1.2770871,-0.3182984
0.03345432,0.037186287,-0.009654553,-0.41100526,-1.2373333,-0.30839023
0.03241294,0.036028735,-0.009354021,-0.3982113,-1.198817,-0.2987905
0.031403977,0.03490722,-0.009062846,-0.38581565,-1.1614997,-0.28948966
0.030426428,0.03382062,-0.008780736,-0.37380588,-1.1253443,-0.28047836
0.029479308,0.032767847,-0.008507407,-0.36216998,-1.0903144,-0.27174756
0.028561674,0.031747848,-0.008242588,-0.35089633,-1.056375,-0.2632886
0.027672606,0.030759599,-0.007986013,-0.33997363,-1.0234922,-0.25509295
0.026811216,0.029802117,-0.0077374247,-0.32939097,-0.991633,-0.24715243
0.025976641,0.028874442,-0.0074965754,-0.31913772,-0.9607656,-0.23945911
0.025168046,0.027975645,-0.0072632236,-0.30920368,-0.9308591,-0.23200528
0.024384622,0.027104827,-0.0070371362,-0.29957888,-0.9018836,-0.2247835
0.023625586,0.026261117,-0.006818087,-0.2902537,-0.87381005,-0.2177865
0.022890178,0.025443671,-0.006605856,-0.2812188,-0.8466105,-0.21100734
0.022177663,0.024651673,-0.0064002317,-0.27246514,-0.82025754,-0.2044392
0.021487327,0.023884328,-0.006201009,-0.263984,-0.794725,-0.19807552
0.020818483,0.02314087,-0.006007987,-0.25576684,-0.7699872,-0.19190994
