ax,ay,az,gx,gy,gz
-0.19181992,-0.50455004,1.0872825,12.928299,-2.9409356,-0.2218202
0.06157471,-1.1170244,1.634132,10.868866,0.11795166,1.4833695
0.25981286,-1.6870812,1.9133047,5.2458224,5.1490145,5.008021
0.38715863,-2.3003044,1.7869093,-0.7151999,9.82043,9.116378
0.4844001,-2.9264996,1.3719888,-1.6458616,13.506648,13.230567
0.5444067,-3.522346,0.8677429,2.2224422,15.463293,17.283321
0.6177105,-4.011994,0.3321242,6.77495,16.54912,21.890226
0.6964136,-4.3442545,-0.18651365,11.591722,17.153934,27.54578
0.7494318,-4.5106153,-0.71912676,16.29956,17.222183,33.3076
0.78035647,-4.5814548,-1.2756327,21.410147,16.655357,38.47003
0.77230155,-4.534868,-1.8266441,28.288624,14.64636,42.607254
0.75358033,-4.2616873,-2.2501175,34.63823,11.749171,46.571655
0.7460783,-3.8368306,-2.5438378,40.29203,8.478208,50.412457
0.7303071,-3.3117077,-2.7706456,44.87801,5.083316,53.53306
0.7010177,-2.7978463,-2.9756155,49.131306,1.8675183,55.448463
0.645825,-2.310098,-3.1424198,53.124805,-1.3116102,56.47553
0.5582207,-1.6806974,-3.2207255,55.630184,-5.275821,57.324245
0.48171023,-1.0251824,-3.2090948,56.38016,-9.787704,57.80487
0.4356678,-0.36808708,-3.1035538,55.427486,-14.143311,57.847164
0.3878775,0.2741853,-2.921604,53.48286,-18.254017,56.94565
0.35494462,0.9354367,-2.6473622,50.323635,-22.186174,54.856453
0.35686758,1.5926054,-2.2899466,46.144283,-25.62438,51.6328
0.38460514,2.1494038,-1.9210576,41.183044,-28.04107,47.202244
0.4076296,2.5971575,-1.5701764,35.954033,-29.652163,41.965424
0.4232362,2.9400136,-1.2286783,30.016508,-30.615738,36.338806
0.44325447,3.157888,-0.90365756,22.97794,-30.805565,30.247871
0.48858532,3.2087736,-0.6462078,16.040071,-30.523264,23.881355
0.570271,3.1063035,-0.46068686,9.484892,-29.856977,17.31688
0.6876946,2.8398108,-0.32914013,3.67506,-28.86823,10.899029
0.8131806,2.4261332,-0.23788871,-1.1192994,-27.567446,5.207325
0.937832,1.9303083,-0.17850433,-5.119885,-26.071852,1.4022335
1.0556338,1.3817661,-0.16090612,-8.207134,-24.293297,-1.0936042
1.1422532,0.83353233,-0.19028506,-10.196756,-22.48323,-2.6400187
1.2041473,0.28969294,-0.25237495,-11.021537,-20.73627,-3.4042244
1.2542001,-0.23425923,-0.33958417,-10.75468,-19.084757,-3.2909725
1.295413,-0.71181077,-0.44299644,-9.351275,-17.542288,-2.056577
1.3213435,-1.1015017,-0.54171294,-7.5686216,-16.054647,0.04806985
1.3309726,-1.4090505,-0.64090765,-5.419924,-14.642615,2.721849
1.3207005,-1.6292917,-0.7493327,-2.9213128,-13.420355,5.6187906
1.295664,-1.7737157,-0.86172366,-0.060470797,-12.440855,8.555722
1.2629461,-1.8526181,-0.9724143,3.0884967,-11.645712,11.556275
1.225714,-1.8601289,-1.0896261,6.3690653,-10.956496,14.445535
1.1884218,-1.8174524,-1.2128544,9.832278,-10.382399,17.157066
1.1542652,-1.7229822,-1.3403622,13.224791,-9.936566,19.737978
1.1157198,-1.5805991,-1.4788482,16.387201,-9.834449,22.09774
1.074968,-1.4107555,-1.619521,19.349173,-10.345326,24.05528
1.0429727,-1.1878253,-1.725329,22.073097,-11.149019,25.742481
1.0068581,-0.91073906,-1.7976176,24.167217,-12.173392,27.176937
0.96813166,-0.6046145,-1.842226,25.555294,-13.308654,28.397894
0.9301202,-0.2995547,-1.8694776,26.32573,-14.517056,29.214725
0.89163333,-0.016530309,-1.8756673,26.693535,-15.628976,29.312172
0.84194064,0.28017363,-1.8417811,26.434723,-16.86405,29.035114
0.78902566,0.58734673,-1.7792836,25.34362,-18.313185,28.548368
0.7483113,0.8788162,-1.6987785,23.65808,-19.795132,27.694202
0.71732664,1.146295,-1.6031795,21.355871,-21.145145,26.532112
0.68685555,1.3840272,-1.4911997,18.314566,-22.31253,24.778315
0.6603235,1.5893497,-1.3519981,14.964691,-23.258698,22.448193
0.6458928,1.75979,-1.215958,11.563828,-23.908659,19.342138
0.63041097,1.8819155,-1.0896264,8.2150135,-24.335922,15.597619
0.5903982,1.9334483,-0.95732784,4.692915,-24.901096,11.632283
0.52987075,1.8892903,-0.80361104,0.76369834,-25.866629,7.957456
0.5196697,1.6987834,-0.6682667,-2.8875597,-26.699516,4.468615
0.60170394,1.4111263,-0.57505244,-5.780666,-27.28252,0.77559525
0.7550977,1.0562782,-0.493248,-8.028688,-27.268736,-2.4001887
0.9325035,0.680184,-0.42470878,-10.018871,-26.786097,-4.5498753
0.9025617,0.6583439,-0.41107178,-9.697174,-25.92602,-4.403783
0.8736364,0.6372453,-0.39789775,-9.386399,-25.095142,-4.2626505
0.8456881,0.6168593,-0.38516867,-9.086121,-24.29233,-4.126285
0.8186792,0.5971586,-0.3728675,-8.795936,-23.516502,-3.9945033
0.7925741,0.5781171,-0.36097792,-8.515461,-22.766634,-3.867131
0.7673387,0.55970997,-0.34948444,-8.24433,-22.04175,-3.7440023
0.7429407,0.5419136,-0.33837238,-7.9821973,-21.340918,-3.6249595
0.7193492,0.5247056,-0.32762763,-7.728729,-20.663254,-3.5098517
0.69653475,0.5080643,-0.31723678,-7.483609,-20.007912,-3.3985355
0.67446923,0.49196938,-0.30718705,-7.246536,-19.37408,-3.290873
0.65312576,0.47640106,-0.29746616,-7.01722,-18.76099,-3.186734
0.63247854,0.46134064,-0.2880624,-6.7953854,-18.1679,-3.085992
0.61250305,0.44677016,-0.27896455,-6.5807676,-17.594107,-2.9885275
0.5931757,0.43267247,-0.2701619,-6.373113,-17.038929,-2.8942254
0.57447386,0.41903102,-0.26164412,-6.1721797,-16.50172,-2.8029752
0.55637586,0.40583006,-0.2534014,-5.9777336,-15.981856,-2.7146714
0.538861,0.39305437,-0.24542424,-5.7895527,-15.478742,-2.6292126
0.5219092,0.38068944,-0.23770355,-5.6074214,-14.991803,-2.5465014
0.50550133,0.36872128,-0.23023058,-5.4311347,-14.520489,-2.466444
0.489619,0.35713643,-0.22299698,-5.260494,-14.06427,-2.388951
0.47424448,0.345922,-0.21599467,-5.0953093,-13.622639,-2.3139355
0.45936075,0.33506554,-0.20921586,-4.9353976,-13.195104,-2.241315
0.4449514,0.32455513,-0.20265312,-4.780583,-12.781197,-2.1710086
0.43100065,0.31437922,-0.19629925,-4.6306953,-12.380463,-2.10294
0.4174933,0.30452675,-0.19014734,-4.485572,-11.992465,-2.0370352
0.40441474,0.29498702,-0.18419072,-4.345055,-11.616785,-1.9732221
0.39175087,0.28574976,-0.17842294,-4.2089934,-11.2530155,-1.9114325
0.37948805,0.27680504,-0.17283784,-4.077241,-10.900766,-1.8515997
0.36761317,0.26814333,-0.16742943,-3.9496567,-10.559662,-1.7936598
0.35611364,0.25975534,-0.16219197,-3.8261049,-10.229339,-1.7375511
0.3449772,0.25163224,-0.15711989,-3.7064545,-9.909445,-1.6832142
0.3341921,0.24376541,-0.1522078,-3.5905788,-9.599644,-1.6305915
0.32374698,0.23614657,-0.14745058,-3.478356,-9.299609,-1.5796276
0.31363088,0.22876771,-0.1428432,-3.3696678,-9.009025,-1.5302691
0.3038332,0.2216211,-0.13838084,-3.264401,-8.727586,-1.4824641
0.29434365,0.21469928,-0.13405883,-3.162445,-8.455001,-1.4361628
0.28515244,0.20799506,-0.1298727,-3.063694,-8.190984,-1.391317
0.27624997,0.20150144,-0.12581806,-2.9680452,-7.9352603,-1.34788
0.267627,0.19521171,-0.12189073,-2.8753998,-7.6875668,-1.3058069
0.25927466,0.18911935,-0.11808665,-2.7856617,-7.4476457,-1.265054
0.25118428,0.18321809,-0.11440189,-2.698738,-7.21525,-1.2255794
0.24334754,0.17750184,-0.11083265,-2.6145396,-6.9901404,-1.1873423
0.23575638,0.17196472,-0.10737525,-2.53298,-6.7720847,-1.1503035
0.228403,0.16660105,-0.10402616,-2.4539747,-6.5608597,-1.114425
0.22127989,0.16140532,-0.10078193,-2.3774436,-6.356249,-1.0796697
0.21437973,0.15637222,-0.097639255,-2.3033078,-6.158042,-1.0460024
0.20769547,0.15149662,-0.09459491,-2.2314918,-5.9660373,-1.0133886
0.20122029,0.14677352,-0.09164579,-2.1619222,-5.7800384,-0.9817949
0.1949476,0.14219812,-0.0887889,-2.0945282,-5.599856,-0.95118916
0.18887101,0.13776574,-0.08602131,-2.0292408,-5.4253063,-0.92154026
0.18298434,0.13347189,-0.08334023,-1.9659941,-5.2562118,-0.892818
0.17728159,0.12931222,-0.08074291,-1.9047235,-5.092401,-0.8649931
0.171757,0.12528248,-0.07822673,-1.845367,-4.933707,-0.8380375
0.16640495,0.1213786,-0.07578914,-1.7878641,-4.77997,-0.8119237
0.16122001,0.11759663,-0.07342766,-1.7321569,-4.631033,-0.7866253
0.15619694,0.113932714,-0.0711399,-1.6781888,-4.486746,-0.7621168
0.15133066,0.11038317,-0.068923555,-1.6259052,-4.3469625,-0.7383732
0.14661625,0.1069444,-0.06677638,-1.5752532,-4.211541,-0.71537066
0.14204894,0.10361292,-0.0646962,-1.5261819,-4.0803456,-0.6930858
0.13762413,0.10038539,-0.062680915,-1.4786415,-3.9532433,-0.6714963
0.13333735,0.09725854,-0.0607285,-1.432584,-3.8301058,-0.65058017
0.12918428,0.09422921,-0.05883698,-1.387963,-3.7108088,-0.63031644
0.12516071,0.091294356,-0.057004448,-1.3447337,-3.5952322,-0.61068463
0.12126261,0.08845101,-0.05522906,-1.3028524,-3.4832597,-0.591665
0.11748605,0.08569633,-0.053509027,-1.2622768,-3.3747785,-0.57323843
0.113827236,0.08302753,-0.05184262,-1.2229662,-3.269679,-0.5553863
0.110282466,0.080441914,-0.050228156,-1.1848811,-3.167856,-0.5380907
0.106848195,0.077936895,-0.048664015,-1.1479831,-3.0692067,-0.5213342
0.10352096,0.07550995,-0.047148623,-1.1122351,-2.973632,-0.5050999
0.100297414,0.073158644,-0.04568046,-1.0776011,-2.881036,-0.48937157
0.097174324,0.07088061,-0.04425805,-1.0440464,-2.7913253,-0.47413337
0.09414855,0.06867356,-0.04287996,-1.0115373,-2.7044103,-0.45937002
0.091217056,0.06653527,-0.04154481,-0.9800412,-2.6202033,-0.44506663
0.088376895,0.064463615,-0.04025126,-0.94952637,-2.53862,-0.4312089
0.08562522,0.062456492,-0.038998008,-0.91996217,-2.4595783,-0.4177829
0.082959265,0.060511902,-0.037783798,-0.891319,-2.3829987,-0.40477517
0.08037636,0.058627885,-0.036607414,-0.8635681,-2.308805,-0.39217266
0.07787391,0.056802556,-0.035467673,-0.83668166,-2.2369223,-0.37996268
0.0754494,0.055034082,-0.034363434,-0.81063265,-2.1672785,-0.36813304
0.07310042,0.05332069,-0.033293586,-0.785395,-2.0998042,-0.35667187
0.07082459,0.051660664,-0.03225706,-0.7609434,-2.0344312,-0.34556764
0.068619646,0.050052337,-0.03125282,-0.7372533,-1.9710944,-0.33480924
0.06648336,0.0484941,-0.030279852,-0.71430105,-1.90973,-0.3243859
0.06441362,0.046984393,-0.029337186,-0.69206357,-1.8502766,-0.31428722
0.062408328,0.0455217,-0.028423876,-0.6705186,-1.7926747,-0.30450296
0.06046548,0.044104554,-0.027539006,-0.64964455,-1.7368666,-0.29502344
0.058583133,0.04273154,-0.026681691,-0.6294205,-1.6827962,-0.28583908
0.056759402,0.041401275,-0.02585107,-0.6098262,-1.6304097,-0.2769407
0.054992456,0.040112436,-0.025046317,-0.59084207,-1.5796543,-0.26831943
0.05328053,0.038863726,-0.02426662,-0.572449,-1.5304794,-0.25996658
0.051621906,0.0376539,-0.0235112,-0.5546287,-1.4828355,-0.25187382
0.050014928,0.03648174,-0.0227793,-0.53736323,-1.4366752,-0.24403305
0.048457984,0.03534608,-0.02207019,-0.5206353,-1.391952,-0.2364364
0.046949513,0.034245778,-0.021383159,-0.5044282,-1.3486214,-0.22907627
0.04548801,0.03317973,-0.020717517,-0.48872575,-1.3066398,-0.22194529
0.04407201,0.032146875,-0.020072598,-0.47351217,-1.2659653,-0.21503633
0.042700093,0.031146176,-0.019447759,-0.4587722,-1.2265571,-0.20834248
0.04137089,0.030176632,-0.018842373,-0.44449118,-1.1883758,-0.20185702
0.04008307,0.029237274,-0.018255835,-0.43065473,-1.1513833,-0.19557348
0.03883534,0.028327158,-0.017687557,-0.41724908,-1.1155423,-0.18948555
0.037626453,0.027445378,-0.01713697,-0.40426075,-1.0808172,-0.18358715
0.036455203,0.026591048,-0.016603524,-0.39167678,-1.0471731,-0.17787239
0.035320416,0.025763314,-0.016086686,-0.37948456,-1.0145764,-0.17233554
0.034220956,0.02496135,-0.015585937,-0.3676719,-0.98299456,-0.16697104
0.033155724,0.024184352,-0.015100776,-0.35622698,-0.9523958,-0.16177356
0.032123655,0.023431541,-0.01463072,-0.34513837,-0.92274964,-0.15673786
0.031123713,0.022702167,-0.014175296,-0.33439493,-0.8940264,-0.15185894
0.030154899,0.021995496,-0.013734049,-0.32398593,-0.8661973,-0.1471319
0.029216243,0.021310827,-0.0133065395,-0.31390098,-0.8392345,-0.14255202
0.028306808,0.020647468,-0.012892337,-0.30412996,-0.813111,-0.1381147
0.027425684,0.020004762,-0.012491029,-0.2946631,-0.7878008,-0.13381551
0.026571989,0.019382061,-0.012102213,-0.28549096,-0.7632784,-0.12965016
0.025744868,0.018778745,-0.011725501,-0.27660432,-0.7395195,-0.12561446
0.024943495,0.01819421,-0.011360516,-0.2679943,-0.7165001,-0.12170441
0.024167066,0.01762787,-0.011006892,-0.25965235,-0.69419724,-0.117916055
