ax,ay,az,gx,gy,gz
-0.4700043,2.5009317,-0.48727718,12.651025,2.108201,-5.6600513
-0.7501648,1.9706565,-0.20031199,11.4798565,0.14410838,-13.316375
-0.8402749,1.3599839,0.14428371,8.519381,-2.5850627,-16.153328
-0.7821882,0.6733025,0.41937804,4.0429797,-4.8360534,-15.650412
-0.56373125,-0.12526211,0.59530205,-0.50002974,-5.073996,-12.947805
-0.24951038,-0.9637561,0.6306669,-3.083819,-2.5171776,-8.562686
0.043581527,-1.7830453,0.4300399,-1.9902685,0.4903965,-4.2916174
0.2443222,-2.432103,0.14866945,0.085259564,3.0672472,0.44316593
0.37076437,-2.9081,-0.2053205,3.1223986,4.774172,5.965251
0.42314985,-3.2372334,-0.6216328,7.585715,5.3510475,11.544167
0.4207107,-3.4494128,-1.0764773,14.472721,4.9487467,16.581762
0.38032982,-3.4993463,-1.5287404,22.007357,4.1437535,21.116196
0.32258356,-3.388769,-1.9374496,29.295095,2.823192,25.612955
0.22509499,-3.125355,-2.3154085,35.86135,0.76009613,29.866745
0.100594334,-2.7674012,-2.640223,41.481224,-2.0810728,33.390556
-0.017521653,-2.299284,-2.8566923,45.21068,-5.9188466,36.55884
-0.08119726,-1.6237113,-2.9084039,46.78727,-10.129548,39.450035
-0.10848402,-0.8761077,-2.8591204,46.600044,-14.254414,41.277836
-0.12832004,-0.1562299,-2.7519515,45.375263,-17.896786,41.017982
-0.14838526,0.506245,-2.578682,43.208286,-21.164759,39.20984
-0.15997128,1.1131136,-2.3401163,39.181057,-24.409176,36.96185
-0.1437298,1.6575323,-2.0460763,34.091244,-27.34878,34.435585
-0.104759336,2.0992913,-1.7528883,28.321945,-29.709536,30.918049
-0.05252191,2.4160864,-1.4521687,22.675629,-31.399956,26.519564
-0.00037582353,2.6020133,-1.1418965,17.245785,-32.44556,21.419462
0.07075893,2.6343179,-0.8326028,12.069776,-32.677715,16.118448
0.17379186,2.5016987,-0.5574599,6.881805,-32.415535,11.454473
0.29309005,2.2440372,-0.32383385,2.007992,-31.759972,7.061615
0.44841763,1.874375,-0.11885685,-2.1104662,-30.555218,2.933182
0.620129,1.4208326,0.038432218,-5.2258773,-28.804577,-0.57796323
0.79141575,0.9230323,0.14306982,-7.2313585,-26.26938,-2.5913923
0.922377,0.41722488,0.15633161,-8.312942,-23.400011,-3.3800123
0.9930784,-0.050865855,0.105452076,-8.466343,-20.563145,-3.2398593
1.0120288,-0.4633157,0.01476502,-7.930707,-17.92983,-2.2391539
0.98927027,-0.8169753,-0.11384793,-6.6864395,-15.621708,-0.57121634
0.9359719,-1.0975139,-0.26935047,-4.620527,-13.833104,1.6625967
0.87016207,-1.2912962,-0.43670112,-2.1165156,-12.372666,4.277574
0.7959736,-1.4081085,-0.60832226,0.67466927,-11.246526,7.231247
0.7094294,-1.4414736,-0.7893827,3.4916131,-10.61667,10.1555195
0.62224096,-1.4279635,-0.9694184,6.3389287,-10.451661,12.701135
0.54790205,-1.3930626,-1.1351166,9.386578,-10.6809635,14.95714
0.482405,-1.2825058,-1.2696646,12.121581,-11.24145,17.301846
0.4109863,-1.1137204,-1.3785255,14.323253,-12.278503,19.425632
0.35783425,-0.912583,-1.4515873,15.998801,-13.625746,21.220415
0.3300843,-0.7049371,-1.498258,17.310223,-14.99884,22.65243
0.31162918,-0.49435484,-1.5361612,18.375786,-16.329247,23.54295
0.29279625,-0.24013256,-1.5420923,18.868612,-17.840727,24.308239
0.28145066,0.0534958,-1.504293,18.520811,-19.512686,25.006878
0.26616102,0.36066926,-1.4340826,17.58762,-21.155193,25.219734
0.24466008,0.6425627,-1.3538278,16.289803,-22.687334,24.728872
0.21930863,0.8675047,-1.2699201,14.618486,-24.007475,23.604578
0.19060294,1.0362364,-1.1900457,12.804557,-25.258373,22.224464
0.17033806,1.1928079,-1.1093659,10.814907,-26.56368,20.484938
0.16992767,1.3377731,-1.0250329,8.800555,-27.866623,18.49001
0.17841074,1.4667134,-0.93750846,6.721611,-29.09481,16.219475
0.18232435,1.562493,-0.8333063,4.785663,-30.164986,13.428267
0.20464146,1.6281775,-0.69120747,2.697518,-31.077728,10.536105
0.269609,1.6761185,-0.53697157,0.41677245,-31.737455,7.5364013
0.38399777,1.692482,-0.38169432,-1.790242,-31.825224,4.382963
0.5125627,1.668851,-0.23568039,-3.8909845,-31.253792,1.0453594
0.6124924,1.5891443,-0.09933014,-5.7828507,-30.135498,-2.436266
0.6935675,1.4077458,0.0173765,-7.570908,-28.73999,-5.633862
0.7948667,1.1587424,0.10976204,-9.217911,-27.130642,-8.454017
0.9340356,0.8677174,0.18428533,-11.000872,-25.025837,-10.369851
1.075183,0.55991507,0.21545303,-12.567473,-22.355087,-11.318547
1.0406599,0.5419367,0.20853503,-12.163943,-21.637285,-10.955119
1.0073088,0.52456874,0.2018519,-11.774114,-20.943853,-10.604029
0.97508425,0.50778735,0.1953945,-11.39745,-20.273844,-10.264798
0.94394284,0.4915701,0.18915416,-11.033448,-19.626354,-9.93697
0.9138434,0.47589543,0.18312262,-10.681626,-19.00053,-9.6201105
0.88474685,0.46074304,0.17729203,-10.341526,-18.39556,-9.313808
0.8566158,0.4460934,0.17165492,-10.012711,-17.81066,-9.017671
0.8294146,0.43192807,0.16620415,-9.694765,-17.245096,-8.731321
0.8031094,0.4182293,0.16093293,-9.387291,-16.698162,-8.454404
0.7776677,0.4049802,0.15583473,-9.089911,-16.16918,-8.186577
0.7530585,0.39216468,0.15090336,-8.802262,-15.657509,-7.9275136
0.72925216,0.3797672,0.14613287,-8.523997,-15.16253,-7.676902
0.70622027,0.36777306,0.14151758,-8.254785,-14.683653,-7.434443
0.68393564,0.3561681,0.13705203,-7.994307,-14.220315,-7.1998515
0.6623723,0.3449387,0.132731,-7.74226,-13.771972,-6.9728518
0.64150524,0.3340719,0.1285495,-7.498351,-13.338105,-6.753182
0.6213104,0.3235552,0.12450272,-7.2623005,-12.918217,-6.54059
0.60176486,0.3133766,0.12058604,-7.0338387,-12.511828,-6.334832
0.5828465,0.30352464,0.11679504,-6.812708,-12.11848,-6.135677
0.56453407,0.2939882,0.11312546,-6.59866,-11.73773,-5.9429
0.54680717,0.2847567,0.109573215,-6.3914557,-11.369154,-5.756287
0.5296461,0.27581987,0.106134355,-6.1908655,-11.012343,-5.5756316
0.513032,0.26716787,0.10280511,-5.996669,-10.666905,-5.4007335
0.49694672,0.25879124,0.099581815,-5.808653,-10.332461,-5.231402
0.48137268,0.25068086,0.096460976,-5.6266127,-10.008647,-5.067453
0.466293,0.24282794,0.0934392,-5.450351,-9.695112,-4.9087076
0.45169145,0.235224,0.09051324,-5.2796783,-9.391519,-4.754996
0.43755233,0.22786087,0.08767993,-5.1144104,-9.09754,-4.606152
0.42386055,0.22073069,0.08493627,-4.9543715,-8.812861,-4.4620175
0.41060147,0.21382588,0.082279325,-4.7993903,-8.53718,-4.3224382
0.3977611,0.20713909,0.079706274,-4.6493034,-8.270205,-4.1872663
0.38532582,0.20066325,0.0772144,-4.503951,-8.011651,-4.056359
0.37328252,0.19439155,0.07480108,-4.363181,-7.7612486,-3.929578
0.36161858,0.1883174,0.07246377,-4.226845,-7.518733,-3.8067906
0.35032177,0.18243445,0.07020003,-4.0948,-7.283851,-3.687868
0.33938026,0.17673653,0.0680075,-3.9669085,-7.056357,-3.5726862
0.32878274,0.17121774,0.06588389,-3.8430371,-6.8360143,-3.461125
0.31851813,0.1658723,0.063826986,-3.7230575,-6.6225934,-3.3530686
0.3085758,0.16069472,0.061834674,-3.6068447,-6.4158735,-3.2484047
0.2989455,0.15567961,0.059904877,-3.494279,-6.215641,-3.1470253
0.2896172,0.15082179,0.058035612,-3.3852437,-6.021689,-3.048826
0.28058138,0.14611629,0.05622495,-3.2796268,-5.833817,-2.953705
0.27182874,0.14155823,0.054471027,-3.17732,-5.651833,-2.861565
0.26335025,0.13714294,0.052772045,-3.0782175,-5.475549,-2.7723112
0.25513723,0.13286592,0.051126264,-2.9822183,-5.3047853,-2.6858523
0.2471813,0.12872277,0.049531996,-2.8892238,-5.139366,-2.6020994
0.23947431,0.124709256,0.04798761,-2.7991393,-4.979123,-2.5209672
0.2320084,0.12082128,0.046491537,-2.7118726,-4.8238926,-2.4423728
0.22477594,0.117054895,0.045042243,-2.6273346,-4.6735163,-2.3662362
0.2177696,0.11340625,0.04363826,-2.5454397,-4.527841,-2.2924798
0.2109822,0.10987163,0.042278156,-2.4661043,-4.3867188,-2.2210283
0.2044069,0.106447466,0.04096055,-2.3892474,-4.2500057,-2.1518097
0.19803701,0.10313026,0.039684102,-2.314792,-4.1175632,-2.084753
0.19186606,0.09991665,0.03844752,-2.2426615,-3.9892576,-2.019791
0.18588778,0.0968034,0.03724955,-2.1727834,-3.864958,-1.9568571
0.18009615,0.093787335,0.036088984,-2.1050868,-3.7445393,-1.8958881
0.1744853,0.09086541,0.03496464,-2.0395033,-3.627879,-1.8368222
0.16904955,0.088034675,0.033875383,-1.9759667,-3.5148594,-1.7795995
0.16378342,0.08529227,0.032820117,-1.9144125,-3.4053667,-1.7241626
0.15868157,0.082635425,0.031797774,-1.8547786,-3.2992897,-1.670455
0.15373889,0.08006146,0.03080732,-1.797005,-3.1965218,-1.6184229
0.14895035,0.07756777,0.02984776,-1.7410336,-3.0969594,-1.5680135
0.14431116,0.075151846,0.028918125,-1.6868074,-3.0005016,-1.5191764
0.13981663,0.07281127,0.028017478,-1.6342722,-2.9070518,-1.4718621
0.13546222,0.070543654,0.02714491,-1.5833751,-2.8165157,-1.4260229
0.13124359,0.068346746,0.02629955,-1.5340647,-2.7288022,-1.3816129
0.12715645,0.06621832,0.025480539,-1.4862914,-2.6438227,-1.3385872
0.123196706,0.064156234,0.024687055,-1.4400072,-2.5614922,-1.2969027
0.11936038,0.062158417,0.023918305,-1.3951657,-2.4817278,-1.2565173
0.11564361,0.060222864,0.023173511,-1.3517215,-2.4044492,-1.2173905
0.112042665,0.058347624,0.022451928,-1.3096312,-2.3295786,-1.179483
0.10855393,0.056530822,0.021752829,-1.2688525,-2.2570412,-1.1427568
0.10517389,0.054770626,0.021075513,-1.2293444,-2.186764,-1.1071749
0.10189917,0.05306527,0.0204193,-1.1910671,-2.1186762,-1.0727016
0.09872647,0.051413048,0.01978353,-1.1539824,-2.0527098,-1.0393022
0.0956526,0.049812295,0.019167567,-1.118053,-1.9887983,-1.0069435
0.092674494,0.048261408,0.018570792,-1.0832428,-1.9268777,-0.9755926
0.08978915,0.046758827,0.017992606,-1.0495169,-1.866886,-0.9452183
0.08699368,0.045303054,0.017432429,-1.0168415,-1.808763,-0.9157902
0.08428528,0.043892622,0.0168897,-0.98518395,-1.7524503,-0.8872787
0.08166124,0.04252612,0.016363876,-0.95451236,-1.6978915,-0.85965514
0.07911892,0.041202173,0.015854428,-0.92479604,-1.6450319,-0.8328919
0.07665578,0.039919462,0.015360845,-0.89600515,-1.5938185,-0.8069622
0.07426935,0.038676694,0.014882634,-0.8681109,-1.5442001,-0.78184
0.07195723,0.03747263,0.014419316,-0.8410853,-1.4961268,-0.7575002
0.06971712,0.036306065,0.013970425,-0.8149013,-1.4495505,-0.73391825
0.067546755,0.035175823,0.013535513,-0.78953266,-1.4044247,-0.7110707
0.065443985,0.034080774,0.013114143,-0.764954,-1.3607041,-0.68893456
0.06340668,0.033019826,0.012705894,-0.7411406,-1.3183447,-0.66748774
0.06143282,0.031991914,0.012310357,-0.7180688,-1.2773044,-0.6467087
0.059520416,0.030996004,0.011927136,-0.6957153,-1.2375419,-0.62657666
0.057667557,0.030031106,0.011555847,-0.67405784,-1.1990175,-0.6070715
0.055872392,0.02909625,0.011196118,-0.6530747,-1.1616925,-0.58817357
0.054133113,0.0281905,0.010847589,-0.6327448,-1.1255298,-0.5698641
0.05244799,0.02731295,0.010509912,-0.61304796,-1.0904928,-0.5521246
0.050815333,0.026462723,0.010182748,-0.5939643,-1.0565467,-0.5349375
0.049233504,0.025638964,0.009865769,-0.5754748,-1.0236576,-0.51828545
0.047700923,0.024840854,0.009558659,-0.557561,-0.99179226,-0.50215185
0.046216056,0.02406759,0.009261111,-0.5402048,-0.9609191,-0.4865205
0.044777416,0.0233184,0.0089728255,-0.523389,-0.931007,-0.4713758
0.04338356,0.022592535,0.008693515,-0.5070967,-0.90202624,-0.4567026
0.042033102,0.021889266,0.0084229,-0.4913116,-0.8739476,-0.4424862
0.040724687,0.021207891,0.00816071,-0.47601795,-0.84674317,-0.42871237
0.039457,0.020547729,0.007906682,-0.4612004,-0.8203856,-0.41536734
0.03822878,0.019908117,0.007660562,-0.4468441,-0.79484856,-0.40243775
0.037038796,0.019288417,0.0074221045,-0.43293473,-0.77010655,-0.38991067
0.035885856,0.01868801,0.00719107,-0.4194584,-0.7461347,-0.37777358
0.034768805,0.018106293,0.0069672274,-0.40640154,-0.72290915,-0.3660143
0.03368653,0.017542684,0.006750353,-0.39375117,-0.7004066,-0.35462108
0.032637946,0.01699662,0.00654023,-0.3814946,-0.67860454,-0.34358254
0.031622004,0.016467554,0.006336648,-0.36961958,-0.6574812,-0.33288762
0.030637687,0.01595496,0.006139403,-0.3581142,-0.6370154,-0.32252562
0.02968401,0.015458321,0.005948299,-0.34696698,-0.61718667,-0.3124862
0.028760022,0.014977142,0.0057631433,-0.33616677,-0.5979752,-0.3027593
0.027864795,0.014510943,0.0055837515,-0.32570276,-0.57936174,-0.29333517
