ax,ay,az,gx,gy,gz
-0.19545633,7.400068,-2.9454813,-37.50943,230.493,-24.302948
0.15782313,7.173237,-3.0786626,-52.324963,228.96925,-33.865665
0.5088385,6.712326,-3.3301947,-65.55442,226.61362,-40.20015
0.54829204,6.0449004,-3.7918544,-73.42806,221.5359,-46.107567
0.46556243,5.317643,-4.2766685,-71.47668,211.80963,-52.96686
0.35128132,4.7424593,-4.734634,-67.8295,199.18083,-60.281704
0.20280482,4.319636,-5.129755,-65.21338,183.88905,-68.18598
0.08709126,3.9451978,-5.4292474,-63.146633,166.65576,-75.34089
0.033679,3.5457287,-5.6758804,-61.132015,149.1614,-80.80027
-0.031689197,3.1518228,-5.906426,-56.44026,130.19215,-86.04281
-0.06492419,2.8520527,-6.0848217,-51.004993,111.93975,-90.58179
-0.09723815,2.6207268,-6.269291,-46.19532,93.792984,-93.80997
-0.20488256,2.4931238,-6.489805,-43.118267,74.34975,-97.29873
-0.32958764,2.35483,-6.716015,-41.434586,53.431797,-101.66026
-0.4372146,2.1197104,-6.933684,-38.479492,31.53191,-105.97257
-0.47325867,1.9445889,-7.052785,-35.03966,11.431996,-109.64641
-0.41824412,1.7990133,-7.0166206,-32.171455,-5.2679024,-111.75189
-0.3377284,1.5914814,-6.8574615,-29.771807,-19.166418,-112.14457
-0.20415497,1.3822992,-6.5528517,-26.613943,-30.638165,-111.91279
0.010407715,1.2491207,-6.1112,-23.692364,-39.40592,-111.03913
0.27852285,1.1012357,-5.5079613,-21.602594,-46.238796,-109.60833
0.6325715,0.90231216,-4.7875648,-20.133121,-50.107536,-106.86595
1.0219814,0.69903684,-4.0241823,-19.879065,-50.665695,-102.81885
1.3371831,0.51967233,-3.3328958,-20.114964,-48.96376,-98.39054
1.5340984,0.36806205,-2.7400913,-20.616562,-45.961205,-94.08998
1.6344243,0.1799511,-2.2417576,-21.197428,-42.19225,-89.24915
1.7129325,-0.028117064,-1.811174,-21.69955,-37.14848,-83.43592
1.7609415,-0.22541623,-1.4565114,-21.808256,-31.157738,-77.0843
1.6851085,-0.21570893,-1.3937883,-20.869106,-29.815964,-73.76475
1.6139898,-0.20660509,-1.3349646,-19.988342,-28.557604,-70.651566
1.5471466,-0.19804856,-1.2796772,-19.160528,-27.374893,-67.72554
1.4841945,-0.18999015,-1.2276082,-18.380903,-26.261034,-64.96985
1.4247961,-0.1823866,-1.1784786,-17.645287,-25.21005,-62.36971
1.368653,-0.1751998,-1.1320415,-16.949987,-24.216665,-59.912075
1.3155012,-0.16839589,-1.0880785,-16.29173,-23.276207,-57.58538
1.2651055,-0.16194479,-1.0463951,-15.667609,-22.384516,-55.379337
1.2172562,-0.15581965,-1.0068179,-15.075024,-21.537882,-53.28476
1.1717656,-0.14999644,-0.9691917,-14.511647,-20.732979,-51.293427
1.1284646,-0.14445354,-0.9333766,-13.97539,-19.966822,-49.397953
1.0872015,-0.1391715,-0.899247,-13.46437,-19.23672,-47.59168
1.0478387,-0.1341327,-0.8666892,-12.976884,-18.540241,-45.86859
1.0102516,-0.12932122,-0.83560014,-12.51139,-17.875183,-44.22324
0.97432715,-0.12472256,-0.80588627,-12.066485,-17.239544,-42.650665
0.9399622,-0.120323546,-0.7774623,-11.640895,-16.631498,-41.146355
0.90706265,-0.116112106,-0.7502504,-11.233453,-16.04938,-39.706196
0.8755423,-0.11207722,-0.72417927,-10.843092,-15.491666,-38.32641
0.84532213,-0.10820877,-0.6991835,-10.468832,-14.956956,-37.003536
0.81632936,-0.10449745,-0.675203,-10.109774,-14.443964,-35.734394
0.78849715,-0.10093467,-0.6521824,-9.765087,-13.951507,-34.516052
0.7617635,-0.09751253,-0.6300705,-9.434007,-13.478487,-33.345802
0.7360713,-0.09422369,-0.6088199,-9.115823,-13.023894,-32.221138
0.7113674,-0.091061376,-0.58838683,-8.80988,-12.586789,-31.13974
0.6876027,-0.088019274,-0.5687305,-8.515567,-12.166301,-30.09945
0.66473114,-0.08509152,-0.549813,-8.232316,-11.761617,-29.09826
0.64271015,-0.082272634,-0.531599,-7.9595985,-11.371982,-28.134304
0.62149984,-0.07955752,-0.5140555,-7.696921,-10.996691,-27.205833
0.6010629,-0.07694141,-0.4971516,-7.4438205,-10.635083,-26.311214
0.58136433,-0.07441982,-0.48085853,-7.1998653,-10.286541,-25.448921
0.56237143,-0.07198856,-0.46514913,-6.964649,-9.950484,-24.617517
0.54405344,-0.06964369,-0.44999793,-6.737791,-9.626369,-23.815655
0.5263813,-0.0673815,-0.43538097,-6.5189323,-9.313683,-23.042068
0.5093278,-0.06519851,-0.42127568,-6.307735,-9.011943,-22.295563
0.4928673,-0.06309141,-0.4076608,-6.1038804,-8.720693,-21.57501
0.47697535,-0.0610571,-0.39451626,-5.9070673,-8.439504,-20.879349
0.461629,-0.05909263,-0.38182297,-5.717012,-8.167969,-20.20757
0.44680652,-0.05719522,-0.36956298,-5.533444,-7.9057026,-19.558723
0.43248725,-0.05536223,-0.3577192,-5.3561077,-7.652341,-18.931906
0.41865164,-0.053591147,-0.3462755,-5.184762,-7.4075365,-18.32626
0.40528113,-0.0518796,-0.33521646,-5.0191755,-7.170961,-17.74097
0.39235798,-0.05022532,-0.32452744,-4.8591294,-6.9423013,-17.175266
0.37986538,-0.04862616,-0.31419456,-4.704416,-6.72126,-16.62841
0.36778733,-0.04708006,-0.30420455,-4.5548363,-6.507553,-16.099699
0.35610852,-0.04558507,-0.2945448,-4.410201,-6.300911,-15.588466
0.3448144,-0.04413932,-0.2852032,-4.2703295,-6.101075,-15.094071
0.33389103,-0.04274103,-0.27616823,-4.13505,-5.9077992,-14.615906
0.32332507,-0.041388493,-0.2674289,-4.0041966,-5.7208476,-14.153387
0.31310385,-0.040080085,-0.2589747,-3.8776124,-5.539995,-13.705958
0.30321512,-0.03881424,-0.25079554,-3.7551463,-5.365026,-13.273085
0.29364726,-0.037589468,-0.24288176,-3.6366537,-5.195734,-12.854256
0.28438905,-0.036404334,-0.2352241,-3.521996,-5.0319214,-12.448982
0.27542976,-0.035257466,-0.2278137,-3.4110405,-4.873398,-12.056795
0.26675913,-0.03414755,-0.22064205,-3.3036597,-4.719981,-11.677243
0.25836727,-0.033073317,-0.21370097,-3.1997313,-4.5714974,-11.309894
0.2502447,-0.032033555,-0.2069826,-3.0991378,-4.4277782,-10.954331
0.24238227,-0.031027092,-0.20047942,-3.001766,-4.288662,-10.610158
0.23477122,-0.03005281,-0.19418417,-2.9075077,-4.153994,-10.276989
0.22740315,-0.02910963,-0.18808988,-2.8162582,-4.0236244,-9.954454
0.2202699,-0.028196512,-0.18218982,-2.727917,-3.8974104,-9.6422
0.21336369,-0.027312456,-0.17647755,-2.6423876,-3.7752132,-9.339885
0.20667699,-0.026456498,-0.17094684,-2.5595765,-3.6569002,-9.047177
0.20020254,-0.025627712,-0.16559169,-2.4793942,-3.5423427,-8.763762
0.19393338,-0.024825202,-0.16040634,-2.4017541,-3.4314172,-8.489333
0.18786275,-0.024048109,-0.1553852,-2.3265731,-3.324005,-8.223595
0.18198419,-0.0232956,-0.15052292,-2.2537704,-3.219991,-7.9662633
0.17629142,-0.022566875,-0.14581431,-2.1832688,-3.1192644,-7.717066
0.17077842,-0.02186116,-0.14125438,-2.1149933,-3.0217183,-7.4757366
0.16543934,-0.021177711,-0.13683832,-2.0488718,-2.9272497,-7.242021
0.16026856,-0.020515805,-0.13256146,-1.9848347,-2.835759,-7.0156727
0.15526065,-0.019874748,-0.12841932,-1.9228146,-2.7471502,-6.7964544
0.15041037,-0.01925387,-0.12440755,-1.8627466,-2.6613302,-6.584136
0.14571266,-0.018652521,-0.12052198,-1.8045682,-2.5782099,-6.378496
0.14116262,-0.018070074,-0.11675854,-1.7482184,-2.4977024,-6.17932
0.13675551,-0.017505925,-0.11311333,-1.6936389,-2.419724,-5.9864016
0.13248678,-0.01695949,-0.10958257,-1.6407732,-2.344194,-5.79954
0.128352,-0.016430201,-0.10616262,-1.5895663,-2.271034,-5.618542
0.12434692,-0.015917515,-0.10284993,-1.5399656,-2.2001688,-5.443222
0.1204674,-0.0154209025,-0.0996411,-1.49192,-2.1315255,-5.273398
0.116709456,-0.014939851,-0.09653282,-1.44538,-2.0650332,-5.108896
0.11306922,-0.014473869,-0.09352191,-1.4002978,-2.0006237,-4.9495463
0.10954297,-0.014022478,-0.090605274,-1.3566272,-1.9382309,-4.795187
0.1061271,-0.013585215,-0.08777994,-1.3143235,-1.877791,-4.6456585
0.10281811,-0.013161635,-0.085043,-1.2733436,-1.8192425,-4.500809
0.09961262,-0.012751305,-0.08239168,-1.2336454,-1.7625253,-4.360491
0.09650738,-0.012353805,-0.07982326,-1.1951888,-1.7075816,-4.2245603
0.093499206,-0.011968732,-0.07733514,-1.1579343,-1.6543556,-4.092879
0.090585046,-0.011595694,-0.07492478,-1.121844,-1.6027932,-3.9653134
0.087761946,-0.011234312,-0.07258973,-1.0868816,-1.5528419,-3.8417337
0.08502703,-0.010884219,-0.07032763,-1.0530113,-1.5044509,-3.7220142
0.08237754,-0.01054506,-0.06813618,-1.0201988,-1.4575713,-3.606034
0.079810776,-0.010216491,-0.06601316,-0.9884109,-1.4121555,-3.4936752
0.077324145,-0.00989818,-0.06395641,-0.9576154,-1.3681575,-3.3848243
0.074915126,-0.009589804,-0.061963864,-0.9277811,-1.3255329,-3.2793708
0.07258129,-0.009291053,-0.0600335,-0.8988779,-1.2842385,-3.1772084
0.070320286,-0.009001624,-0.05816337,-0.87087655,-1.2442327,-3.078234
0.068129815,-0.008721224,-0.056351587,-0.84374887,-1.2054749,-2.9823472
0.066007674,-0.008449571,-0.05459632,-0.81746733,-1.1679262,-2.8894515
0.063951716,-0.008186391,-0.0528958,-0.79200554,-1.1315485,-2.7994533
0.061959885,-0.007931418,-0.051248312,-0.7673378,-1.0963055,-2.7122617
0.060030162,-0.007684396,-0.049652196,-0.7434393,-1.0621613,-2.627789
0.058160603,-0.007445076,-0.048105847,-0.7202859,-1.0290818,-2.5459502
0.056349333,-0.007213217,-0.046607707,-0.69785434,-0.9970335,-2.4666626
0.054594524,-0.006988586,-0.045156267,-0.676122,-0.9659843,-2.3898468
0.05289441,-0.0067709563,-0.04375007,-0.6550671,-0.93590283,-2.3154254
0.051247288,-0.00656011,-0.042387698,-0.6346684,-0.90675896,-2.2433233
0.049651496,-0.006355834,-0.041067787,-0.6149054,-0.87852335,-2.1734684
0.048105434,-0.0061579244,-0.039789006,-0.5957583,-0.8511676,-2.1057904
0.046607547,-0.0059661814,-0.03855007,-0.57720786,-0.82466435,-2.040221
0.04515633,-0.0057804133,-0.037349742,-0.5592354,-0.79898685,-1.976695
0.04375033,-0.0056004324,-0.03618681,-0.54182285,-0.77410936,-1.9151479
0.042388134,-0.005426059,-0.035060108,-0.5249528,-0.7500069,-1.8555185
0.04106837,-0.005257118,-0.033968505,-0.50860834,-0.7266553,-1.7977467
0.03978972,-0.0050934395,-0.03291091,-0.492773,-0.70403117,-1.7417744
0.038550902,-0.0049348595,-0.031886254,-0.47743094,-0.68211174,-1.6875458
0.03735067,-0.004781219,-0.030893518,-0.46256673,-0.6608751,-1.6350062
0.03618782,-0.004632364,-0.029931702,-0.4481655,-0.64029986,-1.5841031
0.03506119,-0.004488145,-0.02899984,-0.43421283,-0.6203655,-1.5347854
0.03396965,-0.004348418,-0.028097004,-0.4206947,-0.601052,-1.4870037
0.0329121,-0.0042130426,-0.027222285,-0.40759757,-0.58233994,-1.4407101
0.031887487,-0.004081883,-0.026374806,-0.39490834,-0.56421065,-1.3958582
0.030894782,-0.0039548078,-0.025553718,-0.38261425,-0.54664594,-1.352403
0.02993299,-0.0038316897,-0.0247582,-0.370703,-0.52962816,-1.3103011
0.029001148,-0.0037124057,-0.023987453,-0.35916266,-0.5131404,-1.2695101
0.028098322,-0.003596836,-0.023240708,-0.3479817,-0.49716595,-1.2299895
0.02722361,-0.003484865,-0.022517215,-0.33714887,-0.48168898,-1.1916994
0.026376134,-0.0033763803,-0.02181625,-0.32665336,-0.46669388,-1.1546016
0.025555044,-0.0032712738,-0.02113711,-0.31648466,-0.45216572,-1.1186588
0.024759522,-0.0031694397,-0.020479117,-0.30663255,-0.43808988,-1.0838352
0.023988767,-0.0030707761,-0.01984161,-0.2970872,-0.4244523,-1.0500958
0.02324201,-0.0029751847,-0.01922395,-0.28783903,-0.41123936,-1.017407
0.022518504,-0.0028825693,-0.018625524,-0.2788788,-0.3984378,-0.98573583
0.021817524,-0.0027928376,-0.018045727,-0.27019757,-0.38603476,-0.95505077
0.021138366,-0.0027058995,-0.017483983,-0.2617866,-0.3740179,-0.925321
0.020480353,-0.002621668,-0.016939728,-0.2536375,-0.36237517,-0.89651686
0.019842828,-0.002540059,-0.016412416,-0.24574208,-0.3510949,-0.8686094
0.019225148,-0.0024609906,-0.01590152,-0.23809248,-0.34016582,-0.84157085
0.0186267,-0.0023843837,-0.01540653,-0.23068103,-0.32957697,-0.8153741
0.01804688,-0.0023101617,-0.01492695,-0.22350031,-0.3193178,-0.7899928
0.017485112,-0.0022382503,-0.014462301,-0.21654314,-0.309378,-0.7654017
0.016940832,-0.0021685776,-0.014012116,-0.20980255,-0.29974762,-0.74157614
0.016413497,-0.0021010742,-0.013575946,-0.20327179,-0.29041705,-0.7184923
0.015902579,-0.0020356718,-0.013153354,-0.19694436,-0.28137696,-0.6961271
0.015407564,-0.0019723056,-0.012743917,-0.19081388,-0.27261826,-0.6744581
0.01492796,-0.001910912,-0.012347227,-0.18487427,-0.26413226,-0.65346366
0.014463286,-0.0018514296,-0.011962885,-0.17911954,-0.2559104,-0.6331228
0.014013076,-0.0017937989,-0.011590508,-0.17354396,-0.2479445,-0.6134152
0.013576883,-0.0017379621,-0.011229723,-0.16814195,-0.24022657,-0.59432095
0.013154266,-0.0016838635,-0.0108801685,-0.16290809,-0.2327489,-0.5758212
0.012744807,-0.001631449,-0.010541495,-0.15783715,-0.225504,-0.5578973
0.012348093,-0.001580666,-0.010213365,-0.15292409,-0.21848463,-0.54053134
0.011963729,-0.0015314639,-0.0098954495,-0.14816394,-0.21168375,-0.523706
