ax,ay,az,gx,gy,gz
3.0927553,3.2318475,-3.5409412,-45.00041,86.33806,-12.8173895
3.0371253,3.249073,-4.1975408,-33.795616,86.58341,-24.769854
2.8735628,3.4361625,-4.542184,-28.988647,82.70593,-34.69465
2.6293519,3.5063825,-4.7668724,-28.346848,74.51689,-41.53148
2.3729796,3.4670427,-4.931847,-28.004353,65.65483,-47.475086
2.1861448,3.3755198,-4.996248,-26.723402,56.971436,-53.57768
2.0845022,3.2461348,-5.014624,-24.015522,49.345314,-59.668465
1.9782517,3.0444243,-5.0531254,-20.069555,41.441532,-66.3444
1.8769282,2.7941182,-5.078407,-15.686031,33.008453,-71.9438
1.7408365,2.5157957,-5.1562963,-12.27255,23.993984,-76.372444
1.5967414,2.2445703,-5.2751946,-9.801356,14.502945,-79.88347
1.4612448,1.98856,-5.3587465,-7.73701,5.0819287,-82.745
1.3210943,1.7547499,-5.363817,-5.7369375,-3.6043367,-85.19786
1.1770221,1.5256459,-5.3139076,-3.7025387,-12.507069,-87.214554
1.1184851,1.3014263,-5.1252995,-1.9090387,-20.886898,-87.87509
1.1262797,1.1695404,-4.811525,-1.1075895,-28.341898,-87.05136
1.1434926,1.1602867,-4.4125166,-2.0151157,-34.69714,-86.13455
1.1383063,1.1313933,-3.9578705,-3.6145716,-39.701355,-86.20774
1.1302731,1.0214789,-3.4956594,-4.549663,-42.783875,-86.74508
1.1237867,0.8424897,-3.0748267,-5.1062055,-44.826942,-86.86005
1.1138035,0.6383246,-2.6928349,-5.8058763,-46.00288,-86.43328
1.0917585,0.42144087,-2.3449948,-6.996445,-46.542225,-85.05827
1.06409,0.21037236,-2.0310128,-8.8127985,-46.58959,-83.14618
1.0339156,-0.012825706,-1.7545109,-10.352598,-46.03826,-80.98266
1.0125972,-0.24619551,-1.5115063,-11.420868,-44.8459,-78.49601
0.971173,-0.46493828,-1.314791,-11.857132,-43.28326,-75.577614
0.8996621,-0.6486968,-1.1567101,-12.106486,-41.77682,-72.33122
0.8196376,-0.7751275,-1.0146408,-12.280096,-40.244728,-68.88802
0.7268505,-0.8567281,-0.8977809,-12.471468,-38.89275,-65.65069
0.6430814,-0.9128711,-0.79565597,-12.560752,-37.555267,-62.537342
0.57085043,-0.9465882,-0.7076221,-12.55368,-36.0075,-59.482273
0.5005051,-0.96804816,-0.6404598,-12.373197,-34.41324,-56.40885
0.43489102,-0.9788918,-0.587454,-11.9537325,-32.781948,-53.386776
0.38571876,-0.98066926,-0.5458252,-11.0209255,-31.163103,-50.508698
0.34992367,-0.9583907,-0.51554054,-10.533664,-29.763247,-47.819492
0.32422116,-0.94017893,-0.4833402,-10.139476,-28.284006,-45.18323
0.297132,-0.9163819,-0.45692733,-9.8990965,-26.867975,-42.705555
0.272275,-0.88893694,-0.43342337,-9.750392,-25.508064,-40.395638
0.2540837,-0.8635152,-0.40927705,-9.816377,-23.866253,-38.151794
0.24479295,-0.8319402,-0.39431155,-9.457433,-22.993567,-36.75675
0.23593006,-0.8018192,-0.38003522,-9.115021,-22.161068,-35.425945
0.227467,-0.7730571,-0.36640295,-8.788055,-21.366129,-34.155178
0.2193783,-0.74556726,-0.3533737,-8.475553,-20.60635,-32.940624
0.21164073,-0.7192708,-0.34091008,-8.176617,-19.879555,-31.778793
0.20423311,-0.6940957,-0.32897788,-7.890427,-19.183752,-30.666506
0.19713603,-0.6699759,-0.31754595,-7.6162357,-18.517118,-29.600847
0.19033168,-0.646851,-0.30658555,-7.353354,-17.877983,-28.579147
0.18380372,-0.62466544,-0.2960703,-7.1011496,-17.264807,-27.598944
0.17753704,-0.60336787,-0.285976,-6.8590403,-16.676174,-26.657974
0.17151773,-0.58291095,-0.2762801,-6.6264877,-16.110777,-25.754148
0.1657329,-0.56325096,-0.26696193,-6.4029946,-15.567403,-24.88553
0.16017061,-0.5443472,-0.25800222,-6.1880984,-15.044933,-24.05033
0.15481977,-0.52616215,-0.24938309,-5.981372,-14.542325,-23.246876
0.14967005,-0.50866055,-0.24108793,-5.7824154,-14.058608,-22.473621
0.14471184,-0.49180984,-0.23310126,-5.5908575,-13.592879,-21.729122
0.13993613,-0.47557944,-0.2254086,-5.406351,-13.144296,-21.012032
0.13533458,-0.45994082,-0.21799642,-5.2285724,-12.712068,-20.321087
0.13089928,-0.44486722,-0.21085204,-5.057217,-12.295457,-19.655106
0.12662286,-0.43033364,-0.20396361,-4.8920007,-11.89377,-19.012983
0.1224984,-0.41631645,-0.19731994,-4.732654,-11.506356,-18.393677
0.118519366,-0.40279356,-0.19091055,-4.578927,-11.132604,-17.79621
0.114679635,-0.38974404,-0.18472551,-4.430581,-10.7719345,-17.219656
0.110973395,-0.3771482,-0.17875552,-4.2873926,-10.423805,-16.663147
0.10739518,-0.3649875,-0.17299174,-4.1491504,-10.087702,-16.125862
0.10393982,-0.35324427,-0.16742586,-4.0156546,-9.763137,-15.607024
0.1006024,-0.34190193,-0.16204996,-3.8867154,-9.449652,-15.105897
0.0973783,-0.33094466,-0.15685658,-3.7621539,-9.146809,-14.621783
0.09426309,-0.32035747,-0.15183862,-3.6417997,-8.854196,-14.154021
0.091252595,-0.31012616,-0.14698933,-3.525491,-8.571418,-13.701982
0.08834284,-0.3002372,-0.1423023,-3.413074,-8.298101,-13.265068
0.08553002,-0.29067773,-0.13777143,-3.3044026,-8.033893,-12.842711
0.08281054,-0.28143546,-0.1333909,-3.199337,-7.7784495,-12.43437
0.08018096,-0.2724987,-0.12915517,-3.0977447,-7.531451,-12.039526
0.077637985,-0.2638563,-0.12505896,-2.9994984,-7.292588,-11.657688
0.07517849,-0.25549757,-0.12109722,-2.9044774,-7.0615664,-11.2883835
0.072799474,-0.24741238,-0.11726511,-2.8125653,-6.838104,-10.931164
0.07049807,-0.23959097,-0.113558024,-2.7236521,-6.6219316,-10.585599
0.06827154,-0.232024,-0.10997154,-2.6376314,-6.4127917,-10.251275
0.06611725,-0.22470254,-0.106501415,-2.5544016,-6.210438,-9.927798
0.06403269,-0.21761805,-0.1031436,-2.4738655,-6.014633,-9.614792
0.062015425,-0.21076229,-0.09989421,-2.39593,-5.8251505,-9.311892
0.06006316,-0.20412742,-0.09674951,-2.3205051,-5.6417727,-9.018749
0.05817366,-0.19770586,-0.09370591,-2.2475054,-5.4642906,-8.735033
0.05634479,-0.19149037,-0.09075996,-2.1768482,-5.292504,-8.46042
0.054574493,-0.18547393,-0.08790838,-2.1084538,-5.126219,-8.194602
0.0528608,-0.17964987,-0.08514798,-2.0422463,-4.9652505,-7.9372835
0.051201813,-0.17401172,-0.082475685,-1.9781523,-4.8094206,-7.688179
0.0495957,-0.16855328,-0.07988856,-1.916101,-4.6585574,-7.4470143
0.048040707,-0.16326857,-0.07738379,-1.8560247,-4.5124955,-7.213525
0.046535134,-0.1581518,-0.074958615,-1.7978579,-4.3710766,-6.987457
0.045077357,-0.15319748,-0.07261043,-1.7415375,-4.2341466,-6.768565
0.0436658,-0.14840023,-0.0703367,-1.6870028,-4.1015577,-6.5566134
0.042298947,-0.14375493,-0.06813498,-1.6341952,-3.9731684,-6.3513746
0.040975336,-0.13925658,-0.06600291,-1.5830582,-3.848841,-6.1526284
0.03969356,-0.1349004,-0.06393823,-1.5335376,-3.7284427,-5.960164
0.038452256,-0.13068178,-0.061938748,-1.4855806,-3.6118464,-5.773777
0.037250116,-0.12659624,-0.060002346,-1.4391366,-3.4989285,-5.5932703
0.03608587,-0.1226395,-0.058126982,-1.3941566,-3.38957,-5.4184537
0.034958296,-0.11880739,-0.05631069,-1.3505934,-3.2836564,-5.249143
0.033866215,-0.1150959,-0.054551568,-1.3084015,-3.1810763,-5.085162
0.032808483,-0.11150114,-0.052847777,-1.2675366,-3.0817227,-4.926339
0.031784,-0.1080194,-0.051197544,-1.2279563,-2.9854925,-4.7725086
0.030791702,-0.104647025,-0.049599156,-1.1896195,-2.8922853,-4.6235104
0.02983056,-0.101380534,-0.04805095,-1.1524863,-2.8020046,-4.479191
0.02889958,-0.098216556,-0.046551332,-1.1165185,-2.714557,-4.3394
0.0279978,-0.09515182,-0.045098748,-1.0816787,-2.629852,-4.203994
0.027124291,-0.09218316,-0.043691706,-1.0479312,-2.547803,-4.0728326
0.026278157,-0.08930753,-0.042328753,-1.0152413,-2.468325,-3.9457817
0.025458528,-0.08652198,-0.0410085,-0.9835754,-2.3913364,-3.8227108
0.02466456,-0.08382365,-0.03972958,-0.95290095,-2.3167589,-3.703493
0.023895446,-0.08120978,-0.038490694,-0.9231867,-2.2445154,-3.5880072
0.0231504,-0.0786777,-0.037290573,-0.8944022,-2.1745324,-3.476135
0.022428656,-0.07622482,-0.036127992,-0.8665181,-2.1067386,-3.367762
0.021729482,-0.07384865,-0.035001766,-0.83950585,-2.0410647,-3.262778
0.021052165,-0.071546756,-0.033910748,-0.81333816,-1.977444,-3.161076
0.020396018,-0.06931681,-0.032853827,-0.78798825,-1.9158117,-3.0625525
0.019760372,-0.06715654,-0.03182993,-0.7634305,-1.856105,-2.9671075
0.019144582,-0.065063745,-0.03083802,-0.7396398,-1.7982634,-2.874644
0.018548025,-0.06303632,-0.029877087,-0.7165922,-1.7422285,-2.7850683
0.017970096,-0.0610722,-0.028946161,-0.6942642,-1.6879432,-2.6982896
0.01741021,-0.0591694,-0.028044296,-0.6726333,-1.6353526,-2.6142201
0.016867798,-0.057325993,-0.027170584,-0.65167755,-1.5844036,-2.5327747
0.016342314,-0.05554011,-0.026324138,-0.63137585,-1.5350446,-2.453871
0.015833229,-0.05380996,-0.025504103,-0.61170757,-1.4872258,-2.3774295
0.015340025,-0.052133784,-0.024709653,-0.5926529,-1.4408988,-2.3033726
0.014862206,-0.050509892,-0.023939984,-0.5741927,-1.396017,-2.231626
0.01439929,-0.048936654,-0.02319432,-0.5563082,-1.352535,-2.1621172
0.013950812,-0.047412477,-0.022471914,-0.5389815,-1.3104091,-2.0947762
0.013516317,-0.04593583,-0.02177203,-0.52219504,-1.2695967,-2.029535
0.01309537,-0.04450522,-0.021093972,-0.505932,-1.2300569,-1.9663279
0.012687546,-0.04311921,-0.02043705,-0.49017596,-1.1917497,-1.9050913
0.012292435,-0.04177641,-0.019800607,-0.4749111,-1.1546367,-1.8457637
0.01190964,-0.04047546,-0.019184003,-0.46012202,-1.1186805,-1.7882853
0.011538776,-0.03921506,-0.018586615,-0.4457939,-1.083845,-1.7325983
0.0111794695,-0.037993945,-0.018007847,-0.4319123,-1.0500951,-1.6786469
0.01083136,-0.03681088,-0.017447112,-0.4184633,-1.0173969,-1.6263767
0.010494097,-0.035664674,-0.016903851,-0.40543336,-0.9857176,-1.5757352
0.010167344,-0.034554187,-0.016377518,-0.39280942,-0.95502543,-1.5266718
0.00985077,-0.033478297,-0.015867583,-0.3805788,-0.92528945,-1.4791368
0.00954406,-0.032435928,-0.0153735345,-0.36872917,-0.8964799,-1.4330828
0.0092469035,-0.03142603,-0.014894877,-0.35724875,-0.8685679,-1.3884636
0.008959005,-0.030447591,-0.01443113,-0.34612593,-0.8415253,-1.3452343
0.008680074,-0.029499631,-0.013981829,-0.3353496,-0.81532514,-1.3033515
0.008409831,-0.028581198,-0.013546523,-0.3249089,-0.7899411,-1.2627734
0.008148005,-0.027691374,-0.013124775,-0.31479344,-0.7653476,-1.2234591
0.007894334,-0.026829261,-0.012716164,-0.30499303,-0.74152017,-1.1853694
0.0076485644,-0.025994,-0.012320277,-0.29549783,-0.71843475,-1.1484659
0.007410448,-0.02518475,-0.011936721,-0.28629833,-0.69606835,-1.1127117
0.0071797473,-0.024400704,-0.01156511,-0.27738535,-0.6743985,-1.0780709
0.006956231,-0.023641072,-0.01120507,-0.26874995,-0.65340346,-1.0445089
0.006739675,-0.022905098,-0.010856243,-0.26038343,-0.63306224,-1.0119921
0.006529863,-0.02219204,-0.010518278,-0.25227746,-0.6133544,-0.9804879
0.0063265837,-0.021501187,-0.010190837,-0.24442388,-0.5942603,-0.9499646
0.0061296346,-0.020831846,-0.009873591,-0.23681486,-0.57576066,-0.9203918
0.0059388177,-0.020183347,-0.009566225,-0.22944278,-0.5578371,-0.8917398
0.0057539423,-0.01955504,-0.009268428,-0.22230022,-0.5404717,-0.86397994
0.0055748234,-0.018946296,-0.0089799035,-0.21538006,-0.5236469,-0.8370845
0.005401281,-0.018356504,-0.008700363,-0.20867535,-0.507346,-0.81102633
0.0052331425,-0.017785076,-0.008429525,-0.20217942,-0.4915526,-0.78577954
0.005070239,-0.01723144,-0.008167121,-0.19588572,-0.47625092,-0.7613188
0.0049124067,-0.016695041,-0.007912885,-0.18978797,-0.46142566,-0.73761964
0.0047594886,-0.01617534,-0.007666566,-0.18388008,-0.44706196,-0.7146583
0.004611331,-0.015671823,-0.0074279145,-0.1781561,-0.43314543,-0.69241184
0.0044677863,-0.015183979,-0.007196693,-0.17261033,-0.41966218,-0.67085797
0.0043287105,-0.014711323,-0.0069726706,-0.16723722,-0.4065987,-0.6499751
0.0041939644,-0.014253383,-0.006755622,-0.16203138,-0.3939419,-0.6297424
0.0040634135,-0.013809698,-0.0065453304,-0.15698761,-0.38167915,-0.61013955
0.0039369264,-0.013379826,-0.006341586,-0.15210086,-0.36979812,-0.59114695
0.0038143771,-0.012963337,-0.0061441837,-0.14736624,-0.358287,-0.5727456
0.0036956428,-0.012559813,-0.0059529273,-0.14277901,-0.3471342,-0.55491716
0.003580605,-0.012168852,-0.0057676244,-0.13833459,-0.33632863,-0.53764373
0.0034691482,-0.01179006,-0.0055880905,-0.13402852,-0.3258594,-0.520908
0.003361161,-0.011423062,-0.005414145,-0.1298565,-0.31571612,-0.5046932
0.0032565356,-0.011067486,-0.005245615,-0.12581436,-0.30588856,-0.48898324
0.003155167,-0.010722981,-0.005082331,-0.12189805,-0.29636696,-0.47376233
0.0030569541,-0.0103892,-0.00492413,-0.118103646,-0.28714174,-0.45901522
0.0029617986,-0.010065809,-0.0047708536,-0.114427365,-0.27820373,-0.44472718
0.002869605,-0.009752485,-0.0046223486,-0.11086552,-0.26954392,-0.4308839
0.0027802815,-0.009448915,-0.0044784667,-0.10741455,-0.2611537,-0.4174716
0.0026937383,-0.009154795,-0.0043390635,-0.10407101,-0.25302464,-0.40447676
