ax,ay,az,gx,gy,gz
-0.2172747,0.3436395,-5.720052,29.685724,-57.484158,16.201965
-0.214285,-0.08929722,-6.216029,29.55864,-59.81591,18.573359
-0.79136723,-0.4330497,-7.0093923,33.458397,-71.45282,15.016802
-1.1680362,-0.7838469,-7.604668,38.86463,-87.1913,10.488889
-1.2558311,-1.1200897,-7.961269,42.444263,-103.69526,7.7088428
-1.2348418,-1.4954059,-8.170569,45.92497,-120.685234,6.756309
-1.0544572,-1.9376597,-8.184618,51.65333,-136.01454,7.316469
-0.73018223,-2.2816496,-8.031605,58.830307,-149.47955,8.797757
-0.3274545,-2.5980537,-7.784426,66.45473,-161.6864,10.978834
0.09729016,-2.8954084,-7.442811,74.07885,-172.69122,14.082236
0.57697785,-3.142643,-6.934292,81.823044,-181.63864,19.976187
1.1860826,-3.1963472,-6.1641436,87.32022,-186.36081,28.14616
1.8551449,-2.869561,-5.0450892,90.60021,-186.95615,37.153404
2.5324426,-2.3452091,-3.780853,91.400246,-184.1469,45.012993
3.2296057,-1.746761,-2.41751,90.70339,-177.14357,51.237267
3.8535295,-1.1256893,-1.0835154,87.59986,-164.84782,56.11062
4.3582067,-0.50464386,0.093476474,82.883896,-149.73296,60.254
4.7507496,0.03166354,1.0291872,77.55592,-132.48901,63.80405
5.024274,0.5051116,1.6903849,72.40612,-114.49891,66.34811
5.215661,0.9080497,2.1248827,67.134254,-95.74133,67.61456
5.2933264,1.1997199,2.3128536,61.73281,-76.88091,67.67757
5.26347,1.4096475,2.2747707,56.597137,-58.812206,67.34235
5.1730695,1.5900167,2.1020668,51.546185,-42.71269,66.28042
5.0676417,1.7322388,1.8587542,46.71347,-27.984827,64.63255
4.9546976,1.8467524,1.5532398,42.49877,-14.856461,62.345108
4.835367,1.9419254,1.2026259,38.900917,-3.388168,59.290424
4.698243,1.9925843,0.798119,35.72849,5.979239,55.504974
4.5483623,2.0226119,0.37199983,32.915604,13.977225,51.62313
4.34797,2.0663815,-0.08292718,30.176025,20.088284,47.48128
4.1055083,2.1168838,-0.542492,27.78967,23.843687,42.700504
3.8617604,2.1804192,-0.9728554,25.756586,24.74696,37.02668
3.657104,2.2634485,-1.3487878,23.578596,24.318668,31.174015
3.4688027,2.331986,-1.6942947,21.188898,22.810463,25.387947
3.28893,2.3800204,-2.0159402,18.99511,20.533546,19.716965
3.1203103,2.4134178,-2.3154395,17.21688,17.42745,14.068429
2.949095,2.4502168,-2.5955772,15.909625,12.684342,7.95286
2.802265,2.480807,-2.820636,14.723833,7.178983,1.4422004
2.6964564,2.465006,-2.9915123,13.687752,0.7999665,-5.1056314
2.6495085,2.4269805,-3.0866117,12.784986,-5.754667,-11.304454
2.6415186,2.3964856,-3.1110885,11.768458,-12.469502,-17.262861
2.6643817,2.3551211,-3.0563061,10.175574,-19.281723,-22.918154
2.7215824,2.245746,-2.9145687,8.091877,-25.972723,-28.084045
2.8196359,2.076881,-2.7241607,6.124244,-31.75353,-32.728416
2.9372404,1.8780657,-2.4763448,4.5218644,-36.26728,-36.650227
3.05151,1.676318,-2.1714396,2.8382895,-39.5674,-39.616512
3.1473324,1.4564444,-1.8397366,0.94743305,-41.057846,-41.098892
3.1857028,1.2168882,-1.5444962,-0.6484273,-41.698917,-41.95344
3.1987119,0.983118,-1.2740749,-1.7901192,-41.47451,-42.262486
3.1893458,0.7918445,-1.0195237,-2.6384516,-40.478733,-42.10553
3.1722121,0.6193096,-0.78475106,-3.4264112,-38.918015,-41.435356
3.1767583,0.47029203,-0.5743012,-4.527458,-35.886536,-40.081093
3.1367943,0.33133647,-0.41081166,-5.8852186,-31.992514,-38.363094
3.05629,0.22178312,-0.29669905,-6.97522,-27.942713,-36.59826
2.9573238,0.1637802,-0.23397562,-8.438405,-24.059336,-35.141346
2.8339787,0.13251498,-0.21085334,-9.303288,-20.494259,-33.174477
2.676827,0.12008946,-0.22488376,-9.252061,-18.172274,-31.128937
2.52649,0.0996331,-0.25589654,-9.090306,-16.858181,-29.352682
2.3999379,0.07345961,-0.28670642,-8.938427,-15.589571,-27.698612
2.276972,0.05590106,-0.3184381,-8.277509,-14.51796,-26.20749
2.172577,0.053298462,-0.34484038,-7.701735,-13.426771,-24.995995
2.0681276,0.056699406,-0.37092885,-7.1978135,-12.4850855,-23.777649
2.0011256,0.054862484,-0.35891166,-6.964622,-12.080599,-23.00731
1.9364527,0.05308943,-0.3473123,-6.7395377,-11.690176,-22.263758
1.8740139,0.05137762,-0.3361136,-6.522229,-11.313239,-21.545887
1.8137189,0.049724583,-0.32529938,-6.312381,-10.949244,-20.852663
1.7554821,0.04812797,-0.31485432,-6.1096964,-10.597673,-20.183104
1.6992223,0.046585564,-0.30476385,-5.9138927,-10.258039,-19.536276
1.6448629,0.045095257,-0.29501423,-5.7247024,-9.929876,-18.911295
1.5923307,0.04365504,-0.28559232,-5.541872,-9.612744,-18.307322
1.5415562,0.04226302,-0.27648565,-5.365159,-9.306224,-17.723558
1.4924734,0.040917374,-0.26768243,-5.1943336,-9.009916,-17.159245
1.4450192,0.03961638,-0.2591713,-5.029176,-8.72344,-16.613655
1.3991338,0.038358394,-0.25094151,-4.8694787,-8.446434,-16.086102
1.3547597,0.03714184,-0.2429828,-4.715041,-8.178553,-15.575925
1.3118423,0.035965227,-0.23528536,-4.5656734,-7.9194636,-15.082495
1.2703292,0.03482711,-0.22783977,-4.421193,-7.6688533,-14.605211
1.2301705,0.033726126,-0.2206371,-4.2814264,-7.426419,-14.143498
1.1913182,0.032660957,-0.21366875,-4.146207,-7.191871,-13.696806
1.1537263,0.03163035,-0.20692648,-4.0153747,-6.9649334,-13.264606
1.1173513,0.030633096,-0.20040244,-3.8887763,-6.745341,-12.8463955
1.0821507,0.029668044,-0.19408904,-3.7662659,-6.5328383,-12.441689
1.0480843,0.028734084,-0.18797906,-3.6477027,-6.3271823,-12.050019
1.015113,0.02783015,-0.1820655,-3.532951,-6.128138,-11.670943
0.9831998,0.026955223,-0.1763417,-3.4218817,-5.935481,-11.30403
0.95230865,0.026108317,-0.17080122,-3.3143697,-5.7489944,-10.94887
0.92240524,0.02528849,-0.1654379,-3.2102952,-5.5684705,-10.605064
0.8934564,0.024494834,-0.16024578,-3.109543,-5.3937087,-10.272234
0.86543024,0.023726474,-0.15521915,-3.0120022,-5.224518,-9.950012
0.838296,0.022982568,-0.15035251,-2.9175656,-5.0607114,-9.638045
0.8120243,0.022262307,-0.14564054,-2.8261306,-4.902111,-9.335994
0.78658646,0.021564908,-0.14107814,-2.7375982,-4.7485456,-9.043531
0.7619552,0.020889623,-0.1366604,-2.6518726,-4.599849,-8.760341
0.73810405,0.020235723,-0.13238257,-2.5688622,-4.455862,-8.486119
0.7150074,0.019602511,-0.1282401,-2.488478,-4.31643,-8.220573
0.69264084,0.018989312,-0.12422853,-2.410634,-4.181405,-7.9634204
0.67098045,0.018395476,-0.12034363,-2.3352485,-4.0506434,-7.714387
0.65000343,0.017820375,-0.116581306,-2.2622411,-3.9240074,-7.473211
0.6296877,0.017263401,-0.11293758,-2.1915352,-3.8013632,-7.239637
0.6100119,0.016723972,-0.109408624,-2.1230564,-3.6825821,-7.01342
0.5909554,0.016201522,-0.105990745,-2.056733,-3.56754,-6.794324
0.57249826,0.015695507,-0.10268037,-1.9924958,-3.4561162,-6.582119
0.55462134,0.015205396,-0.09947406,-1.9302777,-3.3481948,-6.3765845
0.537306,0.014730683,-0.09636847,-1.8700144,-3.243664,-6.1775074
0.5205344,0.014270875,-0.093360394,-1.8116431,-3.1424153,-5.9846807
0.5042891,0.013825496,-0.09044672,-1.7551037,-3.044344,-5.797905
0.4885533,0.013394087,-0.08762442,-1.7003376,-2.9493484,-5.6169877
0.47331083,0.012976202,-0.08489062,-1.6472884,-2.8573313,-5.4417424
0.458546,0.012571413,-0.082242474,-1.5959017,-2.7681975,-5.271989
0.44424373,0.012179304,-0.07967729,-1.5461247,-2.681856,-5.1075525
0.43038926,0.011799472,-0.077192426,-1.4979063,-2.598218,-4.948265
0.41696844,0.011431529,-0.07478534,-1.4511971,-2.5171978,-4.793964
0.40396756,0.0110751,-0.072453566,-1.4059495,-2.4387128,-4.6444902
0.39137337,0.01072982,-0.07019473,-1.3621173,-2.3626828,-4.4996924
0.37917298,0.010395336,-0.06800654,-1.3196557,-2.2890303,-4.359422
0.367354,0.01007131,-0.06588674,-1.2785214,-2.2176805,-4.2235374
0.35590443,0.00975741,-0.06383321,-1.2386729,-2.1485603,-4.0918994
0.3448126,0.009453318,-0.06184383,-1.2000694,-2.0816,-3.9643745
0.33406726,0.009158726,-0.0599166,-1.1626718,-2.0167315,-3.8408334
0.3236575,0.008873335,-0.058049563,-1.1264422,-1.9538889,-3.7211506
0.31357282,0.008596854,-0.056240823,-1.091344,-1.8930085,-3.605205
0.30380297,0.008329006,-0.05448855,-1.0573413,-1.8340288,-3.4928792
0.29433805,0.008069518,-0.052790973,-1.0244001,-1.77689,-3.3840594
0.28516853,0.007818128,-0.051146373,-0.992487,-1.7215346,-3.2786355
0.2762851,0.0075745815,-0.049553093,-0.9615696,-1.6679063,-3.1765015
0.26767886,0.007338634,-0.04800952,-0.9316168,-1.6159512,-3.0775537
0.25934106,0.0071100467,-0.046514094,-0.9025983,-1.5656167,-2.9816926
0.25126332,0.006888589,-0.04506531,-0.87448496,-1.5168521,-2.8888214
0.24343751,0.006674038,-0.04366171,-0.8472483,-1.4696084,-2.7988462
0.23585571,0.0064661764,-0.04230188,-0.820861,-1.4238379,-2.711677
0.2285103,0.0062647965,-0.040984444,-0.79529643,-1.3794944,-2.6272254
0.22139391,0.006069694,-0.03970808,-0.7705288,-1.3365334,-2.5454068
0.21449934,0.0058806743,-0.03847151,-0.7465333,-1.2949116,-2.4661388
0.20781969,0.005697546,-0.037273478,-0.72328573,-1.254587,-2.3893416
0.2013482,0.005520125,-0.03611279,-0.7007627,-1.2155194,-2.3149378
0.19507842,0.0053482335,-0.03498827,-0.6789416,-1.1776693,-2.242853
0.189004,0.0051816986,-0.033898797,-0.65780056,-1.1409987,-2.1730142
0.18311888,0.0050203535,-0.03284327,-0.63731825,-1.1054708,-2.1053517
0.17741711,0.0048640347,-0.03182063,-0.6174741,-1.0710498,-2.0397975
0.17189302,0.0047125868,-0.030829854,-0.59824824,-1.0377014,-1.9762859
0.166541,0.0045658574,-0.029869946,-0.5796214,-1.0053917,-1.9147528
0.16135572,0.0044236984,-0.02893994,-0.56157476,-0.9740887,-1.8551368
0.15633197,0.0042859684,-0.028038904,-0.54409033,-0.9437608,-1.7973777
0.1514647,0.0041525285,-0.027165936,-0.5271506,-0.9143776,-1.7414179
0.14674905,0.0040232446,-0.026320161,-0.5107384,-0.8859097,-1.687201
0.14218026,0.003897988,-0.025500728,-0.49483743,-0.8583284,-1.634673
0.13775378,0.0037766322,-0.024706818,-0.47943172,-0.83160615,-1.5837809
0.13346517,0.0036590563,-0.023937633,-0.46450582,-0.8057162,-1.5344739
0.12931012,0.003545142,-0.023192402,-0.45004475,-0.7806325,-1.4867024
0.12528445,0.0034347754,-0.022470381,-0.43603405,-0.75633,-1.4404187
0.12138416,0.0033278456,-0.021770844,-0.42245966,-0.73278433,-1.3955762
0.11760533,0.0032242457,-0.021093093,-0.409308,-0.70997185,-1.3521303
0.113944165,0.003123872,-0.020436445,-0.39656585,-0.6878698,-1.3100373
0.110397,0.0030266237,-0.019800244,-0.38422048,-0.6664559,-1.2692549
0.1069603,0.0029324037,-0.019183854,-0.37225953,-0.64570886,-1.2297424
0.1036306,0.0028411173,-0.018586656,-0.360671,-0.62560785,-1.1914603
0.10040458,0.0027526733,-0.018008053,-0.34944335,-0.6061327,-1.1543702
0.09727901,0.0026669833,-0.017447468,-0.33856523,-0.5872639,-1.1184349
0.09425075,0.0025839612,-0.016904334,-0.32802582,-0.5689826,-1.0836184
0.09131678,0.0025035238,-0.016378112,-0.3178146,-0.5512705,-1.049886
0.088474154,0.002425591,-0.015868273,-0.30792123,-0.53410983,-1.0172038
0.08572003,0.0023500845,-0.015374308,-0.29833594,-0.5174835,-0.9855392
0.08305166,0.0022769289,-0.014895722,-0.28904903,-0.5013747,-0.9548603
0.08046636,0.0022060508,-0.014432035,-0.2800513,-0.48576754,-0.9251367
0.07796154,0.0021373793,-0.013982785,-0.27133366,-0.47064623,-0.8963384
0.075534716,0.0020708458,-0.013547521,-0.26288742,-0.45599568,-0.86843663
0.07318343,0.0020063834,-0.013125808,-0.25470415,-0.44180125,-0.84140354
0.07090535,0.0019439281,-0.012717223,-0.24677561,-0.4280487,-0.815212
0.06869819,0.0018834169,-0.012321358,-0.23909393,-0.4147243,-0.78983593
0.06655975,0.0018247897,-0.011937817,-0.23165137,-0.40181467,-0.7652498
0.06448787,0.0017679874,-0.011566215,-0.22444052,-0.38930696,-0.74142903
0.06248049,0.0017129536,-0.011206183,-0.21745412,-0.37718862,-0.7183498
0.060535602,0.0016596329,-0.010857357,-0.21068524,-0.36544752,-0.6959891
0.05865126,0.0016079721,-0.010519391,-0.20412706,-0.35407192,-0.67432445
0.05682558,0.0015579194,-0.010191945,-0.19777304,-0.34305045,-0.6533342
0.05505673,0.001509425,-0.009874694,-0.19161682,-0.33237207,-0.63299745
0.05334294,0.0014624401,-0.009567318,-0.18565223,-0.32202613,-0.6132937
0.051682502,0.0014169179,-0.00926951,-0.17987332,-0.3120022,-0.59420335
0.050073754,0.0013728128,-0.008980974,-0.17427431,-0.30229035,-0.57570726
0.04851508,0.0013300806,-0.008701418,-0.16884959,-0.29288083,-0.55778694
0.047004934,0.0012886785,-0.008430565,-0.16359372,-0.28376418,-0.54042447
