ax,ay,az,gx,gy,gz
0.7263703,-0.8654624,-1.7745616,47.718616,-82.95348,-19.364721
0.28212664,-1.1963866,-2.4542124,55.895447,-95.571526,-22.788269
0.17867261,-1.0880011,-2.6800368,51.737774,-103.40522,-23.155945
0.36333773,-1.2902119,-2.3566368,54.462048,-100.324265,-17.262949
0.48244503,-1.3539006,-2.26279,59.203148,-97.9794,-13.0620775
0.4850192,-1.3365406,-2.3682418,65.637375,-98.2188,-13.53669
0.45204648,-1.2905053,-2.5444756,63.81312,-101.93673,-13.886987
0.44990432,-1.4295536,-2.5440388,59.54462,-105.04976,-11.551241
0.4767847,-1.609934,-2.464662,57.289974,-106.702545,-7.192149
0.59100354,-1.7598941,-2.3393958,57.286003,-106.63902,-2.4055424
0.6903414,-1.8407737,-2.236756,59.19563,-105.83527,1.7413408
0.71081644,-1.8544916,-2.1694052,61.173477,-105.777435,5.16702
0.65647835,-1.859663,-2.115982,61.78872,-106.80466,8.358924
0.6186807,-1.8896424,-2.0304,61.42058,-108.20727,12.240204
0.62838846,-1.8487352,-1.8959806,60.30165,-109.45049,16.94968
0.64622444,-1.7215116,-1.7454598,57.872246,-110.63363,21.72821
0.6623599,-1.5788655,-1.5644773,54.328445,-111.213326,25.41879
0.6994037,-1.5225776,-1.3227029,51.55845,-110.45756,28.397701
0.76774305,-1.466669,-1.0596656,48.74817,-108.71785,31.509302
0.8514368,-1.4339409,-0.78967863,46.542816,-106.22125,35.08703
0.91831326,-1.3910636,-0.5541222,45.599724,-103.65873,38.419662
0.9707104,-1.3327829,-0.3277004,45.03876,-100.749954,41.449383
1.0356314,-1.2658277,-0.07803669,44.674152,-97.30138,43.990963
1.0977927,-1.1770808,0.16834521,44.486935,-93.19853,46.297237
1.1459911,-1.0614622,0.38051018,44.42657,-88.66684,48.5139
1.1845269,-0.9174985,0.5614876,43.846622,-84.1157,50.59874
1.2261983,-0.769742,0.74499625,43.056816,-78.99532,52.533478
1.2671993,-0.5771133,0.93121225,42.411057,-73.405754,53.84216
1.3037089,-0.37113377,1.1033726,41.523033,-67.08265,54.296474
1.3381598,-0.17006725,1.2496789,39.896816,-60.150578,54.374786
1.3453593,0.015515765,1.3405979,39.040737,-53.721176,53.695137
1.3381428,0.1784546,1.4042519,38.5325,-47.32582,52.421764
1.3198076,0.3300747,1.4338572,37.56686,-41.09365,50.76592
1.3059055,0.45923898,1.4506885,36.132275,-34.803795,48.955532
1.3020257,0.5659099,1.4519433,33.778584,-28.325203,47.28424
1.2801884,0.6236069,1.4096905,32.7862,-22.226997,45.19692
1.2382741,0.6841754,1.3284976,31.439943,-16.840904,42.942673
1.2082546,0.7154861,1.250223,29.895456,-12.025926,40.728836
1.2106471,0.73061913,1.2036533,28.021599,-7.081877,38.97791
1.2269318,0.75271875,1.1657474,25.959196,-1.9620562,37.42321
1.2268618,0.7921569,1.1020708,24.500029,2.3231018,35.248436
1.2029408,0.82314384,1.0312947,23.581764,5.9486203,32.696663
1.172077,0.8864354,0.9423844,21.80776,8.984028,30.244747
1.1546859,0.96387386,0.8558172,19.11406,11.450629,27.966003
1.1688722,1.065801,0.79754704,15.785365,13.760809,25.446917
1.2020977,1.1291918,0.75287443,12.651362,16.23713,22.713144
1.2322958,1.1529666,0.67815167,10.23651,18.63657,19.563385
1.2587978,1.1596901,0.55806977,7.7669106,20.658066,16.31547
1.2769088,1.1346754,0.42827007,5.025759,22.226131,13.29534
1.2908806,1.0804731,0.29840657,2.440412,23.604008,10.591035
1.2884899,1.0154647,0.15970626,0.14721233,24.640009,8.261726
1.2696453,0.9630591,0.00821825,-1.5722654,24.968376,6.058908
1.2388892,0.9240042,-0.1463306,-2.8206155,24.721485,3.8990376
1.2031022,0.8983585,-0.29600173,-3.7845147,23.931679,1.6721656
1.1578465,0.8667097,-0.43583348,-4.4497337,22.752676,-0.42945808
1.1068314,0.834807,-0.5656334,-4.834638,21.208189,-2.3227656
1.0554732,0.8041989,-0.68787277,-4.6696415,19.091812,-4.1029115
1.0299932,0.78397155,-0.78701484,-4.138536,16.743874,-5.808709
1.0098037,0.78416854,-0.8769862,-3.5207708,14.127114,-7.624882
0.989224,0.7810686,-0.9519041,-3.0442708,11.420408,-9.469973
0.96920764,0.76830083,-1.0159622,-2.1305678,8.581151,-11.3630085
0.95718145,0.75176835,-1.0724972,-1.2053404,5.659374,-13.150219
0.9551719,0.73102754,-1.129846,-0.33593774,2.7129447,-14.780632
0.94072104,0.70484465,-1.1807318,0.83209497,-0.24191529,-16.462969
0.9107758,0.6874112,-1.2124964,1.7577461,-3.3977652,-17.983461
0.8921276,0.6728526,-1.21826,2.2049696,-6.53406,-19.248224
0.88670737,0.65757036,-1.2036058,2.2947052,-9.5325985,-20.382011
0.89445853,0.6573602,-1.180713,2.1099997,-12.051053,-21.559528
0.873525,0.6493644,-1.1723547,2.2823646,-14.471216,-23.03079
0.82063985,0.65107465,-1.158632,2.394467,-17.217148,-24.5151
0.7820297,0.65670794,-1.1097059,1.816847,-20.118383,-25.69734
0.7805979,0.6583388,-1.0131203,0.77128494,-22.506126,-26.471617
0.8117298,0.6643296,-0.88765556,-0.35987273,-24.204433,-27.466423
0.8228705,0.64554363,-0.78224444,-1.0492109,-25.475128,-28.958874
0.81438464,0.605991,-0.6966717,-1.51289,-26.74086,-30.831583
0.81133455,0.5254867,-0.59801334,-1.9382323,-28.053999,-32.42862
0.83060783,0.40508944,-0.47171944,-2.3824809,-28.801424,-32.817783
0.85711825,0.31687564,-0.34754443,-3.485024,-29.191048,-32.565853
0.87598425,0.22701168,-0.23298357,-4.494017,-29.169336,-32.447308
0.8681342,0.121328324,-0.13890354,-4.810309,-29.044443,-32.830997
0.84695953,0.00822013,-0.050413027,-4.7645245,-28.663992,-33.01961
0.8199822,-0.0991348,0.02845826,-4.8835354,-28.20164,-32.237617
0.8011076,-0.16855963,0.1037242,-5.1830354,-27.594784,-31.188896
0.78629684,-0.22884037,0.1758205,-5.0987487,-26.504673,-30.379148
0.7587331,-0.27968127,0.22216912,-4.587633,-25.328672,-29.911755
0.7218453,-0.3192879,0.25155511,-3.9452748,-24.299515,-29.543617
0.68252593,-0.3630283,0.27805725,-3.5609367,-23.121214,-28.371246
0.63680583,-0.38391867,0.28674448,-3.500931,-21.96325,-26.648462
0.59943867,-0.38417205,0.29305452,-3.8925374,-20.752184,-24.77574
0.5752622,-0.3851695,0.311167,-4.097637,-19.355816,-23.228424
0.56234753,-0.3927452,0.34367856,-4.290494,-17.514301,-21.942463
0.5447381,-0.38044673,0.3329166,-4.156141,-16.965855,-21.255354
0.52768636,-0.36853775,0.32249543,-4.026043,-16.43478,-20.590006
0.51117414,-0.35700554,0.31240398,-3.9000607,-15.9205065,-19.945707
0.49518374,-0.34583783,0.30263147,-3.7780604,-15.422486,-19.321772
0.4796983,-0.33502272,0.29316753,-3.6599123,-14.940192,-18.717539
0.46470138,-0.32454884,0.28400216,-3.5454917,-14.473114,-18.132368
0.45017722,-0.3144051,0.2751257,-3.434678,-14.02076,-17.565645
0.43611056,-0.30458093,0.26652887,-3.3273547,-13.582653,-17.016771
0.42248663,-0.29506594,0.25820264,-3.2234097,-13.158337,-16.485174
0.40929127,-0.28585026,0.25013828,-3.122734,-12.747367,-15.970299
0.39651066,-0.27692425,0.24232742,-3.025223,-12.349316,-15.471608
0.38413158,-0.26827866,0.23476195,-2.9307754,-11.96377,-14.988584
0.37214118,-0.25990453,0.22743401,-2.8392932,-11.590328,-14.520725
0.36052704,-0.25179318,0.22033603,-2.7506819,-11.228606,-14.067549
0.3492772,-0.24393624,0.2134607,-2.66485,-10.87823,-13.628587
0.33838004,-0.23632564,0.2068009,-2.5817087,-10.538838,-13.203386
0.32782435,-0.22895353,0.20034981,-2.501173,-10.210082,-12.79151
0.31759936,-0.22181234,0.19410078,-2.42316,-9.891624,-12.392535
0.3076945,-0.21489476,0.18804742,-2.34759,-9.5831375,-12.006054
0.29809967,-0.2081937,0.18218355,-2.2743852,-9.2843075,-11.63167
0.28880507,-0.20170233,0.17650317,-2.203471,-8.994827,-11.269
0.2798012,-0.19541399,0.17100045,-2.134775,-8.714402,-10.917675
0.27107888,-0.18932231,0.16566981,-2.068227,-8.442746,-10.577335
0.26262924,-0.18342106,0.16050582,-2.0037596,-8.179582,-10.247636
0.2544437,-0.17770424,0.15550323,-1.941307,-7.924643,-9.928241
0.24651392,-0.17216606,0.15065694,-1.8808057,-7.67767,-9.618825
0.23883183,-0.16680087,0.14596203,-1.8221946,-7.438412,-9.319075
0.23138969,-0.16160326,0.14141376,-1.7654139,-7.206627,-9.028687
0.22417992,-0.15656793,0.13700752,-1.7104061,-6.9820786,-8.747366
0.21719524,-0.15168981,0.13273883,-1.6571157,-6.7645407,-8.474828
0.21042858,-0.14696395,0.12860338,-1.6054887,-6.5537934,-8.210796
0.20387308,-0.14238557,0.124597,-1.5554727,-6.3496227,-7.955005
0.19752215,-0.13795006,0.120715626,-1.5070176,-6.1518226,-7.7071958
0.19136935,-0.13365293,0.11695534,-1.4600741,-5.960194,-7.467117
0.18540849,-0.12948984,0.11331236,-1.414595,-5.774543,-7.2345276
0.17963353,-0.1254566,0.109783,-1.3705344,-5.594682,-7.0091925
0.17403868,-0.121549144,0.106363714,-1.3278478,-5.4204307,-6.790885
0.16861829,-0.11776353,0.103051044,-1.2864923,-5.251613,-6.579385
0.16336691,-0.11409594,0.099841654,-1.2464263,-5.088059,-6.374479
0.15827924,-0.1105427,0.09673233,-1.2076094,-4.9296036,-6.175961
0.15335017,-0.10710022,0.09371993,-1.1700025,-4.7760878,-5.9836316
0.14857474,-0.10376504,0.090801425,-1.1335678,-4.627357,-5.797297
0.14394814,-0.10053381,0.08797388,-1.0982686,-4.4832616,-5.6167703
0.13946573,-0.09740329,0.085234456,-1.0640696,-4.343657,-5.4418693
0.13512301,-0.09437031,0.0825804,-1.0309362,-4.208403,-5.2724185
0.13091561,-0.091431856,0.08000905,-0.99883544,-4.0773635,-5.108248
0.1268393,-0.088584945,0.077517815,-0.96773475,-3.950407,-4.949193
0.12288999,-0.08582674,0.0751042,-0.9376031,-3.827406,-4.7950935
0.11906373,-0.08315446,0.072765775,-0.90841013,-3.708237,-4.645795
0.115356654,-0.08056544,0.0705002,-0.88012666,-3.5927806,-4.5011473
0.11176507,-0.07805706,0.0683052,-0.85272425,-3.4809206,-4.361006
0.10828536,-0.07562682,0.066178575,-0.8261754,-3.372545,-4.2252297
0.10491403,-0.07327228,0.06411819,-0.8004535,-3.2675452,-4.093683
0.10164772,-0.07099107,0.062121984,-0.7755328,-3.1658158,-3.9662328
0.09848313,-0.068780914,0.060187947,-0.7513882,-3.067255,-3.8427527
0.095417105,-0.066639595,0.05831415,-0.72799563,-2.9717636,-3.723118
0.092446566,-0.06456496,0.056498703,-0.70533156,-2.8792462,-3.6072094
0.08956854,-0.06255493,0.054739796,-0.6833733,-2.7896101,-3.4949105
0.08678014,-0.060607508,0.053035665,-0.6620989,-2.7027655,-3.3861089
0.084078565,-0.058720723,0.0513846,-0.64148694,-2.618625,-3.2806952
0.081461124,-0.056892693,0.04978495,-0.6215168,-2.5371048,-3.178564
0.078925185,-0.055121586,0.04823511,-0.6021686,-2.458123,-3.0796132
0.07646821,-0.053405624,0.046733532,-0.58342284,-2.3816006,-2.9837434
0.07408774,-0.051743098,0.045278706,-0.56526077,-2.3074608,-2.890859
0.07178138,-0.050132334,0.04386918,-0.5476642,-2.2356296,-2.8008666
0.06954685,-0.048571724,0.042503543,-0.5306155,-2.166035,-2.7136762
0.06738188,-0.047059707,0.041180424,-0.5140977,-2.098607,-2.6292005
0.06528432,-0.045594767,0.0398985,-0.4980941,-2.0332787,-2.547355
0.06325207,-0.044175435,0.038656488,-0.4825888,-1.9699842,-2.4680576
0.061283085,-0.042800292,0.03745315,-0.46756625,-1.9086604,-2.3912292
0.05937541,-0.041467965,0.03628727,-0.4530114,-1.8492458,-2.3167927
0.05752712,-0.040177114,0.035157688,-0.43890968,-1.7916809,-2.2446737
0.055736378,-0.038926452,0.034063276,-0.42524698,-1.7359082,-2.1748
0.054001383,-0.037714727,0.033002935,-0.41200966,-1.6818719,-2.1071014
0.052320402,-0.036540728,0.031975605,-0.39918444,-1.6295178,-2.0415106
0.050691754,-0.035403274,0.030980257,-0.38675848,-1.5787935,-1.9779618
0.04911381,-0.034301233,0.030015895,-0.37471935,-1.5296484,-1.9163914
0.047584984,-0.033233497,0.029081555,-0.36305502,-1.4820334,-1.8567376
0.046103757,-0.032199003,0.028176302,-0.35175383,-1.4359004,-1.7989409
0.04466864,-0.031196712,0.02729923,-0.34080443,-1.3912038,-1.7429435
0.0432782,-0.030225623,0.026449462,-0.3301959,-1.3478985,-1.6886894
0.04193104,-0.029284766,0.025626149,-0.31991762,-1.3059413,-1.636124
0.04062582,-0.028373195,0.024828464,-0.3099593,-1.2652903,-1.5851952
0.03936123,-0.027490003,0.02405561,-0.30031097,-1.2259047,-1.5358516
0.03813601,-0.026634304,0.023306815,-0.290963,-1.1877452,-1.4880441
0.036948927,-0.025805242,0.02258133,-0.281906,-1.1507735,-1.441725
0.0357988,-0.025001988,0.021878429,-0.27313098,-1.1149528,-1.3968476
0.03468447,-0.02422374,0.021197408,-0.2646291,-1.080247,-1.3533672
0.03360483,-0.023469716,0.020537587,-0.25639188,-1.0466218,-1.3112404
