ax,ay,az,gx,gy,gz
1.8963809,-0.26091146,-2.7145703,13.539214,-91.165375,-0.6654606
1.9047759,-1.0852416,-3.3956463,50.44815,-98.82392,-18.669498
1.4947507,-1.5140046,-4.6425347,74.383064,-116.57352,-34.86577
1.2541659,-1.9610223,-5.3462257,93.05012,-137.478,-39.68829
1.4881402,-1.9734482,-5.570718,84.348816,-154.74205,-33.483295
1.8864512,-2.2169752,-5.2775164,70.97578,-160.50655,-21.184698
1.9450477,-2.3343005,-5.1184444,65.17509,-161.3103,-10.9828825
1.9303389,-2.2369976,-4.9478602,63.182144,-160.93515,-5.8520937
1.9526733,-2.2012465,-4.690759,62.80348,-159.9006,-2.319007
1.9482243,-2.2241423,-4.405954,63.002586,-159.39812,2.555602
1.9713356,-2.223383,-4.008419,61.896755,-158.56366,9.684015
2.0331647,-2.1678672,-3.511796,61.19678,-156.57123,16.994886
2.0738761,-2.1908855,-3.0242403,63.214424,-154.06473,22.28203
2.1262112,-2.280006,-2.5554664,66.991394,-150.95717,26.630106
2.204597,-2.2960532,-2.0547712,70.09989,-147.04666,32.635075
2.3119295,-2.1568334,-1.5446838,70.4653,-142.66048,39.255165
2.4192598,-1.9990345,-1.054299,68.65492,-136.95056,45.04458
2.4928293,-1.8568363,-0.63066524,68.18157,-130.56056,48.828632
2.5453455,-1.6597728,-0.24356642,67.787735,-123.70758,52.036884
2.5917962,-1.4149952,0.11383211,67.69024,-116.67362,55.075516
2.6217375,-1.1268153,0.4360892,66.91612,-109.40713,58.127735
2.6545484,-0.7867606,0.754924,65.63853,-100.88517,60.40711
2.6954641,-0.39120513,1.0347992,64.23598,-92.2295,61.02738
2.723126,-0.028814092,1.2607183,62.830517,-83.53077,59.65636
2.7505546,0.2648099,1.4444832,61.26183,-74.4973,57.37627
2.7620666,0.508307,1.5679587,58.66838,-65.267944,55.04101
2.7505817,0.68750113,1.630098,55.141792,-56.063137,52.691856
2.7137706,0.7905314,1.6181692,52.489857,-47.50785,50.107456
2.669037,0.869014,1.5777249,49.440895,-39.424507,47.46073
2.6262827,0.91412973,1.5268804,46.244057,-31.745808,44.82914
2.589453,0.9331338,1.4711823,43.5402,-24.612137,42.254658
2.557697,0.9570942,1.4004166,41.274376,-18.176867,39.69346
2.5216105,0.9865857,1.3110337,38.955685,-12.227,36.934856
2.4799361,0.9982263,1.214492,37.18014,-6.7162333,33.88493
2.443822,1.0031495,1.110278,35.402027,-1.6152244,30.84577
2.4125302,0.99900645,0.99223703,33.865753,2.9710753,27.936163
2.3822901,1.0080836,0.8654853,31.993898,6.746197,25.300543
2.3519337,1.021721,0.7435613,29.858494,10.00222,22.73325
2.3255143,1.0159665,0.63316035,27.927357,12.99774,20.151962
2.2957675,1.0225496,0.52550495,26.131746,15.792067,17.645271
2.26167,1.0454841,0.4212506,24.319374,18.380335,15.22973
2.2126462,1.0691057,0.3197983,22.336983,20.486204,13.04139
2.1727607,1.0816191,0.22880764,20.394524,22.336164,10.726284
2.1281874,1.0671011,0.120816365,18.880838,23.769974,8.152167
2.0781643,1.0424919,-0.0026604957,17.489382,24.621407,5.508366
2.0318718,1.0069257,-0.13044769,15.878398,24.909018,3.1217647
1.9931148,0.95284176,-0.26086804,14.045277,24.578043,1.067452
1.9515076,0.8778035,-0.39175314,12.849712,23.812513,-0.8636691
1.9084632,0.8252026,-0.5188654,11.737393,22.700985,-2.7674425
1.8549461,0.77240634,-0.6533014,10.940047,21.066313,-4.620886
1.7927212,0.7286146,-0.7915394,10.282869,18.850994,-6.243611
1.7381591,0.6993281,-0.9074101,9.937758,16.296875,-7.6564407
1.6852033,0.687157,-1.0149007,9.67101,13.78887,-8.997223
1.6347039,0.66207165,-1.1141931,9.942134,11.0767,-10.575896
1.5924428,0.64235836,-1.202505,10.417511,8.287461,-12.097883
1.5552026,0.62716585,-1.2869389,11.3668785,5.337023,-13.55173
1.5070547,0.6238392,-1.3638879,12.428125,2.100778,-15.0027485
1.4516996,0.64698213,-1.4060702,12.792949,-1.1985567,-16.50536
1.4130287,0.66321945,-1.4117198,12.482688,-4.206225,-17.814579
1.3819534,0.6765346,-1.4132599,11.648639,-7.09308,-19.033531
1.3513565,0.6822341,-1.4195855,10.786506,-10.124,-20.397835
1.3224463,0.67856556,-1.4125038,9.881399,-13.195125,-21.920038
1.294412,0.6496872,-1.3741258,8.976218,-16.120047,-23.310398
1.27473,0.62641716,-1.3151476,7.909423,-18.861258,-24.420511
1.2728082,0.61533576,-1.2372812,6.590585,-21.237352,-25.431635
1.2657504,0.59849983,-1.1546875,5.473555,-23.209,-26.666948
1.2441901,0.5684228,-1.0587779,4.537223,-25.025673,-28.016811
1.226877,0.52496576,-0.92080873,3.4509368,-26.550589,-29.11215
1.2142977,0.47428262,-0.77189195,2.2783666,-27.659716,-29.973778
1.1973882,0.41703665,-0.6337614,1.1644822,-28.63052,-30.8163
1.1915491,0.35014012,-0.49185914,0.2937128,-29.287199,-31.659918
1.1933758,0.27770528,-0.34887874,-0.42202908,-29.502926,-32.413445
1.1934592,0.19382,-0.21367316,-0.9784255,-29.378166,-33.06258
1.1868795,0.102992795,-0.094592206,-1.5068222,-28.943913,-33.45612
1.164898,0.015147132,-0.0020073806,-1.8844733,-28.274475,-33.370773
1.1313577,-0.0651406,0.06454205,-2.4293833,-27.56514,-32.815
1.0859187,-0.14189224,0.1125765,-2.4336073,-26.92333,-32.20405
1.0479902,-0.22385322,0.15980628,-1.8401458,-25.970844,-31.489613
1.017477,-0.3246121,0.20307393,-0.8460725,-24.606297,-30.039526
1.0093908,-0.43989193,0.25852993,0.99332446,-22.22946,-27.531776
0.9775914,-0.42603377,0.2503853,0.9620312,-21.529152,-26.664429
0.94681644,-0.41262206,0.2425031,0.9317461,-20.851408,-25.825022
0.917031,-0.39964157,0.23487431,0.9024347,-20.195452,-25.012604
0.88820124,-0.3870776,0.2274903,0.87406385,-19.560545,-24.226254
0.8602949,-0.37491602,0.22034279,0.84660167,-18.945972,-23.46509
0.83328074,-0.3631433,0.21342382,0.8200176,-18.351051,-22.728264
0.807129,-0.35174635,0.2067257,0.794282,-17.77512,-22.014957
0.78181076,-0.3407127,0.20024107,0.7693668,-17.217545,-21.324387
0.75729835,-0.33003017,0.19396283,0.7452445,-16.677715,-20.655794
0.73356503,-0.31968722,0.18788414,0.72188896,-16.155045,-20.008453
0.71058506,-0.30967256,0.1819984,0.6992748,-15.648966,-19.38166
0.6883337,-0.29997545,0.17629929,0.6773776,-15.158933,-18.77474
0.6667871,-0.29058543,0.17078066,0.65617394,-14.684419,-18.187042
0.6459221,-0.2814925,0.16543663,0.63564104,-14.224916,-17.617937
0.6257166,-0.27268693,0.1602615,0.61575717,-13.779938,-17.066818
0.6061491,-0.26415944,0.15524977,0.5965011,-13.3490095,-16.533104
0.5871989,-0.25590098,0.15039617,0.57785255,-12.931677,-16.016226
0.56884617,-0.24790283,0.14569557,0.55979186,-12.527499,-15.515641
0.5510714,-0.24015662,0.14114302,0.5423001,-12.136053,-15.030825
0.5338562,-0.23265423,0.13673377,0.52535886,-11.7569275,-14.561268
0.5171824,-0.22538781,0.13246322,0.50895053,-11.389728,-14.106481
0.5010328,-0.21834981,0.1283269,0.49305794,-11.03407,-13.66599
0.48539054,-0.21153294,0.12432052,0.47766465,-10.689586,-13.239337
0.4702394,-0.20493007,0.12043995,0.46275467,-10.355918,-12.826079
0.45556372,-0.19853441,0.11668114,0.44831258,-10.032721,-12.425792
0.44134837,-0.19233938,0.11304023,0.4343235,-9.719661,-12.038058
0.42757866,-0.18633854,0.10951347,0.42077297,-9.416415,-11.66248
0.41424048,-0.18052576,0.10609723,0.40764707,-9.122673,-11.298673
0.40132007,-0.17489506,0.102788,0.39493233,-8.838132,-10.946261
0.38880426,-0.16944067,0.09958239,0.38261572,-8.5625,-10.604884
0.3766802,-0.16415702,0.09647711,0.37068462,-8.295496,-10.274192
0.3649355,-0.15903868,0.093469,0.35912687,-8.036846,-9.953848
0.35355815,-0.15408045,0.09055499,0.3479306,-7.7862873,-9.643524
0.3425366,-0.14927725,0.0877321,0.3370845,-7.543564,-9.342904
0.33185962,-0.14462423,0.08499745,0.32657745,-7.308428,-9.051682
0.3215163,-0.14011662,0.08234828,0.31639877,-7.080641,-8.769562
0.3114962,-0.13574986,0.079781875,0.30653813,-6.8599715,-8.496257
0.30178908,-0.13151951,0.077295646,0.29698554,-6.6461954,-8.231489
0.29238513,-0.12742127,0.07488707,0.2877313,-6.4390955,-7.9749913
0.28327486,-0.12345102,0.072553694,0.278766,-6.238463,-7.726502
0.27444896,-0.11960471,0.070293166,0.2700806,-6.0440936,-7.4857707
0.2658986,-0.11587845,0.0681032,0.2616663,-5.855791,-7.252553
0.25761503,-0.112268485,0.06598158,0.25351462,-5.6733656,-7.026614
0.24958995,-0.10877116,0.06392616,0.24561726,-5.496632,-6.807725
0.24181524,-0.10538295,0.061934866,0.2379663,-5.3254123,-6.595665
0.23428306,-0.102100424,0.060005687,0.23055401,-5.159534,-6.3902197
0.22698581,-0.098920286,0.05813668,0.2233729,-4.998829,-6.1911826
0.21991614,-0.09583933,0.05632596,0.21641576,-4.843136,-5.9983525
0.2130669,-0.09285444,0.054571703,0.20967555,-4.692298,-5.811536
0.20643122,-0.08996261,0.052872144,0.20314549,-4.5461626,-5.630543
0.20000242,-0.087160945,0.051225565,0.196819,-4.4045835,-5.4551935
0.19377403,-0.08444661,0.04963032,0.19068974,-4.2674174,-5.28531
0.18773976,-0.08181688,0.048084795,0.18475154,-4.134527,-5.120722
0.18189357,-0.07926912,0.046587445,0.1789984,-4.0057783,-4.961263
0.17622958,-0.076800756,0.045136753,0.17342456,-3.8810425,-4.806774
0.1707421,-0.074409306,0.043731272,0.16802442,-3.7601933,-4.6570992
0.1654256,-0.072092384,0.042369585,0.16279255,-3.64311,-4.512089
0.16027476,-0.06984765,0.04105033,0.15772368,-3.5296748,-4.3715963
0.15528439,-0.06767285,0.039772175,0.15281275,-3.4197738,-4.235481
0.1504495,-0.06556581,0.03853384,0.14805482,-3.3132968,-4.103606
0.14576523,-0.06352441,0.03733408,0.1434451,-3.2101367,-3.9758396
0.14122689,-0.061546598,0.036171697,0.138979,-3.1101904,-3.8520534
0.13682991,-0.059630398,0.035045523,0.134652,-3.0133572,-3.732123
0.1325699,-0.05777388,0.033954427,0.13045979,-2.9195402,-3.6159282
0.12844256,-0.05597519,0.032897316,0.12639815,-2.8286455,-3.5033524
0.12444377,-0.054232523,0.031873126,0.12246301,-2.7405815,-3.394283
0.12056952,-0.05254413,0.030880837,0.11865044,-2.6552603,-3.2886105
0.11681593,-0.05090832,0.02991945,0.11495659,-2.5725963,-3.186229
0.113179244,-0.04932345,0.028988004,0.11137778,-2.4925067,-3.087036
0.109655805,-0.04778794,0.028085563,0.107910424,-2.4149113,-2.990932
0.10624208,-0.04630024,0.027211227,0.10455105,-2.3397322,-2.8978207
0.10293467,-0.044858873,0.026364114,0.101296276,-2.266894,-2.8076088
0.099730246,-0.043462384,0.025543382,0.098142855,-2.1963243,-2.720206
0.0966256,-0.04210938,0.024748206,0.095087625,-2.1279519,-2.6355247
0.093617626,-0.040798508,0.023977788,0.092127524,-2.0617082,-2.5534804
0.09070331,-0.03952845,0.023231361,0.089259595,-1.9975272,-2.4739907
0.08787973,-0.03829794,0.022508172,0.08648096,-1.9353446,-2.3969758
0.08514407,-0.03710574,0.021807503,0.08378884,-1.8750981,-2.3223588
0.08249359,-0.035950657,0.021128647,0.08118055,-1.8167274,-2.250065
0.07992562,-0.034831543,0.020470928,0.078653455,-1.7601739,-2.1800222
0.07743761,-0.033747267,0.019833686,0.076205045,-1.7053813,-2.1121602
0.075027056,-0.03269675,0.019216284,0.07383286,-1.6522946,-2.0464108
0.07269155,-0.031678937,0.018618105,0.07153453,-1.6008606,-1.9827085
0.07042876,-0.030692814,0.018038547,0.06930775,-1.5510279,-1.9209893
0.06823641,-0.02973739,0.017477032,0.0671503,-1.5027466,-1.8611916
0.06611232,-0.02881171,0.016933,0.06506002,-1.4559684,-1.8032556
0.06405435,-0.02791485,0.016405903,0.0630348,-1.4106466,-1.7471232
0.06206045,-0.02704591,0.015895216,0.06107264,-1.3667356,-1.6927383
0.06012862,-0.02620402,0.015400426,0.05917156,-1.3241916,-1.6400465
0.05825693,-0.025388338,0.014921041,0.057329666,-1.282972,-1.588995
0.056443512,-0.02459805,0.014456579,0.055545107,-1.2430357,-1.5395328
0.054686543,-0.023832364,0.014006576,0.053816102,-1.2043426,-1.4916103
0.052984267,-0.023090513,0.013570582,0.052140925,-1.166854,-1.4451797
0.051334985,-0.022371758,0.01314816,0.050517894,-1.1305324,-1.4001945
0.049737047,-0.021675376,0.012738887,0.048945386,-1.0953416,-1.3566096
0.048188847,-0.021000672,0.012342356,0.04742183,-1.0612462,-1.3143816
0.046688844,-0.020346973,0.011958168,0.045945704,-1.0282121,-1.273468
0.045235537,-0.019713622,0.01158594,0.044515528,-0.9962064,-1.2338281
0.043827467,-0.019099986,0.011225298,0.043129873,-0.96519697,-1.1954222
0.04246323,-0.018505452,0.0108758835,0.04178735,-0.9351528,-1.1582117
