ax,ay,az,gx,gy,gz
4.715497,2.400931,1.1654651,113.91467,-188.65627,-69.35881
6.538699,3.2085755,2.2677882,112.12951,-172.16895,-72.75039
8.016311,4.0411882,3.5004113,106.288445,-156.53096,-73.99413
9.521312,4.8487625,4.738058,93.02857,-141.17664,-74.12385
11.176663,5.3602314,5.867042,78.32232,-120.908264,-71.2643
12.610192,5.6363955,6.6890235,64.67398,-96.363914,-66.127106
13.651504,5.871411,7.2115445,50.956894,-67.44367,-59.75532
14.173581,6.1064796,7.3534784,37.473988,-40.146114,-53.665142
14.289201,6.2242475,7.1658993,24.45031,-15.396917,-47.988663
14.152674,6.2341037,6.736627,12.744943,7.2308683,-43.460655
13.923434,6.21945,6.207791,1.6900547,28.002167,-39.93628
13.716973,6.227768,5.6478133,-10.40258,49.19454,-36.847923
13.417955,6.216884,4.9311404,-22.86777,69.77434,-34.21198
12.961365,6.1780047,4.0924897,-34.04961,88.00106,-32.518784
12.373509,6.167471,3.2328036,-44.12113,102.42651,-31.138903
11.792259,6.217747,2.4240112,-53.782436,114.32422,-30.305216
11.2554865,6.27664,1.6221192,-63.40981,125.108406,-30.850351
10.747458,6.2752666,0.74867404,-72.62599,134.69533,-31.26339
10.165447,6.244003,-0.15500899,-81.460594,142.0944,-30.326733
9.4891815,6.222413,-1.0430145,-90.113686,147.09596,-28.900517
8.721622,6.194556,-1.9000313,-98.245995,149.39496,-28.410158
7.946962,6.1698256,-2.670299,-106.07048,148.53123,-29.320845
7.2263117,6.035852,-3.3676765,-112.850365,146.1226,-30.567589
6.5153766,5.785726,-4.006526,-117.87504,142.57338,-31.531977
5.764053,5.483009,-4.5510745,-121.09599,137.9348,-32.565544
4.9804206,5.15645,-4.983221,-123.05073,132.10147,-34.197712
4.192967,4.7316437,-5.3409967,-123.65244,124.45215,-36.725277
3.5126119,4.060411,-5.727333,-122.55422,115.28326,-39.486908
3.0446103,3.238519,-6.0816054,-119.442375,105.340485,-41.203396
2.756372,2.3425014,-6.3781066,-114.36536,94.99836,-41.05381
2.6104932,1.4541721,-6.6367383,-107.07843,84.881096,-39.69988
2.583903,0.6607685,-6.835556,-96.105545,76.29403,-39.609394
2.717376,0.17912906,-6.814203,-83.75398,68.84634,-40.144455
2.9668689,0.008582269,-6.5462456,-72.02885,62.660603,-39.887756
3.2419047,0.07962802,-6.100991,-61.829105,57.762028,-38.30791
3.4691198,0.346427,-5.5466585,-53.23851,54.001335,-36.141228
3.6640518,0.80281323,-4.9032373,-47.7437,51.483337,-33.474594
3.808042,1.3872732,-4.2564774,-44.974068,49.979008,-30.592705
3.851387,1.9416401,-3.7242916,-44.455647,49.08843,-27.964579
3.7934895,2.3941543,-3.3468127,-45.11768,48.813328,-26.040396
3.6590762,2.7542863,-3.118217,-46.352524,48.763027,-24.693205
3.4519541,3.0545526,-3.0034578,-48.111835,48.49826,-24.36573
3.1803136,3.2955937,-2.9796875,-50.38586,47.93701,-24.851454
2.8767653,3.478591,-3.0062218,-53.196217,46.786594,-25.98129
2.5489547,3.585113,-3.082061,-56.26271,44.896942,-27.622648
2.2170947,3.587229,-3.2064288,-59.143383,42.397175,-30.041462
1.9027201,3.4947872,-3.361667,-61.2058,39.40222,-33.33168
1.6044071,3.2841716,-3.5220892,-62.70507,35.982548,-36.611767
1.3015668,2.9635422,-3.7046275,-63.676144,31.64678,-39.3652
1.03794,2.5380898,-3.920205,-63.888718,26.095701,-41.490532
0.8857645,2.0101197,-4.138043,-62.789963,19.791271,-43.0987
0.872247,1.4189585,-4.3172946,-59.547794,13.565518,-43.491753
1.0123818,0.86015826,-4.417974,-54.950573,8.128985,-42.976757
1.2183982,0.38812214,-4.4500737,-49.243076,3.64594,-41.87005
1.4516368,0.04064217,-4.389845,-42.852085,0.06358435,-40.10689
1.6854637,-0.15194213,-4.2271204,-36.549347,-2.80881,-37.72383
1.8951782,-0.23727624,-3.9979525,-30.622908,-4.8438983,-35.12257
2.085386,-0.20724724,-3.7097824,-25.28467,-6.249366,-32.399258
2.258783,-0.104493536,-3.3995924,-20.61222,-6.9843855,-29.56615
2.3987556,0.03763768,-3.0985353,-16.680351,-7.090886,-26.49176
2.4731479,0.1965203,-2.8331375,-13.452152,-6.856595,-23.414755
2.483575,0.36749765,-2.598737,-10.963822,-6.5711856,-20.831059
2.4480066,0.54135346,-2.395981,-9.001855,-6.3529024,-18.755356
2.394546,0.70149744,-2.2216713,-7.37335,-6.2681046,-17.048515
2.3350704,0.8539875,-2.0664408,-6.1247835,-6.298152,-15.618255
2.2734509,0.99003416,-1.9312475,-5.385254,-6.28601,-14.276022
2.1945982,1.0915612,-1.8273399,-5.0092263,-6.1393256,-13.294294
2.0994384,1.154597,-1.7642752,-4.679106,-5.958535,-12.794813
2.01527,1.1944355,-1.716169,-4.3210874,-5.832558,-12.583076
1.9517747,1.2161685,-1.675476,-3.9750483,-5.6212897,-12.296665
1.9053277,1.210814,-1.6463593,-3.438451,-5.316001,-11.877952
1.8730447,1.1866235,-1.6147112,-2.2365308,-4.733632,-11.412942
1.86158,1.1462123,-1.5690578,-0.3572361,-3.854592,-10.800501
1.8717422,1.1145537,-1.4995675,1.800846,-2.2572906,-9.875283
1.8796068,1.0851697,-1.4197818,3.6753929,-0.2077763,-8.731029
1.8201269,1.0508295,-1.374853,3.5590854,-0.20120125,-8.454736
1.7625874,1.0176098,-1.3313899,3.4465723,-0.19484068,-8.187457
1.7069198,0.9854708,-1.2893409,3.3377197,-0.18868706,-7.9288735
1.6530584,0.9543745,-1.248656,3.232399,-0.18273309,-7.6786804
1.6009402,0.9242847,-1.209288,3.1304867,-0.17697182,-7.436584
1.5505049,0.8951664,-1.1711911,3.0318651,-0.17139657,-7.2023053
1.5016944,0.8669862,-1.1343216,2.936421,-0.16600095,-6.975574
1.4544532,0.8397121,-1.0986375,2.8440454,-0.1607788,-6.7561326
1.408728,0.8133131,-1.0640984,2.754634,-0.15572421,-6.543732
1.3644673,0.78775966,-1.0306654,2.6680863,-0.15083152,-6.3381352
1.3216217,0.76302326,-0.99830157,2.5843058,-0.14609526,-6.1391115
1.2801437,0.73907644,-0.96697074,2.5031996,-0.1415102,-5.946441
1.2399879,0.7158929,-0.93663853,2.4246786,-0.13707127,-5.7599115
1.20111,0.69344723,-0.90727174,2.3486567,-0.13277362,-5.5793185
1.1634679,0.67171496,-0.87883836,2.2750509,-0.12861256,-5.4044657
1.1270206,0.65067255,-0.8513075,2.2037818,-0.124583595,-5.235163
1.0917289,0.6302973,-0.8246496,2.1347723,-0.120682366,-5.071229
1.057555,0.6105674,-0.7988359,2.0679483,-0.1169047,-4.912486
1.0244622,0.5914616,-0.7738389,2.0032387,-0.11324654,-4.7587657
0.9924153,0.5729597,-0.7496319,1.9405739,-0.109703995,-4.6099033
0.96138036,0.555042,-0.7261893,1.879888,-0.10627332,-4.465742
0.93132454,0.5376896,-0.7034863,1.8211168,-0.10295088,-4.3261285
0.90221614,0.5208843,-0.68149894,1.7641981,-0.09973317,-4.190916
0.8740246,0.5046082,-0.6602042,1.7090722,-0.096616805,-4.0599627
0.84672046,0.48884445,-0.6395797,1.6556815,-0.09359854,-3.9331312
0.8202751,0.47357655,-0.61960393,1.6039702,-0.090675205,-3.8102891
0.7946611,0.45878857,-0.6002561,1.5538844,-0.08784377,-3.6913085
0.76985174,0.44446516,-0.581516,1.505372,-0.085101284,-3.5760655
0.74582136,0.4305915,-0.56336445,1.4583828,-0.082444906,-3.464441
0.722545,0.41715318,-0.5457824,1.4128683,-0.079871885,-3.3563197
0.6999988,0.40413636,-0.52875185,1.3687813,-0.07737957,-3.2515893
0.6781594,0.39152765,-0.51225525,1.3260764,-0.074965395,-3.1501424
0.6570044,0.37931406,-0.4962756,1.2847098,-0.07262687,-3.0518746
0.6365121,0.36748305,-0.4807965,1.244639,-0.07036159,-2.956685
0.6166614,0.35602248,-0.46580204,1.205823,-0.068167254,-2.864476
0.59743214,0.34492064,-0.45127696,1.1682218,-0.066041596,-2.7751532
0.5788045,0.3341662,-0.43720636,1.1317972,-0.06398245,-2.688625
0.5607595,0.32374814,-0.4235759,1.096512,-0.061987717,-2.6048038
0.5432788,0.31365585,-0.41037166,1.0623301,-0.06005536,-2.5236037
0.5263446,0.30387908,-0.39758024,1.0292169,-0.05818341,-2.444942
0.5099397,0.29440787,-0.38518858,0.9971386,-0.056369968,-2.3687387
0.49404728,0.28523257,-0.37318408,0.9660626,-0.054613184,-2.2949164
0.47865137,0.27634394,-0.36155462,0.9359573,-0.052911285,-2.2234004
0.4637363,0.2677329,-0.35028836,0.90679234,-0.051262535,-2.1541178
0.44928694,0.2593907,-0.3393739,0.878538,-0.04966527,-2.0869987
0.4352887,0.25130898,-0.32880014,0.8511657,-0.04811787,-2.0219748
0.4217274,0.24347952,-0.31855646,0.82464784,-0.046618767,-1.9589808
0.40858927,0.23589438,-0.30863243,0.7989576,-0.04516645,-1.8979526
0.39586115,0.22854593,-0.2990181,0.7740689,-0.04375945,-1.8388286
0.3835301,0.22142676,-0.28970373,0.7499567,-0.042396348,-1.7815492
0.37158373,0.21452965,-0.28067988,0.7265967,-0.041075766,-1.7260567
0.36000994,0.20784765,-0.2719375,0.7039653,-0.039796375,-1.672295
0.3487971,0.20137405,-0.26346776,0.6820396,-0.038556878,-1.6202098
0.3379339,0.1951023,-0.25526214,0.6607977,-0.037356034,-1.5697488
0.32740942,0.18902612,-0.24731234,0.6402181,-0.036192633,-1.5208611
0.31721306,0.18313935,-0.23961039,0.62028,-0.035065502,-1.4734975
0.3073345,0.1774361,-0.23214853,0.6009635,-0.033973504,-1.4276104
0.2977639,0.17191061,-0.22491926,0.58224905,-0.032915544,-1.3831537
0.28849158,0.16655734,-0.21791531,0.5641179,-0.03189056,-1.3400824
0.27950823,0.1613709,-0.21112964,0.5465518,-0.030897519,-1.2983536
0.27080482,0.15634608,-0.20455542,0.52953315,-0.029935421,-1.257925
0.2623726,0.15147784,-0.19818605,0.5130448,-0.029003305,-1.2187563
0.25420314,0.1467613,-0.19201516,0.4970701,-0.028100232,-1.180808
0.2462882,0.1421917,-0.18603651,0.4815932,-0.027225295,-1.144042
0.23861983,0.13776445,-0.18024413,0.46659845,-0.026377616,-1.1084214
0.23119037,0.13347514,-0.1746322,0.45207083,-0.025556345,-1.0739106
0.22399235,0.12931943,-0.1691951,0.43799576,-0.024760658,-1.0404748
0.21701853,0.12529318,-0.16392735,0.42435914,-0.023989756,-1.0080805
0.21026194,0.12139235,-0.15882368,0.41114727,-0.023242865,-0.9766952
0.2037158,0.117613,-0.15387899,0.3983469,-0.022519238,-0.94628745
0.19737354,0.11395137,-0.1490883,0.38594523,-0.02181815,-0.91682684
0.1912288,0.11040378,-0.1444468,0.3739298,-0.021138897,-0.8882837
0.18527545,0.106966674,-0.13994986,0.36228856,-0.020480799,-0.86062956
0.17950748,0.10363661,-0.13559297,0.35100985,-0.019843193,-0.83383656
0.17391914,0.100410245,-0.13137175,0.3400824,-0.019225445,-0.807878
0.16850483,0.097284354,-0.127282,0.32949522,-0.018626934,-0.7827278
0.16325912,0.094255805,-0.12331959,0.31923774,-0.01804706,-0.75836074
0.15817675,0.09132156,-0.119480565,0.30929965,-0.017485242,-0.7347525
0.15325265,0.08847868,-0.11576109,0.299671,-0.01694092,-0.7118793
0.14848186,0.08572432,-0.11215742,0.29034218,-0.016413545,-0.68971837
0.14385962,0.08305572,-0.10866596,0.28130385,-0.015902592,-0.6682474
0.1393813,0.08047021,-0.10528321,0.27254692,-0.015407547,-0.647445
0.13504241,0.07796521,-0.10200579,0.26406264,-0.014927916,-0.6272903
0.13083862,0.075538196,-0.0988304,0.2558425,-0.014463219,-0.6077631
0.12676571,0.07318675,-0.095753886,0.24787833,-0.01401299,-0.5888439
0.12281961,0.07090851,-0.092773154,0.24016209,-0.013576778,-0.5705137
0.11899636,0.0687012,-0.08988522,0.2326861,-0.013154147,-0.5527542
0.11529215,0.06656261,-0.0870872,0.22544286,-0.0127446735,-0.5355476
0.11170325,0.0644906,-0.08437629,0.21842511,-0.012347949,-0.51887673
0.10822609,0.062483102,-0.081749775,0.21162584,-0.011963574,-0.5027248
0.10485718,0.060538102,-0.07920503,0.20503826,-0.011591167,-0.48707578
0.101593144,0.05865365,-0.076739505,0.19865575,-0.011230353,-0.4719139
0.09843072,0.05682786,-0.07435074,0.19247195,-0.010880772,-0.45722404
0.09536676,0.055058915,-0.07203634,0.18648066,-0.010542073,-0.4429915
0.092398174,0.05334504,-0.069793984,0.18067586,-0.010213919,-0.42920205
0.089522004,0.051684514,-0.06762144,0.1750518,-0.00989598,-0.41584185
0.086735375,0.050075684,-0.065516524,0.1696028,-0.009587939,-0.40289754
0.084035486,0.048516933,-0.063477136,0.16432342,-0.009289487,-0.3903562
0.08141965,0.04700671,-0.061501235,0.1592084,-0.009000326,-0.3782053
0.07888524,0.0455435,-0.05958684,0.1542526,-0.008720166,-0.36643264
0.07642973,0.044125836,-0.057732046,0.14945109,-0.008448728,-0.35502645
0.07405066,0.042752307,-0.055934984,0.14479904,-0.00818574,-0.34397534
0.07174564,0.041421533,-0.054193866,0.1402918,-0.007930937,-0.33326823
0.06951238,0.040132184,-0.052506946,0.13592486,-0.0076840674,-0.32289442
0.06734864,0.03888297,-0.05087254,0.13169387,-0.007444882,-0.31284353
