ax,ay,az,gx,gy,gz
-1.3957654,-0.3691121,-3.3712387,-14.236465,-14.0975,-6.067901
-1.7409036,0.29053494,-3.537747,-24.512285,-26.450745,-7.432496
-1.6407232,-0.27949798,-3.4604619,-13.775493,-27.94016,-5.148526
-1.5973885,-1.0153277,-3.750419,-7.1829906,-19.086185,-2.1203983
-2.2119703,-1.6078368,-4.886627,1.8880565,-22.358858,-4.7687125
-2.491794,-2.4738393,-5.8123527,23.909452,-35.541935,-6.837737
-2.1740098,-2.7097154,-6.266125,38.891697,-60.470963,-0.48707747
-0.9287129,-2.873218,-6.070929,50.805756,-76.11716,11.475791
-0.629849,-2.4660115,-6.3977647,66.85695,-84.77298,16.378714
-0.85007936,-2.1282518,-7.6047034,77.46856,-94.404655,17.489752
-0.7811331,-1.2891532,-8.018468,78.34364,-109.71021,23.701965
-0.9098151,-0.6395662,-7.9982953,58.721207,-121.25487,29.123245
-0.4998417,0.6189821,-7.10822,48.530205,-143.32687,36.992016
0.26455858,1.7979189,-5.8023047,40.36196,-157.35466,39.52945
0.9768696,2.729488,-5.3649983,37.924633,-162.33879,37.331604
1.6276575,3.5139003,-4.936715,34.08923,-164.06131,33.461994
1.0465515,3.7641053,-4.6608562,22.457071,-170.97653,31.269299
1.3737042,4.053815,-2.966712,7.7909813,-182.54547,29.08151
2.4486063,3.9166698,-1.26154,-0.77119863,-181.46913,26.121313
2.739035,4.171525,-0.731928,-6.8842683,-171.75653,14.00351
2.8155665,5.0192537,-0.590315,-18.506687,-177.32584,13.581339
3.2950182,6.0842304,0.15434092,-42.360462,-175.46565,8.364135
4.5270476,6.3041615,2.0141692,-55.577267,-170.56343,-4.662755
5.4774137,6.045601,3.6185584,-61.108986,-158.26613,-15.33387
5.6088696,5.5743003,4.3133793,-69.62891,-142.5424,-16.11393
6.193152,5.765719,5.0117784,-83.582214,-128.54546,-23.729195
6.486782,5.631482,5.082386,-88.09855,-104.965935,-46.66352
7.200553,4.8012714,4.8549037,-96.994156,-85.31907,-58.352768
7.4183364,3.702046,4.5955677,-105.46836,-70.35318,-67.04703
6.9091353,2.2119005,3.932696,-103.40531,-55.641872,-72.69251
6.19626,1.2199688,3.8061666,-103.52852,-40.944023,-68.79637
4.9046392,0.68839234,3.7805855,-102.27646,-29.167253,-71.3397
4.5814104,0.05081603,3.766343,-102.6053,-23.95338,-64.62497
4.558672,-0.33021608,3.33627,-102.25427,-11.721086,-66.40978
4.7439733,-1.0216495,3.1139882,-93.34737,4.9037714,-76.659676
4.499802,-1.5562052,2.8647704,-84.64037,20.115181,-75.297966
3.4930873,-1.7028044,2.385492,-81.09604,29.698235,-75.18416
2.6066303,-1.9992336,2.282165,-79.78903,32.206287,-70.18449
2.6006649,-2.2665513,1.917743,-80.10192,31.500755,-64.252335
2.499576,-2.756712,1.6640626,-76.14196,44.00117,-60.451855
2.5636969,-3.7029002,1.1941762,-69.2753,52.567677,-54.4938
2.1246107,-3.849378,0.6343833,-58.56116,55.877594,-47.107006
1.6055676,-3.1405182,0.9498079,-58.314293,62.658104,-42.008057
0.9726405,-2.850891,0.5177101,-55.104248,59.93187,-38.782295
0.736389,-2.161692,0.38530567,-56.28622,64.05066,-32.365128
0.7877157,-2.2377312,0.6010804,-53.49226,61.502384,-28.81228
0.7001502,-2.3891113,0.1880676,-42.4436,72.86184,-28.100533
0.09809947,-2.5428138,-0.27155992,-33.753902,68.44627,-27.379292
0.11383791,-2.1922195,-0.548568,-32.70294,59.32733,-23.785734
-0.14039306,-1.8415445,-0.7080117,-24.254503,57.08843,-21.860977
-0.0037806332,-1.4666853,-0.66914606,-24.31821,56.04074,-17.389698
0.28844917,-1.6590275,-1.0067258,-18.51586,61.442104,-18.226652
0.12239336,-1.8716036,-1.6041511,-19.152658,56.87406,-13.096193
-0.22503762,-1.4848467,-1.6498013,-19.15435,53.748497,-6.1209803
-0.51460135,-1.553332,-1.6529261,-14.27387,50.035374,-1.7218415
-0.57524973,-1.2938125,-1.8399979,-10.160701,42.88124,-2.2205665
-0.77148885,-0.79564583,-1.540583,-9.270528,42.40793,-3.5664582
-0.62832063,-0.6757478,-1.0086945,-3.4226458,37.799007,-5.735438
-0.716311,-0.5949232,-1.0053463,-1.6818954,45.166748,-6.362379
-0.6648089,-0.80967325,-0.8542375,-0.80655694,42.650394,-5.247803
-0.5661973,-0.92964256,-1.0890146,-1.2497301,38.47723,-1.5631652
-0.4152869,-1.1444169,-1.4028184,2.2359304,34.355778,-3.414073
-0.2625196,-0.97943234,-1.4296142,6.290955,31.628984,2.0621796
-0.15222198,-0.61293924,-0.856604,2.325768,26.781244,4.581026
-0.2785041,-0.48748493,-0.8740811,7.2198133,28.748262,3.9145482
-0.4697562,-0.11014345,-0.8606235,6.805972,24.430737,3.7561698
-1.1605883,-0.10330525,-1.4027138,1.2723862,22.817156,6.050332
-1.2039646,-0.32191804,-2.041876,4.528693,13.410799,6.303502
-1.6006591,-0.49452454,-1.9518363,9.136536,12.996111,2.24463
-1.2071673,-0.38252926,-1.9209354,9.4798565,3.3933606,4.73838
-1.4029173,-0.11694242,-1.8381226,8.827826,-0.8760317,7.097717
-1.3556627,0.2326456,-1.2680181,7.48167,-8.762858,12.582691
-0.9902957,1.1220007,0.0026839823,3.6212063,-9.262966,13.861116
-0.84395653,1.5216551,0.23792334,1.1216272,-4.598901,10.726197
-0.44181916,1.3221191,0.486533,-1.6247013,-8.402174,4.493967
-0.2822749,1.0615957,0.5886457,-1.1145592,-8.4108,1.3594133
-0.053351022,0.69260955,0.43525395,-2.1065001,-5.642149,-0.14686143
0.114293344,0.45083356,0.56871223,-0.83513355,-2.1355014,0.33246982
0.4248627,0.2243435,0.67118716,-2.6616259,-0.9229932,0.8803599
0.42635864,0.30049607,0.715773,-2.5181818,-3.8711283,2.805828
0.6290369,0.13080445,0.96626073,-3.1817179,0.80180275,0.21460344
0.6724968,0.047433592,1.2744966,3.238093,8.709248,0.7033131
0.6853067,0.019076973,1.4119549,2.254123,9.425281,-2.371235
0.70267624,0.20385623,1.5952438,1.4828255,6.7517586,1.8516798
1.1442153,0.35565656,1.7178009,-0.14710772,7.7374783,-2.4599464
1.4248832,0.4140707,2.1087694,5.232107,12.680939,-3.787511
1.9055663,0.24443322,2.3920848,11.4358,25.174356,-10.31199
1.7730119,-0.25162417,2.4640634,13.06254,31.76686,-8.024041
1.5125957,-0.2579355,2.0789301,19.810545,39.451736,-10.541373
1.7603391,0.19581246,2.2368162,17.861946,45.927162,-10.60711
1.7594568,0.8379324,2.2616196,15.855552,44.526115,-14.754837
2.203074,0.8937705,2.5211701,14.567562,55.665802,-18.120426
2.3556015,1.2291707,2.7895293,14.217913,64.33104,-16.716784
2.1332,1.4445198,1.9697292,8.278997,70.392426,-13.958045
2.530051,1.4918199,1.9639415,2.1649594,76.26363,-13.646087
2.3341517,1.8350354,1.1385956,-3.8474085,78.803406,-14.550616
2.33038,2.0000887,1.1767353,-9.177278,87.839035,-21.770102
2.2312534,2.574714,1.0725602,-12.666666,94.05309,-26.76023
1.8170384,3.2190228,0.5621707,-22.34165,100.03685,-31.080362
1.0953319,3.7400994,-0.110388875,-35.786465,104.47856,-38.21921
0.33931354,3.975812,-1.3774452,-48.113525,98.85515,-36.404118
-0.3088224,3.9246328,-2.4142392,-63.292545,86.961044,-39.902794
-1.2798539,3.7127662,-4.226629,-72.70613,79.04691,-45.262108
-1.882407,3.435531,-5.643671,-78.83611,64.609085,-51.445976
-2.6660645,2.9594226,-6.6800513,-84.62226,51.977898,-58.751907
-3.4700987,2.225552,-7.920252,-84.09113,34.893105,-62.46235
-4.5323734,1.5395709,-9.0374975,-80.97772,10.897051,-66.39138
-5.986793,0.11393028,-10.756502,-75.756584,-12.246978,-68.89716
-7.383661,-0.7538205,-11.906268,-68.29189,-41.025948,-76.59914
-8.275148,-2.1031928,-13.359613,-48.152184,-74.28513,-91.95018
-8.539669,-3.2113926,-13.492144,-23.343555,-115.5384,-105.80549
-7.3809104,-3.423478,-12.505879,1.3350251,-158.01013,-104.81686
-4.40892,-4.037638,-10.167974,16.247082,-171.68239,-84.56825
-3.6094375,-3.241028,-9.499024,20.683865,-191.47337,-74.431694
-2.4964497,-3.9284518,-9.223728,20.820232,-209.90944,-72.116356
-0.05761282,-6.2650533,-8.331122,33.400772,-229.7203,-70.80976
3.2300365,-8.553278,-5.8555236,48.735733,-227.34639,-40.325153
7.73111,-9.2035675,-1.4089749,52.173473,-218.42581,0.14761253
9.66247,-8.67293,1.9345115,48.649555,-203.78622,31.884148
10.603107,-9.05652,3.7907305,50.21553,-179.02121,49.724545
11.040904,-9.917028,5.349266,60.96166,-147.16823,62.213715
11.925208,-9.120932,7.975174,58.405518,-120.19097,99.23708
13.86791,-7.443052,11.709514,57.5545,-81.71786,124.43538
14.559992,-6.85817,13.155358,60.476536,-44.63083,134.43983
14.386297,-6.652961,12.472129,70.37839,-8.116979,142.68506
13.73895,-6.154337,11.286705,74.58782,23.94351,158.48904
13.664416,-4.730031,10.054934,84.0122,61.424026,168.21034
12.799623,-2.1441622,8.693482,84.48053,87.19164,170.72357
12.046851,-1.2307986,6.57282,89.90391,112.08601,169.60336
11.081966,-0.4908427,4.235773,94.60258,125.65127,167.17929
9.974008,0.07946189,1.9440297,96.19839,141.06363,168.72516
8.591115,0.74928343,-0.4792245,106.79639,149.32954,160.85674
6.749316,1.3914165,-3.3309405,111.22275,154.37338,158.90384
5.6708956,2.282579,-4.6464353,113.432106,147.24152,153.06082
5.095651,2.6156933,-5.765779,117.94332,143.09303,146.34505
4.424207,3.0051768,-6.8599877,121.53874,141.77586,136.54836
3.602948,3.0198176,-8.104307,124.41084,131.35527,135.38362
2.2400827,4.500513,-8.646501,120.48295,118.655334,122.41192
1.2322153,5.0890923,-8.70274,119.683655,110.73622,114.73041
0.56958854,6.018199,-8.468836,113.40403,95.447266,105.13327
-0.55884737,6.7903285,-8.116976,106.71934,84.10725,96.7797
-1.2033165,8.013203,-7.399065,89.224815,71.94383,83.12483
-1.7933586,9.766454,-5.4420967,71.421524,56.559124,72.590294
-1.9993279,10.098673,-4.1948147,51.786552,50.50448,59.48773
-2.2026012,10.43707,-3.375706,28.751528,46.48978,41.447014
-2.143381,9.466592,-3.0882044,5.0386343,46.11186,28.539013
-2.3318415,7.9207697,-3.4112916,-18.84376,37.489452,16.226326
-2.2532768,5.6267586,-3.753532,-25.86896,25.505108,8.739615
-1.9517475,3.4723964,-3.7476954,-29.893208,12.699589,3.2318187
-1.5004064,1.5974116,-3.349017,-22.326498,0.6993484,-4.667471
-1.385248,0.431259,-3.1081593,-9.470131,-12.663822,-17.281683
0.0,0.0,0.0,0.0,0.0,0.0
0.0,0.0,0.0,0.0,0.0,0.0
0.0,0.0,0.0,0.0,0.0,0.0
0.0,0.0,0.0,0.0,0.0,0.0
0.0,0.0,0.0,0.0,0.0,0.0
0.0,0.0,0.0,0.0,0.0,0.0
0.0,0.0,0.0,0.0,0.0,0.0
0.0,0.0,0.0,0.0,0.0,0.0
0.0,0.0,0.0,0.0,0.0,0.0
0.0,0.0,0.0,0.0,0.0,0.0
0.0,0.0,0.0,0.0,0.0,0.0
0.0,0.0,0.0,0.0,0.0,0.0
0.0,0.0,0.0,0.0,0.0,0.0
0.0,0.0,0.0,0.0,0.0,0.0
0.0,0.0,0.0,0.0,0.0,0.0
0.0,0.0,0.0,0.0,0.0,0.0
0.0,0.0,0.0,0.0,0.0,0.0
0.0,0.0,0.0,0.0,0.0,0.0
0.0,0.0,0.0,0.0,0.0,0.0
0.0,0.0,0.0,0.0,0.0,0.0
0.0,0.0,0.0,0.0,0.0,0.0
0.0,0.0,0.0,0.0,0.0,0.0
0.0,0.0,0.0,0.0,0.0,0.0
0.0,0.0,0.0,0.0,0.0,0.0
0.0,0.0,0.0,0.0,0.0,0.0
0.0,0.0,0.0,0.0,0.0,0.0
0.0,0.0,0.0,0.0,0.0,0.0
0.0,0.0,0.0,0.0,0.0,0.0
0.0,0.0,0.0,0.0,0.0,0.0
