ax,ay,az,gx,gy,gz
-0.08142931,-0.52101445,-3.7090535,30.31501,-26.551579,-8.332403
0.8755611,-1.7586855,-4.072729,51.00806,-24.532476,-8.042807
1.4610224,-0.85398984,-4.6552734,48.85492,0.7707331,0.43149376
0.8196515,-1.6658282,-5.716461,35.64049,0.10187161,-0.14559484
-0.06260825,-2.6167817,-6.7455626,34.137726,-15.107238,7.8283706
-0.8440036,-3.7468202,-8.3637,54.893757,-40.131496,-0.278399
-0.3453322,-3.7853591,-9.044638,78.48221,-61.15186,-2.60589
0.56298333,-3.03264,-9.082293,82.35727,-82.40246,2.4267402
1.1547947,-1.9649097,-9.185896,46.57824,-92.348946,22.587866
2.0591555,-0.52769154,-8.831853,-14.749723,-101.90373,47.97788
3.1868913,0.97044665,-7.929833,-64.14326,-108.19721,53.327682
3.6066594,0.8021381,-7.085384,-100.28697,-106.552,48.409966
3.1674016,0.28710282,-6.8423705,-115.5513,-107.783035,28.834997
1.7478122,-0.7353821,-6.7925005,-117.78938,-116.74352,8.500863
0.5682628,-1.3858745,-6.287247,-104.59839,-133.9744,5.9340715
0.6061008,0.29399303,-5.2069745,-117.79896,-141.19206,8.391322
0.4997464,1.2644501,-4.978729,-163.84587,-157.78621,10.706987
0.15384763,-0.23377468,-2.9387922,-200.20058,-176.04767,20.127567
0.19613728,-3.2855496,-0.31307662,-183.27649,-196.20422,14.268542
2.0794775,-5.746271,3.3537042,-103.26872,-211.56395,0.066630825
5.7781606,-6.8613167,9.378815,-31.495838,-201.91869,-2.2211776
7.7816405,-5.073625,13.441841,28.40387,-171.99464,-10.264403
8.702533,-1.9801186,16.196459,96.93233,-155.96284,-32.58729
8.088015,2.2534595,16.77704,56.060196,-120.27033,-17.557932
8.1098,3.7695143,18.60617,9.315711,-82.16151,-13.298004
7.998817,3.1393476,19.998928,-17.656523,-49.890568,-15.324246
7.5687704,0.4599777,20.694132,1.9301715,-11.606036,-18.8304
7.440479,-0.5667829,19.71827,21.118832,23.230057,-20.648176
7.0049553,-0.45263726,17.83189,35.244366,56.82807,-21.183243
6.1005445,0.3023139,15.186336,40.00506,98.91799,-21.353695
4.605237,0.47750276,11.428797,37.351204,117.84827,-22.911646
3.7299714,0.049296707,9.118337,35.619682,126.71355,-22.349848
3.4293814,-0.57959634,7.8129478,36.166885,138.11241,-22.863565
3.345532,-0.9704974,5.7356963,38.59613,146.52034,-27.766697
3.0203614,-1.9767938,3.803189,31.182869,151.08821,-22.035763
2.7521164,-3.4361427,1.765707,39.993977,152.23634,-20.227509
2.4325442,-4.0553102,0.7190452,43.794785,156.13617,-18.483217
2.191229,-4.2342834,0.05962017,52.137676,150.62437,-18.756037
1.9751934,-4.79664,-1.1767817,61.32123,151.85173,-19.166822
1.5274569,-5.305526,-3.3819735,66.8368,147.31374,-19.839705
1.0147169,-5.827392,-5.239875,77.94612,137.95856,-11.39774
1.1472455,-5.386756,-5.8735785,92.37909,122.031265,-4.653945
1.6977792,-4.394284,-6.1400447,91.87038,114.6423,0.34837174
1.7470443,-3.28766,-6.4786663,85.16736,104.716896,6.65697
1.5841233,-2.2228706,-6.5957575,75.56338,91.396065,13.055223
1.506078,-1.3687241,-6.653376,72.29802,79.14387,16.047607
1.2777302,-0.18325529,-6.336071,67.39493,60.991863,19.531603
1.2506872,0.8619602,-6.2767053,58.067535,49.062542,12.994623
1.514957,1.3004167,-6.4153895,53.399727,32.110054,13.936423
2.1000674,2.0581062,-6.173874,29.643194,24.495651,19.160765
3.0666082,2.949789,-5.1906404,7.7144556,21.472612,14.373371
2.9522128,2.4730148,-4.4765067,4.0616016,29.852325,13.308579
2.7939413,2.4365325,-4.958062,7.5985875,29.791412,5.980658
2.4567082,3.1238532,-4.908393,15.986317,18.736273,-2.6909022
2.3204417,3.3564286,-4.4337764,34.991688,3.9554176,-18.897404
1.5117302,6.172613,-2.7170172,58.93434,-8.707981,-29.950838
2.6205866,10.430166,-1.8750998,49.593258,-10.113615,-44.994465
4.6252112,14.114242,-0.5305679,-18.965258,10.755926,-59.456142
4.991067,13.888943,-0.35631424,-98.56331,40.89339,-62.31113
4.757826,12.610865,-0.84083307,-177.05922,69.25498,-82.787094
3.5210087,8.35468,-1.522513,-188.17398,80.95315,-107.97297
2.4605968,4.8396153,-1.4663734,-150.45522,80.55384,-138.96806
2.5648298,2.0434654,-1.6810273,-112.30758,80.12371,-164.08229
3.1866481,-0.58206356,-2.324214,-106.86309,85.837326,-169.21695
2.7515337,-5.421284,-3.4203784,-78.19795,76.57944,-169.39417
0.07609445,-12.157762,-5.0247955,-17.846905,41.982487,-147.88649
-0.012462344,-13.192208,-5.190904,38.03882,4.48525,-118.38431
1.2072881,-11.907202,-4.4517775,58.871635,-17.579308,-92.20522
2.0600765,-10.238406,-4.5205054,69.71819,-30.52602,-72.129
1.8385822,-8.667871,-4.695274,77.15688,-35.960136,-55.28063
1.032349,-7.470366,-5.7071967,87.50539,-42.509212,-36.9178
0.58245057,-6.2844644,-6.286939,89.90526,-50.15011,-16.181065
0.45489454,-4.8354936,-7.421589,89.24356,-61.634052,6.7055016
0.6169585,-2.7149584,-7.7400727,81.58093,-68.72139,19.517664
1.2577487,-0.42269966,-7.973796,38.482292,-83.26936,16.541601
2.5486767,0.9442731,-7.592375,-3.7154663,-86.26019,13.600322
2.665559,0.35973224,-6.448353,-30.546366,-85.01791,0.4677841
2.175953,-0.61959934,-6.495595,-24.56151,-87.08776,-13.845938
1.6233137,-0.43627155,-6.8408914,-16.326633,-92.917404,-20.334438
1.8137982,0.5616503,-6.464315,-40.745495,-98.28018,-27.200174
0.8921826,1.6738783,-5.3276706,-83.97395,-102.359245,-26.68663
-0.93742585,1.1787897,-4.076135,-129.16118,-110.82349,-17.385616
-1.9887557,-0.6610594,-3.2847836,-134.71419,-123.2991,-21.946136
-2.5833764,-2.4292643,-1.9435228,-97.38915,-144.91455,-27.591055
-1.8262495,-2.2782078,0.7851302,-63.19659,-174.30803,-24.147999
2.1980503,-0.3367094,6.388338,-73.35568,-161.87411,-19.082268
5.132021,-0.76115906,9.87632,-89.06495,-123.22656,-23.608294
5.846926,-2.6004071,11.2523575,-105.38191,-71.97574,-36.244633
4.4892035,-5.9139876,10.689547,-111.32841,-39.082546,-37.338337
2.730483,-9.27733,10.180228,-83.96379,-21.13302,-23.764975
0.7809981,-12.065184,8.493196,-51.268864,-18.476505,-0.9175276
0.005149237,-11.690657,7.5518866,-22.699482,-12.886454,19.868536
-0.7698815,-10.434181,6.1631823,-2.859359,-9.276832,34.049557
-1.1067576,-9.284259,5.295734,7.097355,-10.090731,53.84976
-1.0989383,-8.503954,5.3253417,21.603138,-3.2820826,73.95056
-0.7575586,-8.332375,4.848853,27.799997,2.7069714,88.64616
-0.32368574,-8.45459,4.3957577,35.11188,6.804493,105.360886
-0.04952865,-7.9486628,4.038694,50.896225,13.657485,121.77379
0.23119372,-6.9649506,3.3779738,64.59981,14.764053,141.3632
0.24875799,-5.729077,2.3690493,70.1965,21.462332,157.17682
0.05539756,-4.194265,1.1835065,70.24566,17.605246,166.79648
0.45970735,-2.8567553,0.08674902,67.87105,11.414612,166.55717
1.3104417,-1.6179361,0.27663556,60.76749,3.5758991,173.5613
2.0148687,-0.6392903,-0.052473046,56.519547,5.577672,173.56293
2.849471,0.20433775,-0.39789364,56.963913,6.543216,167.47662
4.0786967,1.437563,-0.5446187,54.665497,15.040431,157.64174
3.7241251,2.2064023,-1.1433022,53.394737,21.711021,142.9291
3.279119,2.7934759,-2.391684,55.742973,15.1497345,143.90862
3.0587966,3.7462585,-2.5173604,62.37377,0.3840227,132.25699
3.6223505,5.454811,-2.3375456,58.115322,-15.499187,118.7877
4.7424135,7.6869926,-1.9401147,39.320736,-19.529902,101.613976
5.545688,8.266119,-1.6413574,11.040606,-10.100569,86.56593
5.4880033,7.829184,-1.9549555,-14.567732,-3.1705089,73.30893
4.961875,7.3293486,-1.8657981,-24.723494,-1.5732224,61.318825
4.786486,6.879706,-2.127899,-12.3948,-6.1282015,41.103863
5.252764,7.032161,-1.4706464,0.5166522,-4.6340404,19.39581
5.2916255,7.7340813,-1.3160988,5.5487723,-5.490251,-7.738017
4.5638685,7.925151,-1.7594382,5.32715,-2.645706,-25.77463
4.07205,7.983013,-2.2122254,-13.393329,-8.0444975,-34.760944
3.6977215,8.037164,-2.366197,-41.194714,-12.2131605,-47.313133
3.3814647,7.039188,-2.4580317,-53.537613,-20.835135,-49.673504
3.4361696,6.5212593,-1.4134853,-52.927532,-23.059702,-69.21806
3.843337,6.523586,-0.33457172,-37.22616,-27.958298,-87.43894
4.6844006,6.541382,0.55579996,-26.982327,-26.194378,-109.38932
5.4030457,7.0825343,1.1062037,-22.40349,-12.378571,-135.94202
6.1277113,7.2812247,1.9033055,-23.663925,-5.4038553,-146.25726
7.2415123,8.370769,1.766276,-32.019787,7.131591,-171.71652
7.904129,8.490366,0.9777183,-47.957066,25.455395,-209.27168
7.490547,7.0285535,-0.45803338,-80.87956,46.279167,-233.73544
6.5543346,4.084239,-2.5213752,-144.02435,57.804226,-245.7824
4.325947,-4.4308267,-3.8419197,-171.36642,45.168163,-231.88124
2.789531,-10.932713,-3.536035,-139.11192,25.90913,-210.89392
1.8046275,-16.21513,-2.3357384,-64.38406,9.075189,-191.37718
1.439365,-16.834797,-0.7470995,2.383347,-0.72191715,-163.02434
1.390877,-14.749615,0.01166115,47.061283,0.23518038,-115.05248
0.37062252,-12.016596,0.3742034,55.407345,0.23558617,-83.76481
-0.62508655,-9.824586,0.20741479,51.43263,-4.349258,-64.69556
-0.7536669,-7.8610425,0.80399233,49.469673,-7.950334,-41.952087
-0.5973749,-6.29191,1.056434,42.963596,-1.7902302,-39.038597
-0.7666534,-5.3919,0.5427017,34.90493,7.3369875,-28.836275
-1.7373618,-4.1512947,-0.10801725,24.606869,9.503393,-21.859375
-2.1441736,-3.2364545,-0.72825277,15.998134,2.9137917,-14.21097
-1.813056,-2.1624405,-0.45746982,0.8469713,5.2024794,-9.501652
-1.4155686,-1.7570578,-0.4145407,-11.250499,5.2022057,-5.080044
-0.90706736,-1.5357512,-0.43548775,-15.385765,6.373555,-9.027399
-0.3659742,-1.6939074,-0.28574103,-12.038454,11.215794,-11.637082
-0.28339887,-1.8227682,-0.4924708,-9.087381,13.306979,-11.9951
-0.29037914,-1.7574785,-0.48516315,-4.8474827,13.642341,-9.129299
-0.2968327,-1.7377676,-0.51951,-6.952041,13.502797,-4.0232935
-0.407435,-1.6583887,-0.5047027,-7.278839,4.35997,6.703346
-0.35795757,-1.0813687,-0.78414893,-1.7837833,0.8334832,8.741071
-0.17390949,-0.7961654,-0.6133828,-0.20050225,-4.103902,14.260639
-0.16678533,-0.33388692,-0.79739195,2.1900337,-7.133276,14.843063
-0.19569424,-0.28786588,-0.64361435,0.45315126,-8.653224,14.311079
0.35416228,0.56744593,-0.45070764,-0.36311936,-9.139781,14.230707
0.67493725,0.7404018,-0.25658035,-8.754794,-5.0324426,11.24963
0.4726456,0.75424254,-0.56536365,-17.400698,-6.2693205,10.441501
0.5773588,0.43230176,-0.5651353,-46.53634,-7.1179914,12.307352
0.0,0.0,0.0,0.0,0.0,0.0
0.0,0.0,0.0,0.0,0.0,0.0
0.0,0.0,0.0,0.0,0.0,0.0
0.0,0.0,0.0,0.0,0.0,0.0
0.0,0.0,0.0,0.0,0.0,0.0
0.0,0.0,0.0,0.0,0.0,0.0
0.0,0.0,0.0,0.0,0.0,0.0
0.0,0.0,0.0,0.0,0.0,0.0
0.0,0.0,0.0,0.0,0.0,0.0
0.0,0.0,0.0,0.0,0.0,0.0
0.0,0.0,0.0,0.0,0.0,0.0
0.0,0.0,0.0,0.0,0.0,0.0
0.0,0.0,0.0,0.0,0.0,0.0
0.0,0.0,0.0,0.0,0.0,0.0
0.0,0.0,0.0,0.0,0.0,0.0
0.0,0.0,0.0,0.0,0.0,0.0
0.0,0.0,0.0,0.0,0.0,0.0
0.0,0.0,0.0,0.0,0.0,0.0
0.0,0.0,0.0,0.0,0.0,0.0
0.0,0.0,0.0,0.0,0.0,0.0
0.0,0.0,0.0,0.0,0.0,0.0
0.0,0.0,0.0,0.0,0.0,0.0
