ax,ay,az,gx,gy,gz
-0.7864543,-0.35166883,-2.1675684,1.2753657,-1.0732162,-12.043354
-0.70844567,-0.19520657,-1.7842484,5.0974245,-2.0958261,-14.418738
-0.2597176,-0.013311549,-1.9348831,9.099797,-2.522866,-14.5038
-0.11705583,0.026915673,-2.0106795,16.15057,-1.7090929,-4.983994
-0.52986467,0.11133844,-2.0245874,9.8883915,-4.2904162,-2.1125712
-0.5626278,-0.6594825,-2.1842437,10.618803,-2.242657,3.4760792
-0.056298044,0.03546329,-2.4275415,10.838196,-4.0879846,2.1616225
0.010807779,-0.06582922,-2.5710137,7.984757,-1.3722392,2.4547744
0.03860057,-0.10912969,-2.8121548,4.8224,-2.774344,10.01235
-0.7490841,-0.06662111,-2.9292092,7.1472235,-10.447302,11.10232
-1.1224192,-0.63988316,-3.3439436,4.341783,-13.291764,15.6326885
-2.1920195,-1.0051727,-3.7760353,2.7967772,-23.751972,23.010855
-3.2393844,-1.6535201,-4.285942,4.2537665,-30.460314,23.278522
-3.2165852,-1.336722,-4.4923444,4.2677436,-39.518116,21.403912
-2.5956278,-0.65002584,-4.3906384,0.56246746,-49.48948,26.997568
-2.3769994,-0.31526682,-4.170312,-8.032228,-49.828804,37.534378
-3.216456,-0.77153695,-4.2199817,-17.369505,-55.424927,47.487495
-3.9975615,-1.1220855,-4.146226,-17.438807,-61.74692,50.927643
-4.050954,-0.020096913,-3.9602103,-16.634691,-73.86271,38.83196
-2.5730088,0.48804414,-3.5047686,-20.847721,-84.652855,33.168182
-2.4970963,0.6287338,-3.3234868,-29.14931,-90.838745,33.717735
-3.6490695,-0.35643336,-3.4139233,-32.812214,-103.74814,41.17134
-4.25473,-0.84885997,-3.0351033,-37.118637,-126.60084,48.566242
-3.0859957,-1.0011765,-2.3071558,-41.65513,-143.21317,51.200542
-1.2442071,0.11298422,-1.5438776,-45.976765,-155.06795,45.624405
0.6173189,1.0902984,-0.65087855,-56.926617,-154.80267,45.56004
2.4646301,1.737126,0.83591306,-71.68001,-146.94383,52.095528
2.21355,0.5438595,1.2776769,-75.93886,-138.0048,55.83061
1.487388,-1.0460023,0.78514934,-70.20621,-138.5159,46.476505
2.000167,-2.4000115,0.6499361,-60.00066,-143.66554,43.661774
3.6555793,-1.0978003,1.7943096,-58.611763,-134.72208,37.48145
3.5949163,0.516377,3.1573062,-67.20589,-118.715324,35.622425
2.740558,0.57363623,3.5083122,-81.51676,-106.619545,43.147903
1.2894535,-0.7075111,2.6030931,-78.91392,-107.21866,50.99531
2.1553147,-2.170842,2.1179318,-73.118546,-110.100395,45.974792
5.652137,-2.411874,3.40461,-61.995327,-97.9275,36.86518
7.6479616,-1.9286171,4.4222846,-48.525047,-79.562515,28.770237
8.285952,-2.3499591,5.364884,-40.6485,-59.601562,29.295261
8.400498,-1.7748744,5.9594374,-21.011702,-49.786552,26.305986
9.275695,-1.0211943,6.9127154,-9.228882,-42.22573,15.415686
10.9289665,0.3187914,8.349798,-0.01429069,-7.1151834,10.919402
11.004629,0.65322274,8.829016,1.6632518,23.603273,10.963982
10.3175955,0.12549995,8.418169,-1.4656274,52.159374,15.210718
8.586033,-1.0609901,7.1072917,4.5392184,73.644356,16.60181
7.8127637,-1.7731285,5.7832675,12.0510645,98.42584,16.752623
6.3295064,-3.0264666,4.4652767,23.28954,110.74714,10.682992
4.8957543,-3.0877304,3.8198845,42.90244,114.61156,-2.8619866
4.364015,-2.943944,3.497048,48.025513,123.87298,-4.570158
3.9351082,-2.7550466,2.8140142,57.097916,129.05533,-3.2218733
3.3244069,-2.2613497,2.3548887,53.087543,146.36032,0.9154725
1.5423205,-2.8717556,1.5755669,52.713867,153.24771,8.577089
-0.5060692,-3.4288166,0.8011285,62.147667,142.0641,12.283948
-1.2310259,-3.6748962,-0.026083432,71.474304,120.06317,10.218071
-1.0128016,-3.90047,-0.09413856,78.44351,118.92255,6.110072
-0.5395103,-3.3396828,-0.22040632,89.0401,118.857346,-0.4190243
0.33217424,-1.5518961,-0.94795364,93.702126,126.715,-9.427187
-0.12514682,-0.8927594,-2.035885,96.663635,133.83005,-3.4104052
-1.4506139,-0.07610985,-2.9058168,90.889755,131.60835,1.8448354
-2.6544812,0.8336532,-3.7512,87.59101,117.92665,-1.4611061
-2.9494386,1.9664026,-3.849215,72.55805,97.09141,-4.3501897
-1.4638542,2.2727454,-4.3506966,66.091805,90.67717,-8.427389
-0.21312982,1.7076308,-5.2825246,56.45295,82.3097,-5.176215
-0.16505958,0.5991456,-6.0681586,57.112453,77.53913,-5.1039767
-0.12653035,0.044174355,-6.1065974,63.909657,64.21652,-12.395737
0.46027014,1.1233915,-5.4337187,63.284386,64.37893,-28.240723
1.02524,2.4804409,-5.2939777,54.99146,66.33608,-27.520367
0.25664052,3.1674862,-5.6136913,47.769505,70.16462,-28.954521
-0.49155387,3.8543892,-5.4216924,46.1032,61.449425,-37.320076
-0.030490406,5.0413685,-5.0367775,33.3078,51.846043,-47.724266
-0.018601235,5.7820673,-4.7982545,16.611555,44.87147,-44.915604
-0.2299188,5.9461446,-4.5151935,-4.378811,38.283585,-41.60712
-0.36948508,5.655224,-4.332512,-18.327576,31.462828,-40.466034
-0.0044456944,5.341224,-4.3300295,-27.611128,22.168617,-55.082848
0.5894736,4.936418,-3.6593509,-31.511663,17.825172,-66.65367
1.2630861,5.4917684,-3.0982533,-36.128395,13.827091,-90.95499
2.7889996,5.655232,-1.4965503,-41.530384,15.588864,-107.44413
3.6904418,6.19519,-0.44459283,-50.082977,20.42369,-117.655594
4.2179146,6.280506,0.6185298,-63.188004,24.422373,-127.04448
4.616699,6.033993,1.1496211,-75.94493,34.009815,-131.85695
4.178381,5.1435366,1.249531,-94.190506,44.449577,-129.75348
2.1794827,2.5349324,0.43404177,-107.02047,49.910503,-123.47391
0.28275624,-0.63614964,-0.7720636,-108.33394,41.72391,-120.537575
-0.8815878,-3.947381,-1.306133,-95.04296,38.060356,-130.71037
-1.8156835,-6.3595138,-1.3741443,-69.7562,33.614212,-144.04135
-3.035836,-7.5672307,-1.3290529,-53.04648,29.773552,-146.12811
-3.6143959,-7.802403,-0.9931413,-36.49583,8.184939,-131.19797
-2.7645879,-7.3283267,-0.653635,-26.980831,-8.131107,-119.13127
-1.8044722,-6.9613595,-0.5131091,-27.236702,-8.42572,-98.03185
-1.4940567,-7.0075707,-0.6052028,-22.532064,-10.620246,-70.72492
-1.5149791,-6.541554,-1.1607039,-14.129388,-8.4009285,-50.184174
-1.8218348,-6.6990805,-1.7563508,-5.1598234,-6.433328,-44.39849
-1.7395867,-5.983851,-1.9925791,9.5061865,-9.777363,-44.74624
-1.5122063,-4.7197847,-2.4660711,15.877349,-11.463137,-34.029552
-1.7030592,-3.6870816,-2.864594,19.710167,-17.561007,-23.77089
-1.751607,-2.4752176,-3.2489636,16.076937,-23.404972,-13.435972
-1.5236812,-0.7064676,-3.5439408,9.148151,-24.773903,-3.2147782
-2.0799043,-0.37589306,-4.1538763,2.0577893,-29.860537,3.7173193
-3.037923,0.02789031,-5.145052,4.2076197,-38.94709,8.67319
-3.934302,-0.34723148,-6.2155066,1.4707972,-50.050823,7.384625
-4.6276326,-1.0338367,-7.109906,-3.746407,-68.99177,9.209075
-5.3880153,-1.5158379,-7.7012773,7.5652337,-94.7818,3.5394788
-5.2421703,-0.74224526,-7.2900577,7.380997,-118.66828,-5.922261
-4.469025,0.1497944,-6.8385468,0.66844916,-128.64813,1.1199583
-4.6614404,0.45297977,-6.791622,-12.476909,-146.4276,13.494403
-4.8121533,0.18423402,-6.9821334,-15.48737,-176.10272,16.133097
-4.493238,-0.1938347,-6.660802,-14.405681,-197.4884,10.350471
-2.7856293,0.95744175,-5.4090543,-14.73382,-214.46089,1.1141608
-0.86452407,2.4952419,-3.9321864,-31.749666,-220.33728,0.79284
0.86130655,2.8180509,-2.6763666,-53.96205,-215.50287,19.355381
2.005897,0.8618587,-1.7573423,-67.8098,-222.10207,22.425312
6.0942936,-0.980878,0.41606537,-65.14907,-216.30075,9.638366
9.500812,-1.7742321,2.4720297,-62.894028,-187.79509,9.546772
10.188263,-2.3606105,4.1026473,-70.608955,-158.46686,19.269798
9.18358,-2.6195617,5.4545317,-68.651924,-131.61838,25.161781
8.926008,-2.6417575,6.8816056,-66.94236,-113.07741,29.090542
8.589662,-2.7883475,7.7406683,-62.658306,-82.66679,43.432606
8.722165,-3.6858468,8.0853195,-56.845833,-51.88349,46.30638
8.348591,-4.7874894,7.7780504,-47.49902,-27.77781,54.124294
6.9012156,-6.113968,7.302724,-24.414804,-11.896702,50.05831
5.350853,-6.1637683,6.868232,15.933642,-4.200282,40.338543
4.716378,-4.667298,6.4909277,38.679447,2.6178794,37.434578
4.543477,-3.1105502,6.145946,42.851814,12.87647,44.614143
3.9446385,-3.3267605,5.042639,39.845894,29.875237,64.90169
2.6966414,-4.80976,3.4255548,43.87409,38.71004,81.01438
1.2771926,-6.5054493,1.7478285,72.84225,42.407143,79.59261
-0.4115507,-7.7312365,-0.05246902,97.65044,37.01705,74.20109
-1.4869579,-7.649957,-1.0317472,114.65228,26.02321,72.9159
-2.319771,-6.892733,-1.7658463,127.58951,16.409676,80.82545
-2.9709206,-5.4894266,-2.3156884,136.86917,7.3454285,93.38691
-3.169825,-4.1937237,-2.6166778,141.89713,-3.3692904,98.89119
-1.9875351,-2.2935603,-2.3189318,148.53223,-5.891562,104.40913
-1.071027,-0.46137407,-1.9426414,147.70448,-1.503558,107.55472
-0.58516157,0.49437508,-1.8400209,148.25839,4.4855094,104.27741
-0.8205248,1.1353633,-2.1010315,142.95952,7.0991583,100.361626
-1.127843,1.5409048,-1.9752412,138.8489,7.753885,92.39929
-0.41726854,3.316,-2.0853086,132.83061,1.0476314,80.81529
1.3847386,3.8275986,-1.7017293,111.932976,-0.6555626,77.30728
2.8547025,3.958639,-1.4874145,97.451775,7.9486756,89.44959
3.4503963,3.6673393,-1.4890195,80.52126,17.777536,94.74034
2.7140265,3.5560102,-1.5620551,81.069954,24.432037,77.153015
1.9031417,5.0139246,-1.9136297,77.76316,28.500929,58.782246
1.4160634,7.005489,-2.3691692,64.93362,23.26176,46.315258
1.2886617,8.260924,-2.622307,43.784798,25.24145,42.597027
1.0450219,8.407639,-2.9672835,25.209423,14.016026,30.02171
1.3605274,8.225275,-3.1752748,8.679892,3.8656688,20.19388
2.0671747,7.9707246,-3.4155023,-6.8298116,-3.0716543,6.709799
2.59849,7.843442,-3.0655057,-18.973751,-3.5842323,-8.718074
3.1924045,8.61034,-2.7566776,-34.951176,-0.22998336,-22.081371
3.125427,8.714875,-2.2901428,-51.14045,5.341026,-31.888468
2.899838,8.94436,-2.163357,-73.15573,6.820175,-46.450146
2.6266985,8.491817,-2.0600772,-90.88241,6.5752745,-58.575623
2.611717,8.142793,-2.088921,-98.95131,6.055884,-71.53338
2.4250505,7.528319,-2.2285123,-118.082184,8.339344,-78.973015
2.6533747,6.634759,-2.33144,-130.57825,6.999771,-96.456825
2.7016969,5.817195,-2.5474281,-141.74707,15.715263,-115.634445
2.4725063,4.9723783,-3.043252,-151.5361,21.685514,-121.66764
1.7878383,3.8684812,-3.5231013,-154.01358,17.000563,-129.23526
1.5834572,2.977435,-3.4714172,-159.0331,11.457923,-141.47531
1.662161,1.9730331,-3.5662003,-163.03552,8.540333,-148.69705
1.0902301,0.46393865,-3.439055,-167.72739,1.9512897,-150.13751
1.0434033,-2.1904647,-2.9537632,-172.62059,-11.637652,-150.72418
1.6780119,-4.4058137,-2.3035867,-166.7097,-17.148582,-145.41747
2.3279486,-6.604,-1.628798,-156.3497,-16.934202,-138.03835
3.0684462,-8.046996,-1.0014075,-149.91267,-6.8868556,-121.330956
3.0259418,-9.230616,-0.44931534,-131.64781,6.3046613,-100.94492
1.6614776,-10.07989,0.23531039,-108.33312,11.769211,-86.42984
0.40807617,-9.570536,0.7731277,-85.77462,12.640438,-71.99785
-0.42296582,-8.963625,0.82353604,-72.577446,11.460625,-56.74091
-0.95942897,-8.6497965,0.7859783,-56.93276,9.416708,-40.97318
-1.38715,-8.657648,1.1559429,-39.94353,12.894683,-22.929155
-1.6802212,-7.7998323,1.2424701,-20.915527,17.06554,-8.912401
-2.1613395,-6.943507,1.0966635,-4.5137334,7.0423384,-7.050501
-1.6734029,-6.191457,1.1682159,8.06587,-2.63924,0.057095483
-1.1489271,-5.4095616,1.4048223,15.950318,-0.3869574,14.169697
-1.0593944,-5.1630573,1.464382,26.104597,-1.393981,18.855911
-0.14196773,-4.7222676,1.7718189,32.870216,0.67389864,34.11956
0.5276284,-4.5857143,1.9376378,36.638023,5.220679,44.41176
0.0,0.0,0.0,0.0,0.0,0.0
0.0,0.0,0.0,0.0,0.0,0.0
0.0,0.0,0.0,0.0,0.0,0.0
