ax,ay,az,gx,gy,gz
-3.3097196,1.8339269,-7.280291,-67.56703,-49.0975,40.594673
-4.413211,0.5980373,-9.01047,-43.591434,-86.570885,12.701699
-4.285172,0.6362171,-9.229758,-34.47434,-121.1071,-4.328316
-3.1491764,0.3976933,-8.9730015,-37.85826,-142.93132,-12.774213
-2.1013489,-0.05818893,-8.18676,-51.123856,-159.48589,-6.298175
-1.3671911,-0.11610692,-7.3683066,-67.61126,-163.92789,7.9493785
-1.549244,0.3802575,-7.566802,-63.5164,-180.70366,-0.94551826
-0.91432184,-0.04371144,-7.4113703,-48.17331,-197.3675,-24.750748
0.14525627,-0.260567,-6.4197373,-39.322872,-219.33673,-34.619152
1.9354813,-0.5337802,-4.615345,-44.51147,-229.96936,-28.759378
3.4325504,-1.2806194,-2.8191786,-63.372604,-222.63434,-4.555736
4.300394,-2.077469,-1.6240711,-64.936844,-223.98021,0.9419287
5.6449056,-2.2227197,-0.24587886,-54.974392,-224.6095,-6.0101495
7.3312035,-1.8585268,1.6935983,-51.65737,-219.09962,-7.4529147
9.172556,-2.033223,4.1505656,-49.327816,-181.9111,0.65667325
9.775237,-2.760872,5.5496926,-43.023125,-144.45927,10.29877
8.609131,-3.3071983,6.2613997,-29.988838,-122.339035,8.313209
8.977771,-3.4674528,6.576492,-22.998863,-113.15222,5.159146
10.371149,-3.495288,7.554101,-2.2105517,-108.51631,0.8555022
11.5177,-2.4556167,8.85387,14.757546,-85.08,-7.1561027
12.401316,-1.7149519,9.856386,22.78688,-39.164253,-13.779423
12.005505,-0.38426077,9.87774,33.52188,-4.7001867,-16.756332
11.069691,0.22816607,9.264328,30.807306,26.66616,-18.524017
9.374234,0.064946815,8.036435,29.228558,54.66115,-19.745987
8.06076,-0.15894043,6.6558256,26.238926,67.86089,-18.52634
6.75591,-0.5688191,5.585983,26.285128,85.93872,-22.855793
5.5809226,-0.9497539,4.613448,31.08922,98.85993,-29.454632
5.2347183,-1.1623676,4.006422,33.590504,107.87157,-37.644978
5.5315504,-1.3817121,3.0587287,45.59715,114.6561,-42.141167
5.8424845,-1.2500461,2.6920762,48.753506,123.45186,-36.04847
5.3747363,-0.69278586,2.2776186,48.095768,132.48589,-28.497776
4.7695255,-0.6169888,1.7386143,42.331665,147.17484,-20.072958
4.1283355,-0.4636504,0.6846766,44.304893,154.35188,-17.16453
3.3267386,-0.36015606,0.18609104,44.182434,159.61748,-23.578415
2.5543408,-0.1465059,-1.0165398,45.4377,164.56215,-27.902412
1.5209047,0.10754493,-1.6630472,45.53162,163.88396,-36.298965
0.6492519,-0.11056498,-2.9959264,46.752666,156.50027,-36.466583
-0.39316893,-0.48861134,-3.7302258,43.425476,151.134,-33.303917
-1.2852045,-0.474585,-4.39808,42.047447,140.99083,-25.424389
-2.0729241,-0.41728592,-4.8444915,43.11921,129.95708,-18.83026
-2.9360323,0.16669616,-5.4437103,45.052116,112.970535,-24.77641
-3.4108615,1.4387978,-5.655675,48.396282,93.37368,-37.04751
-3.191653,2.4006686,-5.844297,44.056522,78.24006,-46.337605
-2.937047,2.7615976,-5.5577555,34.54297,69.064835,-44.620342
-2.1783075,2.7171693,-5.4231153,26.420956,58.97019,-38.601498
-1.8457755,3.4526057,-5.4089065,17.613085,54.48205,-34.212666
-1.8124346,4.0455737,-5.3153086,12.840975,45.247814,-45.211052
-1.6279972,4.6212645,-5.325396,4.2842083,43.85478,-54.86758
-1.5216857,5.033038,-5.1630783,-10.175025,38.897778,-60.901936
-1.5873543,5.103817,-4.956359,-23.938713,28.578598,-61.656445
-1.5912404,5.3522005,-4.2801123,-54.523186,16.198551,-51.39106
-1.5627456,5.00601,-3.61993,-73.960075,14.434045,-46.094997
-1.4744642,4.2351356,-3.4305954,-82.31153,13.359349,-56.043526
-1.2914137,3.26041,-3.294817,-78.37286,9.090914,-71.39939
-1.034299,2.6922371,-3.239041,-89.61182,7.4782386,-76.42635
-0.60980004,1.6787753,-2.8558304,-105.46642,-2.3462114,-59.527473
-0.2143577,-0.20248659,-2.2482076,-116.46302,-1.6914525,-48.059338
0.18646123,-2.1483173,-2.2591405,-113.00332,-0.9373412,-43.369366
0.18266124,-3.6823363,-1.9338937,-108.00171,-0.03033781,-39.52297
-0.23367612,-4.4938693,-1.7152078,-92.40698,6.0617332,-36.065884
-0.95363927,-5.352308,-1.8837757,-79.19108,3.697846,-39.035095
-1.3007152,-5.7280273,-1.6671184,-52.389156,2.3775706,-34.935394
-1.7160777,-6.000073,-1.9018542,-34.975044,-8.136948,-26.714386
-1.9385352,-5.957423,-1.863472,-27.525675,-13.341016,-17.49745
-2.0730166,-5.679146,-1.7875978,-14.27183,-18.097982,-7.9969797
-2.184365,-5.3064914,-2.0713491,6.3400316,-23.76813,-5.550125
-2.3418489,-4.361496,-2.7802224,17.836285,-33.160122,-1.383816
-2.2121143,-3.557672,-2.9913325,28.14566,-46.139946,1.9555731
-2.0907805,-2.5051513,-3.2819834,31.544899,-54.251736,7.7332172
-2.1664634,-1.4959632,-3.4974608,28.236135,-61.28457,17.669912
-2.3860943,-0.48601133,-3.6785042,21.989525,-69.150154,30.892002
-2.8040724,-0.09161044,-4.1725397,14.3560705,-77.15211,34.683384
-3.4732187,0.03348919,-4.4751577,11.988274,-82.04362,32.815926
-4.413601,-0.10099337,-5.0353513,10.668618,-87.02847,32.31715
-4.7963533,-0.040323336,-5.4818077,7.3361073,-108.34847,33.900455
-5.245954,0.15560748,-5.780679,2.3613124,-133.39145,36.284523
-5.461101,-0.14247125,-6.080114,-8.764275,-163.23547,38.325947
-4.7408986,-0.567066,-5.295255,-4.025531,-185.80367,33.350243
-3.3351908,-0.77189815,-3.8432412,7.764058,-193.57475,29.654514
-1.6687884,0.0076824576,-2.4849403,5.5583596,-197.82018,30.728104
0.09495628,0.48328814,-1.1789112,4.491173,-197.9625,24.950333
3.4319954,0.9172225,1.3216578,2.9675817,-199.68755,15.847695
7.183151,1.9332336,4.1773596,-0.2979405,-193.55742,8.400339
10.981189,2.5698578,6.8648705,-13.076266,-165.42271,7.6923513
13.699951,2.0250452,8.868362,-18.286642,-112.86968,8.506837
14.317053,1.1940471,9.3677025,-14.558785,-46.002678,6.6063766
12.640915,0.04097853,9.140015,-15.504571,-12.133206,1.3495538
10.715031,-1.4557245,8.176338,-13.283016,10.829879,10.074482
9.516072,-2.6262,7.271678,-11.473202,28.0303,18.583662
7.921502,-3.464056,6.2950845,-3.2848423,47.241947,17.904442
6.406393,-4.16273,5.012741,16.3432,61.236538,8.594739
4.1822953,-4.911556,3.0670953,36.56329,75.93088,9.525503
2.605073,-4.957581,1.6257919,49.869083,81.26722,15.025182
1.4519212,-4.6722307,0.6774816,60.809807,78.5133,21.104355
0.59332114,-4.346195,-0.35747355,72.14425,73.79171,26.631622
-0.26278615,-3.790198,-1.0088563,90.72281,65.631065,23.94808
-0.7004058,-3.6696584,-1.6479273,98.38684,55.507084,25.780548
-0.5452141,-3.3352199,-1.9822578,101.218796,54.528297,34.789433
-0.52965593,-2.7873743,-2.3481922,101.299194,50.08143,45.82454
-0.98802775,-2.3686314,-2.7221868,109.12192,51.64615,54.561016
-1.6087252,-1.7676915,-3.2550383,116.08641,44.301872,59.003735
-1.661926,-0.5196501,-3.6170616,119.439705,31.170805,57.794086
-1.9228717,0.2163316,-3.662185,120.971924,24.9658,54.248608
-1.3201972,1.169675,-3.3985538,115.51382,19.22156,57.61651
-1.394511,2.138319,-3.3593192,109.02411,15.494569,61.046463
-1.1385199,3.0166023,-3.3753734,103.39393,10.005136,58.846046
-0.9855984,4.4280825,-3.1033273,100.31387,4.0065756,49.961952
-0.6181236,5.7648025,-2.7394207,88.579796,-5.476878,43.29757
-0.16588664,6.427475,-2.5305161,74.710594,-8.09534,35.599655
0.12155496,7.168618,-2.5628145,59.578793,-12.919009,29.352007
0.04990697,7.738316,-2.153198,38.04918,-11.842009,27.779587
0.5719941,8.59886,-1.8314074,15.822243,-10.447022,23.813635
0.62551814,9.365873,-1.6653159,-4.4400954,-6.8539715,13.218277
0.45092395,9.771695,-1.6099697,-18.89391,-5.729828,0.18932602
0.12050559,9.876141,-1.8368827,-37.884724,-7.9746413,-16.454586
0.14685366,9.670281,-1.9077407,-57.65919,-19.30879,-32.692432
0.88052696,9.288946,-1.5197622,-78.1603,-23.148108,-36.941933
1.680715,9.045759,-1.2356098,-106.27108,-25.243496,-40.89956
2.0878184,8.623822,-1.2495092,-119.56803,-12.979309,-49.93957
2.3677757,7.9087167,-1.5240283,-132.31015,-3.4640622,-63.65389
2.5680006,7.1645904,-1.9752579,-147.1768,-1.2511876,-74.46444
2.6162,5.1098657,-2.6572657,-174.04848,7.0076275,-69.40784
2.296716,3.0522838,-3.2869096,-190.85252,4.288228,-52.852966
2.0663526,0.41237742,-3.6014652,-196.61607,3.053229,-36.50531
1.8644603,-1.6343483,-3.5330894,-192.72137,-0.27454948,-29.168943
1.917494,-3.6860754,-2.837107,-176.21097,0.97569996,-34.562084
1.4441085,-5.8194923,-2.1787267,-144.84647,4.3798985,-53.745567
1.3805583,-6.7992735,-1.4697961,-120.64519,11.682207,-62.02408
1.1744899,-7.2960114,-0.96717155,-106.91012,12.400487,-49.842567
0.5960945,-7.5441766,-0.64971393,-94.49185,18.453657,-36.37639
0.17609572,-7.173288,-0.21921429,-74.18554,16.227884,-30.872948
-0.6910786,-7.04612,0.028371513,-54.13092,20.54734,-31.382143
-1.2405668,-6.8828764,0.06950386,-36.212517,20.427973,-29.788914
-2.0435858,-6.3124228,-0.14392614,-24.599794,12.235104,-21.216711
-2.2484648,-5.478281,-0.037504368,-14.65937,3.5093784,-15.976263
-1.622044,-4.7267056,0.46995813,-7.396537,-2.3437839,-12.120969
-1.3472196,-3.5413084,0.84048545,-0.85125303,-1.1430625,-7.1993575
-1.3538125,-2.8354254,0.82873327,7.6669264,-0.7962787,-3.3283327
-1.2861631,-1.9905585,0.827604,12.090574,-0.17101729,-2.1067152
-1.2757679,-1.6082194,0.6554158,15.387453,1.6487238,0.7494617
-1.0906713,-1.0013933,0.8958859,13.501504,2.9043746,2.400361
-0.7299793,-0.57798684,0.96696454,12.353142,1.1249051,3.3498244
-0.48517108,-0.12327862,0.9246735,13.354031,4.6943245,5.8645234
-0.46706653,0.021831837,0.8111725,13.236958,8.432254,7.4260187
-0.35091484,0.36482665,0.7260735,11.315454,4.442558,7.8287253
-0.30802715,0.6065667,0.51926124,15.05576,6.0771246,3.3226967
0.16911831,0.68541527,0.4914929,10.170574,8.271599,0.5821895
0.3932624,0.6948816,0.669824,11.619917,6.8282948,5.013953
0.46644294,0.5049572,0.50498384,8.128746,6.694935,12.4610615
0.43035814,0.2594532,0.3273837,13.663898,13.476001,23.820187
0.61936325,-0.22869426,0.14655706,16.043589,22.394505,38.522354
0.20664425,-0.5505699,-0.36774063,26.323637,31.513454,53.026047
0.0,0.0,0.0,0.0,0.0,0.0
0.0,0.0,0.0,0.0,0.0,0.0
0.0,0.0,0.0,0.0,0.0,0.0
0.0,0.0,0.0,0.0,0.0,0.0
0.0,0.0,0.0,0.0,0.0,0.0
0.0,0.0,0.0,0.0,0.0,0.0
0.0,0.0,0.0,0.0,0.0,0.0
0.0,0.0,0.0,0.0,0.0,0.0
0.0,0.0,0.0,0.0,0.0,0.0
0.0,0.0,0.0,0.0,0.0,0.0
0.0,0.0,0.0,0.0,0.0,0.0
0.0,0.0,0.0,0.0,0.0,0.0
0.0,0.0,0.0,0.0,0.0,0.0
0.0,0.0,0.0,0.0,0.0,0.0
0.0,0.0,0.0,0.0,0.0,0.0
0.0,0.0,0.0,0.0,0.0,0.0
0.0,0.0,0.0,0.0,0.0,0.0
0.0,0.0,0.0,0.0,0.0,0.0
0.0,0.0,0.0,0.0,0.0,0.0
0.0,0.0,0.0,0.0,0.0,0.0
0.0,0.0,0.0,0.0,0.0,0.0
0.0,0.0,0.0,0.0,0.0,0.0
0.0,0.0,0.0,0.0,0.0,0.0
0.0,0.0,0.0,0.0,0.0,0.0
0.0,0.0,0.0,0.0,0.0,0.0
0.0,0.0,0.0,0.0,0.0,0.0
0.0,0.0,0.0,0.0,0.0,0.0
0.0,0.0,0.0,0.0,0.0,0.0
