ax,ay,az,gx,gy,gz
0.830822,-1.676862,-3.3724594,20.87409,111.87923,-11.524078
0.86973584,-1.2560673,-4.286274,0.0787082,102.47435,-5.6895766
0.7946673,-0.5346261,-4.6598644,-6.550768,89.60802,-6.9930196
0.5821378,-0.10239113,-5.071863,-15.39456,91.85036,-5.222486
-0.024102826,-0.004889885,-6.0383096,-12.777326,84.66522,-9.37705
-0.56016445,0.14086635,-7.0763226,0.15343317,73.83558,-9.303988
-0.7909952,0.42025933,-7.473144,7.3919625,55.760082,-4.860819
-0.74722403,0.61024714,-8.043587,5.0673,40.41727,-5.0837145
-0.75338376,0.23240775,-8.76341,-0.4457194,23.006798,-9.129812
-0.93569124,-0.07548103,-10.050045,-5.819411,6.888134,-5.4647074
-0.9454912,-0.026865505,-11.155629,-6.478699,-13.909513,-4.75502
-1.3468636,-0.6699184,-11.500138,-9.219105,-43.677784,-7.8356805
-1.2755878,-1.0818138,-12.084091,-13.693058,-62.639477,-5.395564
-1.1026586,-1.2820039,-13.091294,-2.43329,-98.75891,-7.4525385
-0.25229526,-1.4282101,-13.462367,9.665546,-132.42398,-9.837047
0.7702565,-1.1087625,-13.031374,11.870415,-156.6849,-7.332772
1.2996438,0.022688687,-11.948564,4.352503,-188.28032,-19.046103
2.048794,-0.26664442,-11.009278,-15.115329,-210.96541,-15.347041
2.3893957,-1.3644878,-9.749477,-18.433455,-238.50095,-7.4803705
3.0304844,-0.8987998,-8.051415,-22.089174,-245.17194,7.1489143
3.2251713,0.36146033,-6.7662973,-31.277271,-263.56137,8.266672
4.11611,0.036565103,-4.8371696,-37.829033,-280.5295,5.1407547
4.9661474,-0.889878,-2.3755214,-37.48798,-289.06525,-0.9211328
6.233914,-0.8123232,0.47232524,-13.426204,-282.70517,6.254916
8.919189,0.14832848,6.1645927,-27.003014,-266.15854,6.1018686
9.416569,0.22464992,9.297516,-47.91042,-240.28192,8.674137
9.087637,-1.0951157,11.291188,-44.686787,-213.80835,4.2892694
9.248405,-1.1923032,13.552847,-28.594307,-188.93132,8.36838
10.518397,-0.056306757,17.060223,-21.539919,-138.04642,20.586338
11.223032,1.3242451,19.99689,-13.101929,-87.49286,18.947983
11.4407015,1.3962792,21.251657,5.5744486,-25.118282,7.6717362
11.288645,1.1510286,20.873194,19.43942,36.070587,-3.5801659
10.364839,0.945042,18.790573,18.334843,83.20552,2.2237458
8.964734,0.2245004,15.331043,20.471588,147.48354,-0.64950395
7.363265,-1.3328397,10.754369,30.95722,172.85422,2.3438454
6.4953094,-1.8425051,8.358242,40.35001,184.96446,7.419388
5.749648,-2.5477958,6.499614,42.14635,198.01096,16.5477
5.751341,-2.0177114,5.3063617,41.19361,213.39145,30.115498
5.808,-1.4958699,4.021734,53.94787,226.16084,28.276047
6.169069,-0.8899354,2.2039444,50.525433,230.88168,19.825157
6.073943,-1.5696366,0.92680657,49.692673,241.63577,14.321169
5.667597,-2.0836048,-1.2425493,51.434204,255.11346,14.105657
4.693183,-2.4233131,-3.9297483,62.562363,256.71545,11.313796
3.2796776,-2.093984,-6.3160825,77.56104,248.25253,14.307686
0.60374975,-2.221918,-9.446208,91.14807,227.0185,15.244941
-0.67605865,-1.634858,-11.2610655,92.95956,193.15276,7.294556
-1.2977579,-1.3071405,-11.855743,91.0405,164.79263,-12.964993
-1.9689106,-1.5620173,-12.378775,80.65157,122.73398,-17.48139
-2.2491941,-1.367316,-11.968246,48.085922,83.64818,0.60543096
-2.2795022,-0.73191476,-11.4862995,32.87896,46.857666,9.992769
-1.6176319,0.28082487,-10.884366,16.814346,24.274973,14.513494
-0.89805526,0.8769264,-9.133521,1.891885,1.1400995,8.586375
0.081014894,1.1464698,-7.024309,-6.927967,-7.687393,1.1786261
0.5021487,0.71428025,-5.7488704,-2.5045896,-17.026207,-6.2103386
0.23177366,-0.4335585,-4.2144833,-5.249501,-10.786396,-7.3535953
-0.36172578,-0.61429894,-3.4680276,-12.03726,-14.408351,5.0834913
-0.60771585,-0.2258753,-2.8305435,-19.39365,-23.46972,13.424201
-0.8484055,0.42066246,-2.5135167,-17.855644,-34.76646,16.897148
-0.69801664,0.39606032,-1.6096276,-20.790274,-40.6854,20.887676
-0.049386777,1.573385,-0.43691862,-8.478191,-38.997536,18.088316
0.67892,3.7362819,0.6693962,9.898798,-32.451218,5.295458
1.1504322,6.2068977,1.2670596,19.625574,-28.96999,-14.491549
2.0498302,8.761987,2.2740338,10.359125,-33.428898,-32.5855
3.338511,10.137463,2.7738957,-6.9044385,-25.386219,-67.96747
4.2749133,9.87542,1.5369372,-6.974391,-13.952962,-98.41994
4.5261636,9.174055,0.055471115,-6.788138,-7.572407,-122.23429
4.295011,7.9351025,-1.3315201,-14.125423,-14.734448,-135.6186
4.39816,6.873559,-1.7983067,-22.21002,-21.643,-140.60667
4.2759204,6.144621,-2.4466178,-38.844246,-24.692059,-144.40948
3.8454068,4.8777404,-2.5027235,-31.115086,-24.005371,-150.4004
3.2076106,4.5177536,-1.8264043,-28.899155,-21.373814,-163.92094
3.0924814,4.115745,-1.8392513,-33.408764,-26.327911,-177.00044
3.1792228,1.9166982,-1.4776689,-45.029293,-18.441975,-185.97043
2.4897177,-1.1536065,-1.9655365,-42.257477,-21.11918,-193.2073
1.9883772,-5.482392,-1.9441676,-29.722532,-16.745682,-184.83768
1.8107688,-8.514207,-1.8438008,-26.031517,-26.184479,-172.8056
1.5431086,-10.230729,-1.7768462,-20.748709,-25.923405,-140.13858
1.1663631,-11.385032,-2.2950366,-5.502284,-25.384033,-116.51929
0.817584,-11.988164,-3.0136285,14.5120125,-28.103865,-80.43833
0.0688963,-11.901518,-4.1642036,27.285528,-36.59234,-56.514442
-0.1476991,-11.470763,-5.472597,35.561115,-44.3617,-25.224072
-0.7796016,-10.043104,-6.317834,48.06915,-61.083813,-0.1757145
-0.8357259,-6.650302,-6.1776133,43.244328,-66.13239,12.999299
-0.91783243,-4.6340256,-6.2874694,30.678783,-83.03972,18.442804
-1.1059846,-2.7466497,-6.9348736,30.798622,-94.21737,11.842526
-1.5083253,-2.9402456,-8.315236,26.002537,-114.10695,6.556635
-1.9009446,-3.4119675,-9.289452,25.495785,-137.32483,13.948045
-1.6380832,-3.2882202,-9.85847,21.737202,-165.0339,15.981513
-0.8210496,-2.5019543,-9.602061,2.9501288,-202.15266,13.783777
0.047240667,-1.4704486,-7.424809,-25.68454,-237.36426,14.887545
0.9075891,-0.4056244,-4.1625743,-59.57364,-252.15419,30.753635
1.6457902,0.2953154,-1.1206485,-68.71911,-253.11377,19.82787
3.002648,0.28075403,2.2002244,-68.29773,-247.82683,6.3982882
4.774281,-0.71305394,5.774195,-66.75238,-226.54858,1.0616171
6.7466264,-1.8967603,9.599651,-50.822433,-202.6928,13.1235285
7.566441,-3.3321395,10.635853,-37.72251,-164.78738,18.012455
8.820293,-4.260332,11.605255,-25.344385,-142.13672,29.323414
10.2818,-5.2315736,13.2564335,-20.935421,-112.35869,37.166153
11.346484,-5.280875,14.534443,-10.343439,-39.69281,57.791412
10.062041,-5.167369,13.869037,3.575444,4.4572577,66.339615
8.3570595,-5.291459,11.132606,28.998861,46.397972,81.305244
6.533262,-4.8570557,8.449915,63.005535,64.48842,78.71392
5.695475,-4.3352976,6.793722,71.23312,71.84763,91.40229
5.3297215,-3.7033002,5.5355844,74.27399,90.06044,105.22869
3.8393335,-3.147101,3.1516223,82.44291,111.08455,114.07844
3.0258312,-3.3868892,1.0854384,82.087,116.65515,118.734116
2.336485,-2.480547,-0.5977864,90.54779,112.08523,129.8256
2.2261198,-1.1896137,-1.1581053,91.49876,102.98355,140.85718
2.4686158,-0.11784426,-1.8308938,81.49611,108.784134,143.29883
2.1037586,0.31290254,-1.95241,72.42595,105.917244,144.27771
1.388639,0.105524525,-2.8368793,72.70497,109.10212,138.06221
0.41696924,-0.7930133,-4.3873725,78.446785,104.59217,142.74072
-0.4394347,-1.0139656,-5.94901,85.6203,90.16998,159.81468
-1.0076252,-0.5693547,-6.923659,82.24876,61.221947,170.96062
-1.1618395,0.6386067,-6.9593625,72.647964,38.878952,175.79457
-1.1179467,2.4606752,-6.614033,63.057495,20.865286,164.3575
-0.78359616,3.5345523,-5.407924,63.120815,12.466272,150.70695
-0.37783647,4.515667,-4.484919,66.2644,-3.397488,129.81592
0.10189061,6.0358605,-4.0231147,61.696625,-5.4710646,106.52939
0.44072413,6.7080026,-3.363588,46.46419,-15.039274,93.421524
0.5955657,6.407331,-3.1883192,36.852516,-17.702253,74.79796
1.0548693,6.3847275,-2.7265956,23.756365,-21.569542,68.55189
1.7803684,7.11638,-2.2983785,8.448204,-24.436375,51.19271
2.298834,8.130966,-1.3014779,-5.2417583,-26.773243,31.706707
3.129549,10.255398,-0.39582476,-16.53566,-21.476467,7.801702
3.489621,11.374933,-0.15858896,-29.61171,-11.659318,-19.60177
3.697052,11.161029,-0.17994869,-37.547802,-1.6904628,-54.408413
3.5729775,11.266125,-0.5697769,-44.94531,-0.8987928,-79.06454
3.7277179,11.903228,-1.1895373,-61.725746,-3.0534267,-110.292465
4.1349926,12.763051,-2.0251312,-75.232834,-2.2909334,-135.37988
4.741925,12.691817,-2.8692148,-91.81646,-3.032157,-170.23378
5.471777,11.559331,-3.2639105,-99.62506,-2.8645265,-208.73535
5.905091,9.259431,-3.451347,-106.37609,-8.890575,-232.68279
6.285439,7.1902223,-3.632777,-119.65773,-14.521788,-237.76021
6.418501,4.749185,-3.9740603,-121.72561,-21.201824,-244.69191
6.4420233,2.7482996,-3.5851629,-126.98245,-24.75787,-246.5208
6.4137993,1.3726285,-3.26883,-127.49228,-21.430897,-248.84113
6.084003,-1.0320472,-2.706614,-127.31526,-23.563934,-253.01717
6.0347733,-4.1263695,-2.3247323,-123.95935,-31.157715,-249.51694
6.5493684,-8.8631,-1.4321901,-126.244415,-32.806274,-225.96382
6.676888,-11.9469595,-0.72315794,-122.91771,-26.175941,-190.4748
6.050057,-13.040155,-0.51638615,-104.327065,-15.50189,-152.44046
4.276906,-13.693505,-0.7646941,-79.28891,-13.874083,-134.1253
3.1117606,-13.5505,-0.74746907,-53.110104,-13.652695,-104.77541
2.130964,-12.335064,0.17300761,-35.910122,-7.4956822,-81.2267
1.34088,-10.7295475,0.35111192,-26.794294,6.0884457,-50.66638
0.34204182,-8.904185,0.3841734,-27.183739,12.707938,-30.76673
-0.41114593,-7.247012,-0.07372226,-16.140316,17.390507,-21.329838
-1.0755277,-5.742313,-0.19413012,-10.9443035,13.122137,-14.491004
-1.2999274,-4.2885027,-0.06846865,-18.151625,12.192468,-5.160649
-1.2362878,-3.9948487,0.24601011,-22.829674,7.1641245,3.772196
-0.9788601,-4.2440968,0.5679791,-23.06124,13.117826,12.019102
-0.56923354,-4.4803085,0.7391181,-19.996103,14.530365,18.539871
-0.349455,-5.1276426,0.7811934,-11.882264,12.9001255,31.535208
0.54210275,-5.7933683,0.8644557,-9.195282,11.694291,44.638897
1.2026776,-6.496471,1.5260601,-4.4578586,14.526522,49.741306
1.4133761,-6.4449244,1.8282257,0.319515,27.227938,65.01826
1.6873678,-5.864996,1.7447096,17.920424,39.824474,79.533936
1.9068587,-5.241756,1.6969047,31.76459,42.70658,87.19276
2.1692727,-4.4366837,1.6399935,31.334229,49.626457,94.87522
0.0,0.0,0.0,0.0,0.0,0.0
0.0,0.0,0.0,0.0,0.0,0.0
0.0,0.0,0.0,0.0,0.0,0.0
0.0,0.0,0.0,0.0,0.0,0.0
0.0,0.0,0.0,0.0,0.0,0.0
0.0,0.0,0.0,0.0,0.0,0.0
0.0,0.0,0.0,0.0,0.0,0.0
0.0,0.0,0.0,0.0,0.0,0.0
0.0,0.0,0.0,0.0,0.0,0.0
0.0,0.0,0.0,0.0,0.0,0.0
0.0,0.0,0.0,0.0,0.0,0.0
0.0,0.0,0.0,0.0,0.0,0.0
0.0,0.0,0.0,0.0,0.0,0.0
0.0,0.0,0.0,0.0,0.0,0.0
0.0,0.0,0.0,0.0,0.0,0.0
0.0,0.0,0.0,0.0,0.0,0.0
0.0,0.0,0.0,0.0,0.0,0.0
0.0,0.0,0.0,0.0,0.0,0.0
0.0,0.0,0.0,0.0,0.0,0.0
0.0,0.0,0.0,0.0,0.0,0.0
