ax,ay,az,gx,gy,gz
-0.009922847,-0.12469013,0.13858363,7.846433,11.004901,3.8103523
-0.32665914,0.2504494,0.34058228,6.1005664,11.141678,-1.1831286
-0.12698004,0.29329377,0.25256476,1.2278875,10.258199,-7.760284
0.036006242,0.41290352,0.47766373,3.0020158,7.373686,-1.9588792
-0.13602328,0.46009165,0.5178878,0.08041918,5.9565625,-6.8347044
-0.053993836,0.36896178,0.3468048,-6.296946,5.962974,-4.999626
0.15421198,0.26139736,0.5768282,-13.481516,7.8781233,-12.1405735
0.24577576,-0.087416954,0.32413763,-14.034464,6.8927393,-7.3659415
-0.146241,-0.08402619,-0.23556608,-15.476313,7.9672365,-6.6212177
-0.08599022,-0.7042047,-0.25329283,-11.101811,7.6337075,-5.810322
-0.12553765,-0.96938837,-0.24370106,-13.186908,6.7053022,2.3816123
-0.126765,-0.78118026,-0.0037622005,-7.9305882,6.0737658,1.0019178
-0.33428976,-0.6232472,-0.09680512,-0.35492826,0.7593785,4.291967
-0.08432029,-0.31974262,0.44174963,2.9815784,1.5895803,-1.4396701
-0.010062009,-0.090927206,0.43457094,4.009602,-0.29436922,-0.051992536
0.02378235,0.33956695,0.7062926,5.3265257,2.2926207,-0.86579853
0.19572578,0.1546104,0.7271615,3.5131998,13.333317,-2.0135956
0.352725,0.53497344,0.6448741,-1.5482124,7.2034698,-2.9120717
0.24734218,0.3254256,0.121741235,-5.7542677,7.124069,-2.863359
0.2394959,0.17848417,-0.16000056,-10.138539,11.818783,-4.4835744
0.2676526,-0.27002153,-0.22398281,-12.338915,11.726713,-0.47356546
0.053390168,-0.40491676,-0.651399,-13.193407,5.9000626,-0.7309625
0.00607308,-1.2325126,-0.91261744,-9.1339445,7.05305,0.5169997
-0.18678269,-0.5996443,-0.6373436,-1.1180792,-4.6779017,8.299116
-0.21243456,-0.05983886,-0.8144607,0.2452035,-3.249254,4.5460243
-0.3047856,0.10794361,-0.525874,2.8747778,-5.494131,3.8559046
-0.38005477,0.43615797,-0.17368901,0.94350696,-3.14201,4.167094
-0.15417667,0.7243073,-0.31240678,1.9477249,-3.541095,0.6914928
-0.1062804,0.8581674,-0.26319858,-4.023337,-9.9149475,-0.31836045
0.11216782,0.9816719,0.13021427,-12.801096,-6.782359,-3.0032434
0.23830588,0.36816797,0.096581325,-17.165524,-4.967741,-2.793475
0.11730209,0.018084347,-0.07839804,-18.904608,-5.841366,1.7619473
-0.13184884,-0.3977313,-0.21876375,-11.771542,-4.049472,2.1136236
0.07968289,-0.73407894,-0.247796,-5.4329,-7.149867,1.9567412
-0.02130558,-0.74843997,-0.07712252,-3.6310253,-12.436473,-1.109448
0.0061828084,-0.6863801,-0.062103473,-0.62474895,-5.229727,4.065879
0.06708497,-0.4190508,-0.39764827,6.277521,-12.169576,7.400221
0.08812641,-0.36979425,-0.09833597,7.898104,-8.326003,5.201883
0.62728375,0.19751397,-1.3311381,5.271384,-9.374462,6.0086656
1.4065272,-0.34218553,-2.8737156,-2.726368,-15.275694,6.7827578
2.6251988,-0.84598464,-5.960599,-24.715073,-18.971216,7.0652905
3.4533098,-2.7931771,-9.317484,-47.241623,-36.918587,18.40649
3.03811,-4.818147,-13.3214245,-58.544655,-69.87457,29.976044
2.1928492,-5.9668775,-15.102113,-44.66684,-101.99738,26.882433
1.7066075,-5.899672,-15.768397,-29.089064,-134.80089,17.463657
0.9797794,-5.0595145,-15.84337,-16.295498,-173.33449,24.675415
0.84395504,-3.8870993,-15.607651,-22.350872,-223.03494,32.111675
1.0204694,-2.9224632,-13.2217245,-35.018913,-262.63077,45.465515
1.5349423,-1.735792,-10.060283,-42.01213,-290.0916,54.396423
3.4605465,-0.75881934,-4.873675,-49.85786,-306.30887,57.93911
7.0762467,-0.4580637,2.2083497,-61.151295,-304.9607,60.90017
10.171381,0.011508472,8.97467,-63.554127,-262.1306,52.881714
11.557912,0.33402282,16.154064,-51.2542,-211.98112,39.37443
10.694341,0.25105733,19.039637,-27.612547,-153.92792,27.379633
8.755933,1.2278625,20.805862,-4.110999,-107.179756,23.125954
6.6187673,3.6569777,21.229431,10.620916,-61.454212,12.519908
4.7018094,5.624368,21.308363,12.830557,-12.514982,7.1300607
2.7514215,7.9279885,19.984684,10.936756,20.136515,-5.620584
2.4795384,7.642288,18.792383,21.812769,50.270252,-17.834219
3.193369,6.654174,16.987778,30.50332,82.6656,-27.435299
4.0853405,5.405169,15.474826,31.046757,118.44457,-31.606066
4.604538,3.6412652,13.487759,35.45528,150.43636,-34.9762
4.683492,0.75265867,10.063159,46.05538,178.47977,-34.574757
4.440512,-1.481684,7.1663475,57.64781,204.93518,-31.41563
3.6548858,-2.7450912,4.348984,68.559235,221.56993,-25.67469
2.7396631,-3.5093806,1.1386105,66.364914,232.82251,-17.43575
1.6859002,-4.1898975,-2.0021625,63.021183,224.62875,3.3683717
0.9758536,-4.823586,-4.627511,55.060078,214.57758,20.288342
0.55856955,-4.894287,-6.227484,58.54275,196.51248,30.102667
0.5749058,-5.4336996,-7.2247887,52.541317,182.84146,39.572525
0.3910563,-5.584787,-8.215305,52.056786,160.74135,56.6162
0.0045609195,-4.87404,-9.032653,61.501667,127.67228,67.70517
-0.020705525,-3.4549854,-9.1210375,77.15001,96.004005,66.272705
0.093949065,-1.6512063,-8.9864435,99.13988,62.561394,56.946716
0.8792509,0.51962507,-7.8836546,129.86441,34.520756,29.306286
2.2346683,3.9752913,-6.897419,153.25897,12.951256,-5.1000133
4.2125154,7.6429124,-5.553879,138.20665,2.0479925,-47.23092
5.5808544,12.064158,-4.6194863,81.04642,6.504065,-60.53466
5.106328,13.375758,-5.907659,6.706934,-0.071822084,-68.98091
3.5708823,13.527858,-7.4290514,-37.51767,-12.75935,-92.61606
2.4696596,12.408787,-8.032587,-48.64822,-35.002056,-131.7119
2.0155714,11.527202,-7.896207,-38.110195,-60.237366,-181.45323
2.4454455,10.5746765,-6.387869,-40.493557,-83.05711,-219.93085
3.5618854,8.556947,-4.3620214,-59.63261,-97.1333,-240.63843
4.8762813,4.69036,-2.721396,-91.7597,-95.130585,-242.93213
6.2686353,-0.9365661,-1.0139232,-119.871666,-92.129944,-226.12494
6.6388226,-6.8569846,0.08639054,-109.9653,-77.461044,-198.7581
6.0316076,-11.949122,0.05296211,-77.45515,-62.77497,-178.29349
5.4647493,-13.8830805,-0.13555254,-40.832466,-56.236153,-154.14081
4.790925,-14.371805,-1.4588144,-20.185898,-55.599506,-121.27188
3.6260402,-13.683814,-3.5970159,-4.11491,-56.229595,-84.37791
2.599072,-11.232645,-5.628744,29.248302,-64.23349,-60.605488
0.32755437,-7.305545,-8.949498,41.354427,-93.28769,-48.481285
-1.512099,-6.1200533,-11.438023,36.974537,-127.75639,-32.793087
-2.6695926,-5.7276945,-12.976612,17.193903,-175.40207,-9.592096
-2.879083,-5.2784986,-13.426497,-1.623767,-221.85097,9.758444
-0.943586,-5.2304215,-11.575493,-9.150267,-257.26468,29.991282
1.5255808,-3.8211799,-8.288135,10.133558,-256.17816,23.930199
2.7754426,-3.0201914,-5.3280416,19.099985,-250.81857,25.79652
3.7940025,-2.3037987,-2.8524063,13.881058,-249.79903,35.226307
4.9400473,-2.3139927,0.20209625,4.8230143,-245.2426,42.222206
5.5870886,-2.8188694,2.6379802,2.9001744,-221.0981,44.234974
5.7683215,-3.118266,5.265734,4.284354,-198.53848,45.25145
5.700278,-2.83632,6.8903995,4.913268,-175.70409,46.724842
5.425084,-0.9368827,8.64275,12.470334,-156.2411,38.819553
5.064414,1.1400172,10.069172,11.376847,-130.06863,33.096325
4.566435,3.3828175,11.566635,1.5704454,-94.55732,15.793611
4.742185,4.4318566,12.575688,-13.50273,-62.330276,9.004461
5.202943,4.167816,13.456321,-27.080193,-31.798256,4.3409624
5.5895047,3.1098993,13.030889,-38.1297,-0.71076727,-3.4898522
5.23338,0.97621936,11.954635,-38.376053,26.012629,-9.207319
4.554255,-1.868543,10.352997,-23.229298,61.772076,-1.1230197
3.7420173,-4.7211976,7.907077,-11.288076,78.49095,2.941506
4.058258,-6.568044,6.548434,9.289524,97.09382,14.7795105
4.7394395,-7.3689723,5.9756308,28.506,116.40465,25.874956
5.388545,-7.2727656,5.216778,37.62968,146.462,45.649055
5.370217,-6.925692,3.2529547,48.972622,173.58052,79.40315
4.283141,-7.170241,0.69156045,61.384678,188.83534,100.94016
3.1903906,-6.5933523,-1.145838,65.46436,192.21019,140.66707
2.1418695,-5.3665714,-2.4871025,62.62238,190.35951,167.01164
1.3089316,-3.9503782,-3.9474616,60.019722,183.01955,187.36586
0.7448997,-2.665057,-4.8269477,53.02809,158.11868,204.51765
0.69177836,-0.53687537,-5.3923507,38.995,146.9985,219.11856
0.5177676,0.5826592,-5.4675913,37.46803,125.450195,217.75237
0.17790112,1.5111347,-5.9724016,46.501137,106.54718,218.3897
0.07032167,2.6103678,-6.538701,60.32262,86.84433,201.37778
0.49132672,3.4960103,-6.2542152,85.19516,70.18731,176.34436
1.1678802,5.361645,-6.0033092,92.18474,66.46143,167.34398
1.2976824,6.9781284,-5.9640923,91.40294,63.44306,152.0138
0.8317143,8.040635,-6.823614,95.38666,61.425022,136.41231
0.37801898,9.690032,-7.9441295,99.03307,38.593678,115.34058
0.2239662,12.094218,-9.041078,111.27029,1.3147146,54.382668
0.7754788,16.291779,-9.940059,106.110275,-39.086845,-7.4916577
1.5139307,19.804054,-10.110054,66.25433,-87.83003,-74.95346
2.975263,21.222189,-9.634022,-7.1227,-107.18096,-118.56012
3.5923164,19.309376,-10.274124,-81.16432,-126.83899,-143.44771
3.1902368,16.349648,-11.772384,-122.061264,-160.76064,-187.7898
3.854504,12.749931,-11.745217,-112.791435,-188.62183,-233.9186
5.9589696,9.378214,-9.595527,-111.75448,-220.44614,-268.85947
8.5098095,5.9103394,-6.254092,-136.062,-233.82297,-273.8214
10.165768,1.7647471,-2.5623746,-155.4636,-231.2342,-273.43964
11.233743,-3.6416342,0.67790246,-149.72882,-213.57442,-255.15753
13.04899,-10.7313175,5.7643747,-125.67935,-187.9738,-240.85065
13.720995,-15.022863,9.631347,-95.51347,-138.95004,-205.40024
11.910582,-17.018957,11.265537,-74.12473,-88.60824,-155.40012
8.893227,-16.789919,10.692941,-57.930244,-50.66298,-104.43992
5.997645,-14.704688,9.033858,-32.41108,-15.1202345,-59.436085
3.2439208,-11.643452,6.358481,-16.324974,6.8615813,-42.25786
1.1816121,-9.011438,4.127114,-7.727473,16.868668,-20.921572
-0.11763316,-6.600456,2.5635052,-6.376736,25.3496,-9.426406
-1.1409788,-4.946399,0.6487614,-9.058884,25.790455,-0.5223426
-1.4945351,-3.878229,-0.010004621,-9.200971,30.028202,17.058506
-1.5990367,-2.6438296,-0.4171518,-6.008653,24.025303,19.525434
-1.3400294,-1.4598365,-0.33968294,-0.0043309927,22.178999,17.29818
-1.1916571,-0.697429,-0.18363458,-4.315614,22.468384,23.370554
-0.90089244,-0.5452015,0.004439691,-5.752,20.294662,20.325636
-0.67394936,-0.3059812,0.3099651,-9.548332,21.432476,22.898432
-0.24693602,0.006504426,0.50586456,-13.299152,28.412905,23.96662
-0.23716544,0.13742447,0.53232837,-16.748821,22.566694,27.498905
-0.4549521,-0.052940622,0.45877212,-12.924555,22.702347,20.920652
-0.41514534,0.47650194,0.55953544,-9.398374,17.3369,18.177538
0.0,0.0,0.0,0.0,0.0,0.0
0.0,0.0,0.0,0.0,0.0,0.0
0.0,0.0,0.0,0.0,0.0,0.0
0.0,0.0,0.0,0.0,0.0,0.0
0.0,0.0,0.0,0.0,0.0,0.0
0.0,0.0,0.0,0.0,0.0,0.0
0.0,0.0,0.0,0.0,0.0,0.0
0.0,0.0,0.0,0.0,0.0,0.0
0.0,0.0,0.0,0.0,0.0,0.0
0.0,0.0,0.0,0.0,0.0,0.0
0.0,0.0,0.0,0.0,0.0,0.0
0.0,0.0,0.0,0.0,0.0,0.0
0.0,0.0,0.0,0.0,0.0,0.0
0.0,0.0,0.0,0.0,0.0,0.0
0.0,0.0,0.0,0.0,0.0,0.0
0.0,0.0,0.0,0.0,0.0,0.0
0.0,0.0,0.0,0.0,0.0,0.0
0.0,0.0,0.0,0.0,0.0,0.0
0.0,0.0,0.0,0.0,0.0,0.0
