ax,ay,az,gx,gy,gz
-0.5094798,-0.29675072,-0.68110704,-5.6809406,-6.264769,11.236279
-0.5053284,-0.6957028,-0.22369954,-12.866243,-13.457889,27.99722
0.6352321,-0.2982001,-0.050208822,-6.0418763,-8.205509,23.446817
0.9675177,-0.19880229,-0.12896332,3.0688584,-11.392108,7.8966494
1.1690816,-0.202978,-0.53232604,11.252675,-11.042965,-5.691288
0.69520044,0.11120427,-1.4167895,14.363546,-22.290041,-19.445486
0.44082275,0.48981953,-2.38984,7.421797,-21.31752,-19.215889
-0.04778339,0.53864896,-3.3768706,-0.5365566,-19.904488,-7.639298
-0.49523836,0.31011188,-4.5042644,-9.66692,-22.286924,0.08462137
-0.63999844,0.15612805,-5.722952,-15.866655,-26.093979,3.6747217
-0.6062411,-0.57205164,-7.052727,-12.108645,-30.346798,2.191532
-0.7323262,-0.8481118,-7.9666166,-0.6565442,-41.445553,-3.4151409
-1.0568397,-1.0158994,-9.476221,7.8571053,-59.669235,-5.644401
-0.62835443,-0.51801944,-9.66886,6.2309217,-70.76241,-4.9369106
-0.14569889,-0.29841644,-10.006804,-5.533619,-81.975945,2.054841
-0.080268145,0.45359904,-10.349549,-26.015453,-86.91368,5.76533
-0.05009832,0.13457587,-10.049874,-47.860428,-97.69501,15.191612
0.09784047,0.29509628,-9.574472,-52.5524,-108.71505,15.927073
1.0171742,1.0662448,-8.954354,-55.60866,-118.01281,3.210182
2.3169823,1.3709886,-8.4362335,-55.33812,-115.56441,-12.448535
3.0361288,1.9247094,-7.7636046,-82.38762,-113.45779,-21.1735
2.9578943,1.8409927,-6.850132,-140.15627,-107.2172,-20.388937
1.3969901,-0.22294119,-6.1685266,-169.01646,-110.41424,-17.813124
0.6700568,-2.0361865,-5.573157,-172.16187,-134.3156,-22.005451
1.8382387,-4.06743,-3.6556215,-140.93396,-167.97133,-33.311428
4.2819223,-5.0503592,-0.3786137,-99.33519,-179.02267,-36.354256
6.604617,-4.4427586,2.9203475,-85.65398,-165.03633,-31.530874
7.524819,-4.3759027,6.6428223,-86.918076,-147.82346,-34.970505
6.881871,-5.4823136,9.215197,-78.221436,-148.67207,-26.454758
7.3212028,-6.1611214,11.652962,-69.18078,-142.21895,-14.456515
8.182191,-6.2961197,14.583654,-46.670044,-134.3834,-6.251903
8.488528,-5.7964935,16.968433,-20.514357,-110.42438,-1.6665404
8.595183,-4.4111423,18.848879,0.33849287,-69.33846,11.694254
7.407348,-3.2646182,18.683197,16.502384,-33.301094,15.435787
5.6503873,-2.1055758,17.933834,26.941544,-7.968847,15.414039
4.428716,-1.293691,16.5002,40.371044,12.746883,17.938978
4.006114,-0.57963437,15.493105,59.7819,38.050648,16.656708
4.4635615,-0.13012074,13.520047,64.998695,57.585457,11.604935
4.2313027,-0.088809386,11.737275,67.66556,78.15671,7.8061523
3.4198666,-1.1543798,10.127986,71.43032,100.52949,1.3827871
2.628646,-2.130496,8.2794285,86.24908,106.28062,1.1356237
2.76964,-2.3567944,6.3153086,101.321686,116.15809,3.6614444
2.9588962,-1.8029003,4.9002614,103.10987,114.23074,4.2722964
2.6452448,-1.4787542,4.078993,96.75251,127.1418,-3.0176492
1.709669,-1.3100301,3.1781752,88.32991,130.4949,-4.8232594
1.0921733,-1.4689935,2.331383,82.605576,125.608734,-2.844322
1.7326105,-0.9217995,1.6834332,75.048035,119.267,-1.885778
2.7072656,-0.5985855,0.9407615,51.379738,126.41555,-5.6400805
3.2159395,-1.8652979,-1.2734427,34.810062,128.34633,-7.5450897
3.2299442,-3.04036,-2.9946616,32.185513,129.12894,-15.988593
2.6235878,-3.7106001,-4.6492114,36.74415,126.16503,-17.164194
1.7958511,-3.3953793,-6.578775,32.17143,110.30815,-11.792874
0.56248087,-3.043299,-8.373848,21.497082,93.38941,-4.2719173
-0.2570102,-2.6965532,-8.920199,16.962412,68.47239,2.393483
-0.5632016,-2.6558588,-8.815431,15.815353,53.116642,9.556497
-0.7499967,-2.4210458,-8.574823,34.33282,39.881065,9.636694
-1.3132266,-2.3723593,-8.238718,63.606056,16.322357,9.246583
-0.98114336,-1.2908975,-7.7840605,84.99625,-1.5160961,1.7898464
0.33118004,0.33817455,-6.958322,86.581795,-14.902714,8.96333
2.0998082,1.9469675,-5.6703057,69.65632,-12.2594595,12.027916
3.2355676,2.4862978,-4.6118984,50.373962,3.4494622,11.501402
2.8057575,2.6320193,-4.490011,40.86798,13.035895,7.6304173
2.1918566,2.8097713,-4.5909724,32.91246,8.109162,3.182271
2.6437209,3.8079245,-4.5063186,13.935972,7.6662254,6.5526333
2.8883958,4.4703174,-4.9452453,-20.88032,8.768256,10.778875
2.276773,4.1672406,-5.0110817,-33.241108,3.0500317,12.1448
1.5938046,4.041484,-4.7499123,-25.461817,-7.1460238,2.7575083
1.0849228,5.133337,-3.5729463,-8.302943,-15.384853,-12.302401
1.5158693,6.121713,-2.1734886,13.129,-17.02021,-30.132048
2.4300218,8.0121975,-0.19886081,19.717632,-18.76474,-54.993973
3.6099925,10.001331,2.2239287,0.12622488,-6.7807155,-80.93693
4.1340814,10.306117,4.319276,-43.257305,13.784242,-102.68612
4.123758,8.299854,5.6788497,-70.44773,28.894016,-119.99153
4.250326,5.0815005,5.4775667,-87.011185,52.569363,-141.80922
3.5549638,0.2437715,3.7052245,-95.43014,78.095604,-156.5255
1.6839433,-5.133113,2.0424895,-87.24089,84.1909,-151.97684
0.1483826,-8.374668,-0.20176464,-65.28154,67.58084,-132.40764
-0.3540673,-9.705633,-0.9930358,-22.525963,38.517857,-104.568375
0.3318309,-8.971033,-1.4173633,-2.2969246,27.11078,-88.254456
0.45996746,-8.0502,-1.9481305,19.02337,26.524574,-79.866615
0.058624323,-6.92735,-3.0966551,37.532307,29.390852,-73.4485
-0.72617465,-5.7280684,-4.701627,44.95391,14.577184,-60.951176
-1.6518028,-4.822603,-6.672472,44.730446,4.736352,-49.973656
-1.996599,-3.807138,-7.7162704,42.145706,-17.863625,-34.694073
-1.6233215,-2.702754,-8.522976,32.449024,-37.010014,-18.671066
-0.75016963,-1.5395571,-8.863108,16.560637,-47.1946,-6.8177433
-0.09153463,-1.1260678,-9.056389,8.239317,-57.36665,-4.3917284
0.20517537,-0.9761275,-9.50754,8.220895,-67.72651,-8.07189
0.40759945,-1.1027203,-9.154732,1.8695664,-71.812454,-0.23151267
0.65991366,-1.0914886,-8.930935,-10.584587,-74.58236,7.2798057
0.31007922,-1.0828685,-8.58549,-25.585014,-78.06286,11.185243
-0.12366937,-0.94421625,-8.478633,-31.071974,-88.113205,6.635314
-0.63066363,0.14128937,-8.384416,-52.710236,-112.28262,1.5859213
-0.022424577,0.5531053,-6.8742447,-76.45829,-121.035164,1.0646509
-0.121777624,-0.13950583,-4.578883,-94.111824,-131.40517,-0.2527042
-0.117427744,-1.0052072,-2.5210133,-101.81985,-137.87888,-3.771825
0.12291221,-2.2600868,-0.09789784,-87.30365,-146.23586,-2.7435484
1.183102,-2.2593486,2.445285,-72.989204,-148.99182,-10.403255
3.046185,-2.3034158,5.152553,-61.450787,-146.51292,-13.870825
4.242095,-1.9298588,7.4417467,-60.004326,-129.17085,-15.56476
4.9712934,-2.3614326,9.282295,-68.24121,-105.23683,-12.89243
4.4264865,-3.0809433,9.774356,-70.59153,-79.12263,-10.622776
3.6842015,-3.5645387,10.095503,-67.6089,-62.726704,-4.2449937
3.561985,-3.881565,9.878921,-55.6825,-42.644936,-9.677651
2.9232876,-3.764233,9.363984,-47.075394,-24.870302,-4.2851806
2.2724802,-3.6679068,8.463261,-35.580467,-15.063637,-2.0676796
1.6279993,-3.4965065,7.243726,-37.082035,-1.775104,3.7725568
1.0969188,-4.015677,5.874384,-35.6923,8.402216,12.379091
0.65964395,-4.659048,4.657222,-27.856031,16.129093,22.526953
0.4601551,-5.5657883,3.6244185,-13.95899,22.904272,25.9782
0.5038236,-6.870017,2.7114854,17.360172,34.032047,31.063477
0.47949362,-7.669193,1.8914062,57.62702,46.548737,30.010046
-0.10034214,-7.1784177,1.2243018,75.39155,52.28051,41.029453
-0.22824383,-6.7765617,0.8708909,77.20619,56.054615,57.28573
-0.7140125,-6.01556,0.4233796,76.1806,53.523895,70.7365
-1.1459745,-5.18409,0.0019721352,73.29855,45.92261,87.76854
-1.1427623,-4.2229576,-0.25483695,61.859444,39.774693,106.073425
-0.44092336,-2.9122245,-0.43685645,45.23938,39.06131,114.112785
-0.07055593,-2.534389,-0.28769186,33.056496,34.61483,120.51387
0.4758458,-2.6789744,-0.4368201,33.778584,35.05882,122.79695
0.82546777,-2.7079911,-0.2905425,41.58196,33.40368,125.75165
1.0270426,-2.3684683,-0.93146753,48.842476,35.762074,128.50829
0.93379635,-1.0828319,-1.5317044,55.16323,23.184256,135.5802
1.1459953,-0.059440065,-2.1322665,59.64797,8.764254,138.91911
1.8304454,1.1452584,-1.8469738,67.88595,3.4355602,131.37404
2.3868673,2.6121778,-1.9310974,67.75745,-3.5288918,123.73898
3.0512414,4.1854897,-1.2322932,51.030983,-1.9551537,117.14677
3.706609,4.6869164,-1.1658849,38.42227,-2.634194,106.58272
3.717237,5.0437117,-1.335039,32.297783,3.620154,96.701836
3.644353,5.266509,-1.6210912,36.752937,-0.40418196,88.555435
3.815576,6.054748,-1.5534042,40.151646,-2.0750754,72.39219
4.163393,7.166848,-1.3348627,42.262352,-2.74089,53.72159
4.724464,8.968506,-0.94781363,33.014454,-3.6406987,34.659626
4.7125635,9.344089,-1.0185411,19.631332,1.65131,15.207401
4.31516,9.373641,-1.0069437,9.409273,3.640431,-2.07447
3.7178388,9.241495,-1.357738,-6.49426,1.7557234,-15.476913
3.4920819,9.120634,-1.5305297,-17.795404,-0.71189713,-29.458023
3.95882,8.644748,-0.97040313,-27.570347,-0.15499368,-47.998714
4.274049,7.853018,-0.7887009,-26.462706,1.9215984,-67.29889
4.2840257,7.5919847,-0.7622282,-24.871,6.458681,-89.041016
3.9059296,6.949033,-0.44700202,-24.521786,0.60487556,-109.01513
3.5649018,7.1229873,0.033411138,-31.94567,-4.1988106,-126.1125
4.1972938,7.388762,0.85524356,-45.289326,-5.996455,-135.17014
5.2647905,7.1066027,1.5886228,-60.52437,0.58477056,-159.65709
6.0770273,5.6815352,2.433739,-56.14136,13.902814,-178.5208
6.975494,4.314468,2.9643734,-54.356533,29.567842,-208.39891
7.659377,2.281896,2.9294055,-73.60719,70.52315,-227.01788
5.3765945,-1.1686811,0.49515074,-100.36168,88.519135,-222.71603
3.0074995,-4.6902714,-1.4245038,-107.82173,89.87183,-200.43636
1.6363732,-7.2478724,-2.9525175,-100.27114,71.025894,-173.90363
1.4836587,-8.486194,-3.0938835,-87.9632,54.50645,-149.32768
1.8254349,-9.278674,-1.9831024,-64.77761,46.746296,-138.87305
1.470316,-9.866621,-2.038018,-31.199453,42.48658,-126.08261
0.30619743,-10.108473,-2.0671613,-11.721155,36.025295,-104.12677
-0.39105836,-9.301873,-2.5224147,-0.81596255,29.445496,-86.13829
-0.8539234,-8.521584,-2.3908877,5.301843,18.206974,-62.682022
-0.76175267,-7.5643377,-2.4950542,15.934361,6.5244637,-43.80619
-0.60089236,-6.3278947,-1.7266319,20.524378,2.0451393,-30.013283
-0.4783939,-4.991867,-1.4543711,25.741158,-2.5434108,-24.660112
-0.80481994,-3.9693933,-1.5360248,21.987162,1.783638,-18.84622
-0.8878534,-3.1729195,-1.1412989,17.503841,-2.4047208,-11.918504
-0.7587019,-2.7390926,-0.953177,16.215473,-2.8197927,-7.442706
-0.59225965,-1.9983532,-0.73760784,14.680632,-0.33427978,-7.4554567
-0.55518854,-1.361421,-0.76549387,10.986441,-3.1729832,-3.2203047
-0.7035006,-1.26027,-0.80199105,5.7876935,-5.02022,-1.8613126
-0.6961631,-1.0581675,-0.39738256,4.8348384,-7.052595,0.09588289
-0.5222673,-0.56733984,-0.34018835,2.6857836,1.3868797,-0.5176768
-0.30393356,-0.42401356,-0.15568161,1.0449442,3.8206906,-0.8620918
-0.32880968,-0.43297955,-0.14151537,3.205082,7.760349,0.67263466
-0.22802724,-0.53566283,0.2556542,0.7644197,4.478387,11.890319
-0.022057708,-0.5310315,0.39156082,1.8022025,5.115132,11.226722
0.35028395,-0.19436231,0.727462,-0.64640164,9.829059,14.334962
0.3970864,0.07200135,0.66746527,-2.6108437,15.846134,16.260408
0.22273381,-0.26020584,0.45035893,-10.575084,16.392921,9.849439
-0.10980199,-0.6177975,0.1819978,-16.124922,12.926664,12.518013
-0.2418535,-1.0972301,0.35267955,-15.523908,10.102762,18.241602
-0.008694826,-1.6554679,0.64152724,-6.261435,14.610348,24.195856
0.54088515,-1.9796563,0.49780485,-14.581899,19.074444,37.949394
0.0,0.0,0.0,0.0,0.0,0.0
0.0,0.0,0.0,0.0,0.0,0.0
