ax,ay,az,gx,gy,gz
0.7328996,1.3455905,-3.8712351,8.726443,12.932687,-12.577448
-0.011341103,1.3524183,-4.161857,12.656018,11.711052,-11.291221
-1.3739376,0.86170536,-4.903375,22.308813,2.4964693,-19.558895
-2.007443,-0.27076852,-5.6493983,27.923998,-16.145458,-12.387353
-0.66962993,-0.8130748,-5.5532966,13.577991,-17.616043,14.523677
-1.021051,-0.85846865,-6.300127,8.159166,-20.773254,22.072626
-2.3048074,-2.0260508,-7.329041,7.968119,-25.905355,19.285925
-3.341266,-3.2429729,-8.346164,3.6526859,-36.11386,11.344542
-3.8541906,-3.9756353,-8.638894,-0.9969793,-53.19036,27.372997
-4.8881865,-3.419018,-9.38454,-7.990095,-75.48289,46.067356
-5.2038035,-2.0422223,-8.873861,-11.388113,-104.66166,56.78945
-4.248424,-1.4202247,-8.070333,-25.159166,-124.19364,67.98253
-3.5103195,-0.93337435,-7.3967366,-25.55483,-141.43831,72.86815
-3.3820465,-0.7977009,-6.5091844,-25.700378,-166.62398,72.68473
-2.5437489,0.6580068,-5.586835,-39.081352,-178.47968,75.53466
-0.40231553,2.5764463,-3.2347975,-51.5314,-185.88568,74.55695
1.5439497,3.4720364,-1.2163708,-75.94438,-181.31776,74.172165
1.9485469,2.6877875,-0.59983265,-87.54425,-175.7643,65.553795
1.8120015,2.6280735,0.21849677,-93.55081,-183.27628,53.8611
4.8029413,2.2165253,2.1262937,-107.16188,-190.62177,53.68332
8.110197,1.056436,3.8708825,-119.1683,-176.52997,47.21951
9.912328,-0.8053634,5.1941276,-121.46407,-140.72675,44.459225
8.394382,-2.1558733,5.0549784,-107.26506,-113.3855,33.142162
6.4843616,-3.2763543,4.8849416,-87.48431,-108.45501,24.274834
6.017323,-4.378305,4.9258094,-79.34529,-105.79504,32.37893
6.6717973,-4.170695,5.13178,-64.21086,-95.9257,26.51496
6.56408,-4.0209394,5.234828,-50.348583,-81.20742,28.715443
6.0162926,-2.952337,5.644653,-37.948193,-64.00956,24.190367
5.2057304,-2.0386205,5.585425,-21.892645,-47.484047,15.597276
4.306998,-0.5953105,5.516751,-12.693818,-37.533573,13.24802
3.8950706,-0.24141121,5.2893324,-5.7803574,-40.629814,9.99469
4.0785203,-0.06861405,5.2152586,3.6754353,-31.415462,5.749615
4.091657,-0.33115008,4.908342,3.9117343,-20.244022,4.1695204
3.5650887,-0.5543161,4.2282906,10.266403,-1.8784432,5.7810917
2.6241546,-0.7380942,3.6275434,18.260273,6.561371,3.419002
2.332644,-0.19674276,3.346092,19.204023,8.331413,4.5073833
2.1203556,-0.182282,3.1496863,18.122519,16.251308,3.9776433
2.1062627,-0.2337624,3.2030952,25.363297,19.893318,5.2535787
2.6685586,0.011265125,3.4553628,25.380472,26.547642,8.660166
3.6645393,-0.5288904,4.3457565,21.852585,35.388542,10.721434
4.4619455,-1.0305068,4.97267,28.329102,51.106033,9.899944
5.7077575,-1.2803262,5.3585105,38.305737,59.27416,5.212719
7.0811753,-1.2006078,6.5614486,44.027355,73.025894,7.3590426
7.2257795,-1.107847,7.643295,50.463917,103.11723,5.7986374
6.7159367,-1.5412631,7.2531734,59.869583,122.63886,6.0306783
6.7508106,-1.5721596,6.173795,68.302574,136.2608,1.4363413
6.4818764,-1.4181516,4.6508436,76.10786,152.87567,-7.957901
5.2983866,-1.1603788,3.1012988,75.2905,168.63039,-8.803532
3.4378598,-1.8318639,1.5074881,73.09347,175.65662,-11.026559
1.288031,-2.1179461,-0.55347306,71.7432,172.81584,-5.987881
-0.24700257,-2.3534443,-2.2536986,69.60128,163.89973,-1.899195
-0.771294,-2.7226875,-3.6142206,72.76002,152.81602,-2.4163961
-0.087099165,-2.1112459,-4.1237693,73.881645,145.95105,-10.364211
0.6041089,-1.544897,-4.605575,73.63159,143.94946,-11.916754
-0.003369607,-1.3516593,-5.957562,72.61909,135.91591,-8.208532
-0.651381,-0.83748686,-7.036295,71.40184,127.715675,-3.3199153
-1.5794011,-0.16436316,-7.4338675,62.599304,111.96769,0.6636439
-2.098772,0.098284535,-7.802974,53.818184,95.49555,0.64331746
-2.3367393,0.54432505,-7.6898017,49.17968,66.01062,3.7790008
-2.5590038,1.7171807,-7.583545,47.907703,51.497242,-3.6590707
-1.106318,2.715074,-7.178877,45.783794,37.914337,-7.4082007
-0.17318782,3.7776372,-6.7634044,42.712738,37.95088,-17.064253
-0.009042762,4.903881,-6.3499494,39.144215,34.07915,-30.380966
0.9898012,6.5227246,-5.973677,25.591702,24.696344,-45.35191
2.8813608,7.91515,-4.7734976,9.943349,17.882957,-48.76014
3.8404381,8.335509,-4.08784,-5.869646,19.588736,-59.972584
4.1531644,9.011134,-3.4464636,-22.020042,24.421766,-67.38916
3.5620205,8.904436,-3.2327497,-33.736195,26.881613,-80.27692
3.4411285,9.159781,-2.7672853,-46.593678,23.784418,-104.1685
3.5128086,9.473239,-1.936074,-63.909122,23.096548,-114.33061
4.0057116,9.593344,-1.5720905,-84.2785,25.562845,-123.45297
3.7496598,8.117732,-1.4140267,-92.92409,27.590733,-138.57906
3.540298,6.0657573,-0.40541235,-97.411446,29.769531,-159.36043
3.2162528,3.7757244,-0.071288966,-110.113815,28.519712,-169.09396
3.0923238,0.72846776,-0.29240328,-116.5159,30.558601,-161.28683
2.1153054,-2.226573,-0.217994,-115.459114,30.338818,-165.88638
1.1806396,-4.9960866,-0.5898154,-117.89608,27.254787,-158.13928
0.44258332,-8.821317,-1.2073234,-122.150055,16.459517,-132.69867
0.5992249,-12.428765,-1.7513769,-95.11975,19.976063,-108.30743
0.14341167,-15.093583,-2.488575,-65.716896,23.10483,-99.77828
-0.5309056,-14.674517,-2.8727016,-30.609951,28.022308,-82.09189
-1.253721,-12.680525,-2.9471157,-6.2308717,23.837318,-68.78517
-1.8545396,-10.270557,-3.4328892,10.583235,21.722992,-52.550774
-2.6200361,-7.7910595,-3.8002944,26.066755,13.524001,-32.2928
-4.1530848,-5.038919,-4.8892217,31.089882,-1.4434192,-26.52698
-4.3986535,-3.5092504,-5.4653463,28.605389,-14.955411,-13.775248
-4.429142,-1.7777818,-5.7837596,29.595486,-29.27812,-6.8947716
-4.29582,-0.83779085,-6.07591,27.571634,-39.319702,-3.7823641
-4.0205364,0.70798,-6.0727816,20.028376,-51.336758,5.9051414
-3.4559042,1.6404947,-6.774126,12.6797905,-57.402405,6.5679617
-4.4621887,1.7017335,-7.917267,8.419529,-71.400185,5.4448004
-5.6770687,1.7483996,-8.790797,3.2630658,-92.22985,0.59032035
-6.6917095,1.2146872,-9.60506,-0.55626965,-120.11861,3.04266
-7.29368,0.91005725,-9.691897,-6.990565,-164.78662,5.946534
-7.252863,1.1392165,-9.169121,-18.106697,-192.32552,15.6120205
-5.4423003,2.114159,-7.942678,-24.283619,-221.86104,9.952009
-2.9311206,2.7354398,-6.0373225,-28.61523,-233.1495,2.6548655
-0.3150729,2.87042,-4.0285754,-37.12067,-234.03067,-5.2307477
1.9719452,2.0013309,-2.0133674,-54.679626,-235.83995,3.3995042
6.5456104,0.4843148,1.2001766,-57.56178,-231.85382,-4.984308
9.912826,-2.2427664,2.9112449,-60.042885,-208.30415,-1.5791496
10.72631,-5.0015044,4.1590953,-54.624954,-178.89154,7.296347
9.955518,-6.061232,5.224548,-33.666973,-144.54607,6.8187156
9.703702,-4.9191923,6.8207636,-19.678978,-112.71649,7.749784
8.7308235,-2.875879,8.0627575,-22.673693,-93.40625,20.417131
8.015145,-2.6327777,8.547336,-25.114563,-75.40427,30.897738
7.6580725,-2.8689375,9.112962,-25.70139,-56.03081,41.067112
8.021341,-4.104192,8.908864,-17.551123,-34.394928,41.47591
8.414425,-5.8903966,8.566131,2.8342104,-3.8563023,40.799335
7.924509,-6.207446,7.332431,19.813091,21.638926,48.838787
6.550375,-6.7805123,6.567287,25.573788,36.505985,67.46844
4.36998,-7.306444,5.3141108,38.736362,43.62701,84.1857
3.5824103,-8.297824,3.465658,51.344814,45.763763,101.1175
2.840879,-9.307155,2.0654233,79.46286,54.206387,111.21165
1.4867933,-9.165529,0.01789033,98.28047,56.933895,125.90185
0.27509525,-8.842487,-1.5592043,118.98306,55.275875,133.92082
-0.52054524,-8.392908,-3.0058048,134.6958,44.967392,146.28477
-1.0048013,-6.8369308,-4.3658915,152.57822,35.88579,151.13089
-1.7751127,-4.6561627,-5.063038,171.77512,7.504643,153.0929
-1.0518452,-1.173593,-5.2298856,179.51128,-8.911328,150.93123
0.7285034,1.568046,-4.102268,174.84566,-5.4834538,147.96947
2.0863397,3.4685893,-3.8992116,162.20912,5.9974957,146.05997
1.7600169,5.31537,-3.7516127,151.20067,11.9247675,137.53265
1.2582494,6.9073167,-3.7008348,130.80942,8.261915,119.47968
1.3484886,8.53659,-2.9985888,113.85154,8.679423,106.749985
1.8832515,9.143235,-2.5987487,96.40625,10.676149,88.369026
2.3990464,9.069699,-2.7155218,80.23873,9.684672,71.77194
2.7130208,8.951964,-2.7541265,65.28294,15.893611,57.302578
2.9404962,9.147089,-2.8124928,41.30738,12.645152,36.12763
3.9701967,9.188501,-2.7032304,24.849033,14.225952,23.685251
4.573604,8.93783,-2.6222024,5.1119585,16.193794,23.436415
4.2121034,8.641193,-2.8424203,-9.24789,17.109747,13.05119
3.9567463,8.50882,-3.176006,-21.062124,11.353077,-7.062821
4.1686316,8.669712,-3.408141,-34.56498,11.054957,-23.880045
3.8750143,8.6491165,-3.2661908,-45.162434,9.946979,-34.468674
3.5701375,8.971289,-3.1742644,-58.531506,10.866066,-52.524834
3.5071304,8.9182625,-2.9901316,-74.249306,8.488453,-66.80958
3.650455,8.729855,-3.0810103,-89.05149,9.3994,-81.43402
4.2883015,8.3978,-3.0161674,-105.38368,10.207525,-98.08042
4.919508,8.220522,-2.9527853,-119.78516,18.727987,-108.32762
5.1802745,7.455077,-2.969603,-137.92598,21.815151,-121.27704
4.9519897,6.6122723,-3.3767664,-146.47238,23.96028,-141.1908
4.731456,5.409572,-3.2807138,-153.31592,27.405222,-150.8784
4.5399723,5.1444426,-3.3215306,-163.07353,33.66945,-167.7529
4.018014,4.0232363,-3.7031941,-172.51915,32.205364,-174.97852
3.275798,2.1572044,-3.6421316,-179.40091,30.863525,-187.34927
2.7836328,-0.30700305,-3.5558138,-183.56871,27.574566,-190.69914
2.5114558,-4.102142,-3.308594,-184.41447,18.23076,-191.52518
2.4845173,-7.992856,-3.0555372,-168.89734,13.439667,-177.20091
2.8702862,-11.4950075,-2.748373,-146.19388,16.733616,-160.33476
1.8545399,-13.231524,-2.7774692,-126.22181,19.556862,-140.88005
0.5256538,-13.944345,-2.3286676,-98.18009,16.578117,-122.50631
-0.8258214,-13.400709,-1.7689918,-71.12555,14.556084,-103.14449
-2.0739481,-12.134254,-1.0125885,-48.35679,1.8611522,-74.490524
-2.2288795,-9.590361,-0.14553085,-33.322502,0.12509805,-56.77303
-2.2429442,-8.222399,0.42863083,-26.916473,-7.823696,-37.269196
-1.6331929,-7.141489,0.9535179,-19.901035,0.09718108,-25.44523
-1.4933678,-6.112942,1.107727,-14.284488,1.0597354,-12.674326
-1.4577833,-4.9761,1.1926923,-7.742172,6.0438027,-3.6039789
-0.5681782,-3.5273457,1.4800708,-10.12029,5.064914,7.968828
-0.34704736,-3.0566282,1.4855704,-7.560874,13.752686,22.300705
-0.4912125,-2.8126378,1.4764282,-3.480748,19.246346,24.926918
-0.68766284,-2.7129917,1.2165219,7.555149,25.405703,27.720314
-0.9155858,-2.3620734,0.8540926,20.398163,20.183308,32.467617
0.0,0.0,0.0,0.0,0.0,0.0
0.0,0.0,0.0,0.0,0.0,0.0
0.0,0.0,0.0,0.0,0.0,0.0
0.0,0.0,0.0,0.0,0.0,0.0
0.0,0.0,0.0,0.0,0.0,0.0
0.0,0.0,0.0,0.0,0.0,0.0
0.0,0.0,0.0,0.0,0.0,0.0
0.0,0.0,0.0,0.0,0.0,0.0
0.0,0.0,0.0,0.0,0.0,0.0
0.0,0.0,0.0,0.0,0.0,0.0
0.0,0.0,0.0,0.0,0.0,0.0
0.0,0.0,0.0,0.0,0.0,0.0
0.0,0.0,0.0,0.0,0.0,0.0
0.0,0.0,0.0,0.0,0.0,0.0
0.0,0.0,0.0,0.0,0.0,0.0
0.0,0.0,0.0,0.0,0.0,0.0
