ax,ay,az,gx,gy,gz
0.36471182,-0.017773196,-1.764174,41.86648,29.21052,16.016445
0.1158304,0.23792157,-1.6028339,33.61895,24.78525,5.841471
0.43344897,-0.49532688,-2.1286304,32.216053,23.689497,4.9404836
0.28285378,-0.15490617,-1.453884,26.326471,10.343336,-5.5123863
0.5828757,-0.36447313,-1.4351788,14.386371,14.355943,-6.7599225
0.98871124,-0.33924636,-0.9757178,-5.5194616,18.801916,-8.704158
0.5891783,-0.022744372,-1.233681,-7.6938534,20.694132,-8.1718025
0.6456576,0.025463775,-0.8912742,-7.4093485,20.941511,-4.118967
0.27994418,0.36688554,-0.7335286,4.66794,17.900349,-7.790402
0.6786133,-0.2266823,-0.23877251,2.3713078,16.932413,-8.954714
0.3070638,-0.28867227,-0.8567829,14.754786,21.351507,-8.375627
0.6440501,-0.16374335,-0.15185428,12.812834,18.91465,-2.1507323
0.22056347,-0.07205337,0.116223775,5.696127,17.893358,-0.3676657
0.16747907,0.26293147,0.27694267,3.7993052,25.937641,-2.7156498
0.38052648,0.11009066,0.021917105,-6.076391,18.810513,-4.446613
-0.02037818,0.3913642,0.43063533,-3.1639657,26.605652,-11.115479
0.096194446,0.3027886,0.65026844,9.231967,28.261856,-12.823811
-0.14306971,0.25662974,0.3795981,10.116273,30.854761,-15.506964
-0.25515044,0.73039746,0.8502487,15.346044,31.625511,-12.929308
0.52865416,0.14558929,0.80302453,19.205214,34.843212,-18.280432
0.5571151,0.3392401,1.0481501,18.98791,42.982147,-20.515553
0.33054775,-0.38057113,0.626575,13.89331,40.342373,-14.357916
0.17140189,-0.20382524,0.5236563,9.802638,49.333996,-19.87679
0.42856914,-0.29997227,0.5566642,5.7249165,47.876545,-13.741589
0.54678315,-0.6547202,-0.28060022,6.534155,55.220745,-6.971242
0.24656025,-0.3606738,-0.18770337,7.2966733,49.809532,-3.9576762
0.32808757,-0.31412807,-0.95901096,-1.0879514,54.357407,-1.9655116
0.31380993,-0.81267875,-1.3312317,-3.658435,48.577553,2.63477
-0.11336641,-0.50212264,-2.0449364,-3.5355992,42.054123,3.0936697
-0.42582056,-0.7243447,-2.9027488,3.7188456,42.861115,-0.47136176
-0.43534032,-1.0635344,-3.6210952,8.787253,25.071068,0.7935668
-0.78586465,-1.1509827,-4.9720383,19.054682,9.900032,-1.9364161
-1.3793838,-1.442501,-6.8319793,17.26468,0.5061822,7.1445208
-1.24372,-1.0394886,-8.616229,20.111279,-31.272596,13.225363
-1.0176014,-1.6533844,-11.4466095,14.025917,-72.819695,29.701199
-0.28591925,-2.049821,-15.522586,-13.79559,-115.080246,42.27432
-0.6145302,-2.7763064,-20.883905,-70.730934,-183.91402,46.09514
-1.9554406,-7.3853617,-27.975437,-88.20016,-252.7363,54.888332
-2.2619505,-12.268689,-31.325079,-81.60567,-365.08777,89.12615
0.8226105,-13.16598,-30.702246,-22.95783,-418.4785,105.940475
6.065908,-8.927715,-26.98776,50.39377,-447.20074,98.80468
12.013566,-5.097777,-19.284683,114.47292,-472.48236,90.29952
19.285347,2.1636207,-5.5528436,118.488,-450.614,90.91874
23.721624,7.4890165,7.1435866,91.040665,-423.31036,69.491486
25.346891,9.703628,18.058767,46.893433,-357.78702,50.389984
24.869944,8.943228,25.406202,3.2234783,-280.66144,63.000603
22.817127,9.917761,29.182936,-29.312502,-165.98602,52.254757
19.42966,10.920645,30.326681,-37.327198,-75.53722,40.85908
16.606144,9.716208,29.483128,-44.41752,-5.168982,18.236013
14.42585,9.413171,25.47734,-47.02997,58.893158,-1.553872
12.875079,8.331295,22.119576,-55.508785,100.10304,-12.218821
11.37922,5.188644,18.160933,-42.77062,159.84862,-43.889782
10.743537,0.7902482,13.885168,-21.780088,192.36418,-62.289555
9.70533,-1.0574368,10.909949,-3.517861,225.2734,-59.96068
9.251303,-2.7997513,8.733155,8.824435,246.51773,-58.8913
8.183341,-3.579446,6.0639677,28.07078,271.07843,-50.432274
7.354521,-4.3000574,4.7304354,66.86483,293.91998,-41.309273
6.956919,-4.1579833,1.8099321,79.45826,308.67264,-44.61532
6.733316,-4.6228514,-0.08760271,80.93712,327.39984,-32.012
5.9761386,-5.525723,-2.3608756,82.39714,331.1348,-28.559757
4.982752,-6.271414,-4.3814354,79.184746,339.802,-23.680742
3.2495167,-6.249543,-6.82967,78.7204,312.14215,-8.368848
1.5589523,-6.1604004,-9.618698,74.06699,287.85028,12.238628
1.3272606,-6.1710787,-11.275859,66.63586,258.0049,29.641193
0.89110136,-4.856698,-12.327594,49.291298,235.66861,39.07984
0.9820512,-5.1832843,-13.321222,39.544994,204.9446,61.65634
-0.381054,-5.543413,-15.211157,83.13997,168.76964,67.11222
-1.8026923,-6.874173,-18.310509,86.795784,98.99889,75.47883
-1.1451954,-5.6550875,-18.377668,74.64823,30.289495,106.96294
0.6747935,-2.7924616,-18.05091,58.447758,-25.814999,122.42149
3.2532313,1.9378997,-16.552996,71.26895,-67.29565,123.57875
5.22519,7.9773965,-15.130289,101.95407,-112.41375,69.99786
5.681874,18.278759,-12.60184,129.7477,-124.11226,-9.756855
6.3819575,26.246206,-10.795603,128.72748,-164.14043,-91.273964
7.805862,29.975086,-8.269256,75.77244,-176.01329,-150.90141
8.795629,31.763554,-6.759083,-26.03749,-182.38576,-203.96924
10.550941,28.766325,-5.9649043,-129.39395,-189.06181,-287.51758
14.7272215,21.610918,-2.9656467,-193.09126,-176.05151,-341.77084
19.067144,12.536618,-0.17276888,-239.52727,-171.71942,-378.44113
23.616352,2.3058958,3.4582365,-302.13358,-129.30243,-361.9775
24.58075,-8.893887,5.5038095,-333.2402,-53.089333,-326.19092
21.207022,-20.18282,1.634125,-289.40366,-2.1745543,-281.0298
13.210714,-31.383186,-6.412908,-179.17969,42.352604,-219.88763
4.4507027,-35.404827,-13.429177,-77.52494,28.398092,-160.75217
-2.700928,-34.583603,-19.539234,17.654392,-24.250397,-101.65373
-6.306091,-27.851765,-24.236465,67.705925,-113.68485,-45.191452
-7.8817816,-20.72579,-27.124763,74.30028,-264.69125,-8.752465
-5.937549,-13.867266,-26.311102,90.1442,-378.72592,9.259452
-3.7880569,-8.809402,-21.816069,98.34246,-477.22528,41.67636
1.3078303,-2.085453,-13.826949,88.238174,-511.21548,58.42693
6.873883,2.538118,-4.572213,73.00443,-498.79907,67.2955
12.605401,6.33123,5.401683,31.232098,-444.54337,45.384098
19.753206,8.142623,18.605085,2.6483598,-343.07877,18.560741
21.13495,5.729596,24.697826,-15.280022,-237.11111,9.6054735
19.675465,4.3938046,26.095356,-33.036415,-127.24788,10.76358
16.522638,2.838244,24.16082,-40.24532,-34.882572,21.071692
12.975971,1.0754389,19.885836,-36.857075,43.76733,26.656921
8.254124,-0.45448428,14.742953,-24.699333,87.47057,16.194578
6.406275,-2.0269237,10.748532,-8.695225,106.19343,6.1700244
5.7455087,-4.1647844,8.658505,2.0406651,130.34804,6.8495054
6.4297595,-5.75458,7.00651,11.091188,149.44159,10.598559
6.9994354,-6.6315565,6.207733,5.5813904,182.01483,32.281483
6.2889647,-8.578208,3.2072723,33.194733,215.44827,62.01505
5.110334,-9.948368,0.37166813,75.1713,222.67973,86.64278
4.6081862,-9.895047,-1.6474034,91.302925,231.10202,114.8719
3.7844682,-9.975312,-3.6448777,89.61609,229.5976,143.72032
2.6947358,-10.446213,-6.1267223,92.18084,222.90646,186.60068
2.2420409,-8.8841505,-8.128778,93.45747,202.01866,220.79593
2.1919122,-8.301533,-8.887615,90.69208,172.57309,242.9524
1.8833606,-6.740247,-10.355974,115.32417,157.77051,257.42136
1.0055714,-4.1642857,-10.700931,118.74586,120.9636,268.81085
1.1881661,-2.1139302,-10.308757,120.565636,92.0782,266.58755
2.027943,1.1332136,-9.435358,110.201805,73.34404,275.9091
2.9293776,3.4005597,-8.159668,106.74219,53.02924,260.8747
3.1347122,4.533033,-7.890487,109.47905,42.58103,242.39816
3.4020395,7.442834,-8.051886,111.44725,27.78921,224.80179
3.8095822,11.114064,-8.113671,118.2198,-0.6924016,168.02043
4.4726915,17.193674,-7.984879,85.31142,-30.505817,114.975105
5.592753,20.162075,-8.946156,32.409702,-48.308304,66.2193
6.4062414,23.180124,-9.516842,-30.980663,-66.90604,25.3459
6.4183574,25.589735,-10.692884,-99.699814,-76.04227,-14.113602
5.719538,28.341558,-12.569107,-188.18651,-90.84245,-88.42026
4.76113,28.37564,-15.939743,-213.14769,-114.44771,-176.56407
4.431163,25.904247,-18.493515,-179.0691,-152.43608,-284.56705
6.2814426,21.924728,-20.10587,-145.11476,-203.64107,-387.25702
11.061836,17.133375,-17.706514,-145.57475,-257.90805,-453.30652
17.277409,8.427965,-13.646634,-218.53885,-312.70297,-448.95593
25.739763,-4.8613863,-1.9316324,-295.05402,-296.37234,-392.5723
30.597477,-16.795956,5.666924,-336.13266,-227.31854,-332.00723
30.712622,-27.235344,10.906327,-288.33337,-113.47266,-258.3753
25.01466,-33.013176,11.523072,-212.55617,-37.50142,-198.15836
17.917183,-34.79503,11.097315,-130.83636,37.09715,-86.62174
5.9514623,-30.153734,6.2232027,-67.01858,74.477264,-16.561613
0.21886685,-22.22723,2.934068,-22.933022,83.71717,19.096554
-2.6869955,-15.977555,0.80227345,-4.3452406,75.61274,52.58229
-3.7694046,-9.771859,-0.93485034,4.91183,54.839584,68.22515
-3.7378297,-4.6615243,-0.8728484,17.46466,49.43403,60.706276
-3.3246222,-0.83378655,-1.3592359,18.911139,45.656,58.630127
-3.2949042,0.76064897,-0.9626893,14.945841,35.912323,52.305016
-2.627436,1.9184878,-0.6909199,13.1226635,25.255383,58.480213
-2.294432,2.5260062,-0.2482962,12.352336,16.56621,45.964046
-1.7196871,3.9086223,-0.21008894,6.056587,12.210281,35.957905
-0.48950326,3.2987647,0.45813406,-9.353756,7.6983175,30.80819
0.031065121,2.7103202,-0.26325533,-16.249039,4.2821317,21.062065
0.16533099,1.6736066,-0.042664893,-13.428014,6.5227365,19.478928
0.0864052,0.44267255,0.42223495,-7.4347177,10.293997,9.33653
0.6128938,-0.008765722,-0.32119828,-8.327864,11.957144,11.761127
0.672946,-0.22807878,0.120313264,-8.513418,7.329023,19.759348
0.57510823,-0.31222275,-0.18931746,-8.55222,5.910281,20.474957
1.1883655,-0.49368188,0.05558724,-7.4860396,9.313269,21.23393
0.34673783,-0.04441364,-0.4789721,-13.099248,9.056387,24.102585
0.45545462,0.68997806,0.050518945,-22.528671,7.9748545,22.14061
0.0,0.0,0.0,0.0,0.0,0.0
0.0,0.0,0.0,0.0,0.0,0.0
0.0,0.0,0.0,0.0,0.0,0.0
0.0,0.0,0.0,0.0,0.0,0.0
0.0,0.0,0.0,0.0,0.0,0.0
0.0,0.0,0.0,0.0,0.0,0.0
0.0,0.0,0.0,0.0,0.0,0.0
0.0,0.0,0.0,0.0,0.0,0.0
0.0,0.0,0.0,0.0,0.0,0.0
0.0,0.0,0.0,0.0,0.0,0.0
0.0,0.0,0.0,0.0,0.0,0.0
0.0,0.0,0.0,0.0,0.0,0.0
0.0,0.0,0.0,0.0,0.0,0.0
0.0,0.0,0.0,0.0,0.0,0.0
0.0,0.0,0.0,0.0,0.0,0.0
0.0,0.0,0.0,0.0,0.0,0.0
0.0,0.0,0.0,0.0,0.0,0.0
0.0,0.0,0.0,0.0,0.0,0.0
0.0,0.0,0.0,0.0,0.0,0.0
0.0,0.0,0.0,0.0,0.0,0.0
0.0,0.0,0.0,0.0,0.0,0.0
0.0,0.0,0.0,0.0,0.0,0.0
0.0,0.0,0.0,0.0,0.0,0.0
0.0,0.0,0.0,0.0,0.0,0.0
0.0,0.0,0.0,0.0,0.0,0.0
0.0,0.0,0.0,0.0,0.0,0.0
0.0,0.0,0.0,0.0,0.0,0.0
0.0,0.0,0.0,0.0,0.0,0.0
