ax,ay,az,gx,gy,gz
-0.10451621,-0.06406931,-6.131505,16.021162,22.978067,-13.140678
-0.5865602,0.27457094,-5.9744563,17.65252,24.045141,-15.808175
-1.5728018,-0.9671985,-6.50818,25.517519,10.225161,-10.471733
-1.7905661,-0.5063462,-6.7149315,25.589916,-4.4626427,-1.0265892
-1.3284751,-0.56647277,-6.6762753,20.55924,-14.478317,7.6567965
-0.81707215,-0.486732,-6.433907,12.429076,-18.776371,18.155407
-1.658671,-0.92349035,-6.7472773,10.303618,-39.939148,26.44145
-2.2489522,-1.0045257,-6.9081817,3.3857281,-53.501358,31.667149
-2.462933,-1.3034328,-7.4567637,2.092831,-66.04655,36.887707
-2.7610006,-1.3203869,-7.4110675,5.722974,-83.62014,36.514362
-2.7556336,-0.56895876,-7.1790304,2.2035685,-96.957214,39.089596
-2.2788267,0.6687575,-6.1046247,-28.990131,-105.443306,49.581154
-1.8271904,1.3833834,-4.656182,-48.48792,-110.7038,58.13641
-1.8550255,1.3673726,-4.382623,-57.804695,-114.96891,55.787956
-1.6544881,1.3589187,-3.9654586,-64.90359,-118.24177,55.1122
-1.2287283,1.3449357,-3.406374,-79.692505,-123.7604,49.634872
-1.165612,1.0363561,-2.652369,-93.71185,-136.10326,55.179234
0.07958869,1.1755735,-1.1338505,-108.33073,-142.71027,51.00962
1.685564,0.90955156,0.13714606,-116.86305,-139.45851,49.394096
2.3655093,0.5930312,0.6806622,-122.19877,-129.94652,43.804794
2.1030636,-0.043065015,0.7782278,-119.375145,-130.29256,37.538338
1.5250834,-0.7952119,1.2737367,-115.121796,-133.13145,30.173113
1.9627146,-0.86923593,2.2179408,-109.56952,-141.70439,17.831385
4.2202616,-1.2432451,3.3154588,-109.32366,-137.64452,8.995693
6.190006,-2.222506,4.182296,-109.70292,-127.38753,13.505038
6.78082,-3.4711068,4.181784,-100.09536,-109.28267,18.744413
5.805078,-4.5841804,4.383416,-71.81116,-95.35824,16.365225
4.724636,-5.1704774,5.0987005,-55.531666,-88.26959,13.314793
4.6722183,-4.802759,5.5559587,-40.79742,-78.540764,16.73082
4.8744235,-3.7695205,5.8598003,-25.62323,-69.8419,17.885904
4.881181,-3.292269,5.978727,-16.123161,-60.572998,16.966755
4.8223658,-2.5981736,6.003466,-2.9737334,-47.92562,14.207034
4.806683,-1.8969122,6.349711,4.6711264,-31.335306,10.93378
4.247324,-1.2166831,6.313152,19.953695,-23.909931,8.168125
4.2255735,-0.4909254,5.9454575,24.544031,-7.196068,6.1656365
4.2587605,-0.416144,5.4780045,22.278963,6.119715,8.711966
4.1897216,-0.342021,5.1031013,25.785194,22.397839,12.261453
3.8475904,-0.74912834,4.02873,28.133728,37.093647,8.592814
3.2520921,-0.38837692,3.5788128,34.741657,43.955746,8.48637
2.8795865,-0.8498927,3.22264,38.799152,51.66445,6.8102245
2.0692995,-0.7570181,2.7235024,41.06314,57.865997,7.4405613
1.1197678,-1.103373,2.1327062,58.183826,59.885242,0.5046472
1.1629566,-0.6476376,2.028944,55.02904,57.88863,1.1752945
1.5408558,0.05417131,1.8929179,54.60591,62.16145,0.27171627
1.5802779,0.28311446,1.7823462,55.129368,64.21037,1.3526647
1.2666365,0.15385237,1.5345399,54.242054,66.64526,2.9686568
0.6807396,0.10886514,1.2018812,52.63685,64.98008,2.107038
-0.1324348,-0.31036127,2.627571,53.137024,62.568127,0.2679568
-0.5973429,-1.3641013,3.4535334,63.238033,55.318638,3.9428332
0.36221534,-1.8304201,4.0763063,73.4006,47.846558,-2.1222773
2.6242547,-2.1368363,4.1803904,89.54891,53.34841,-19.237415
4.7120476,-2.411305,4.22436,97.29326,83.977745,-32.40453
4.9150534,-2.468124,4.0655293,98.37564,102.12066,-37.703926
3.5203733,-2.4174964,3.4304028,104.88132,120.59087,-31.394125
1.9144135,-1.6678839,1.7084582,98.185684,123.2243,-20.214254
0.8398841,-0.29405883,-0.3455351,81.59771,116.59371,-2.7917774
0.23972291,0.28804523,-1.687773,55.818466,103.5955,15.437992
-0.6718795,0.23983338,-3.6054645,45.94004,98.751236,11.437784
-1.3384476,-0.3799855,-4.639093,55.848404,99.59202,-19.920202
-1.5940244,-0.7198606,-5.5061393,71.78428,99.08641,-49.400223
-2.1540928,-0.5402974,-6.2620373,72.92513,91.98652,-59.835377
-2.0769486,-0.020876063,-6.8275056,61.73452,77.428116,-40.240116
-2.1155095,1.0282875,-7.1664715,50.030342,65.07827,-28.40295
-2.0243626,1.9521836,-7.2909374,38.130672,50.202847,-32.64221
-1.5739785,2.4740486,-7.1804886,32.86121,40.189045,-34.701073
-1.243505,2.7242837,-6.9201117,31.191969,27.985455,-38.58801
-0.65429693,3.0187829,-6.824079,21.521627,15.366341,-40.801445
0.1688925,4.0245056,-6.3868136,18.678898,3.9519734,-41.901154
1.4799093,5.9663467,-5.438717,10.881065,-1.313433,-49.638203
2.6097903,7.4095106,-4.483541,-0.44788444,-4.0324125,-58.60703
3.7336485,8.772773,-3.081711,-11.085222,-2.6380258,-68.89533
4.5254116,10.045723,-2.4572086,-40.058388,7.3634214,-75.13834
4.542333,10.122117,-1.7510214,-61.463608,15.779545,-85.5276
4.388975,9.360741,-1.6684079,-64.32617,26.959366,-121.91389
4.177234,7.5065618,-1.7855659,-51.23504,38.93508,-174.53885
3.146787,6.8742166,-1.9924964,-56.339764,42.2965,-188.73811
2.1506612,5.949637,-2.205624,-99.57155,24.86401,-159.62772
1.7536739,3.752203,-2.393673,-127.24371,8.656294,-140.11423
2.1221743,0.31167248,-2.2010117,-138.95667,3.7953389,-132.84325
2.2525587,-3.6224442,-1.5469347,-115.42729,9.41662,-161.00092
2.194196,-5.6572533,-0.7870154,-91.79171,13.869026,-177.78477
1.2970766,-6.6748757,-0.56528866,-94.96811,11.4221325,-143.96376
-0.15928671,-9.208578,-0.91600406,-90.85083,-2.1745052,-113.269066
0.27279314,-10.6685095,-0.810761,-81.0035,-7.601068,-93.49374
1.0486815,-11.505457,-0.2666485,-56.78386,3.2099988,-88.89283
0.7750975,-11.076582,0.075471394,-31.550476,15.6404705,-76.63474
-0.115422316,-10.073725,-0.012997342,-12.594906,18.582832,-56.802166
-1.6633288,-8.375494,-0.3691114,-4.5834804,16.799612,-42.065983
-2.0439847,-6.987384,-0.5586384,2.4341798,12.161151,-29.276371
-2.317764,-5.4220114,-0.6754063,5.249354,7.956928,-18.394196
-1.9724237,-3.9934306,-0.86221373,3.9274116,6.797913,-8.707434
-1.8851631,-3.4505956,-1.6631306,1.2653224,2.0173306,8.79902
-1.9315137,-3.346169,-2.3900125,4.879528,-2.4319334,14.32609
-1.8218628,-2.9729939,-3.0721693,11.723761,-4.2513127,17.908428
-1.6896896,-2.3635793,-3.494346,18.867521,-9.068594,15.791797
-1.5749841,-1.626513,-3.8331347,18.49131,-6.103486,21.904757
-2.0104878,-0.42921013,-4.61303,11.367811,-19.193056,32.61577
-2.7042975,0.6652064,-5.5767746,5.580079,-27.420465,37.62729
-3.3546174,1.0843048,-6.198539,-4.9692,-39.216625,45.65867
-4.2735763,1.5718592,-6.948782,-12.78423,-52.11066,46.675423
-4.6572995,1.6142931,-7.281878,-20.279753,-73.62552,43.39421
-4.46119,1.9621297,-7.0622187,-28.454226,-92.10628,32.690716
-3.9311626,2.3062227,-6.9524517,-35.009167,-105.570244,35.139137
-4.19043,2.312176,-7.054417,-48.9225,-115.92456,36.049248
-4.6403775,1.7451656,-7.274347,-56.985466,-134.50883,37.57061
-4.2681136,1.3519694,-6.9633517,-59.410442,-155.36183,26.828554
-3.6697817,1.1348416,-6.2986865,-67.375244,-175.98729,17.408634
-2.5947192,0.56218976,-4.9289246,-70.155205,-195.72452,9.898146
-0.6585511,0.52810806,-3.2293603,-77.28287,-210.13101,9.849874
1.8860013,0.7004191,-1.323636,-80.32919,-210.06532,9.6362705
3.4742112,0.04490899,0.39031857,-82.87389,-199.44748,8.450802
4.906165,-1.8360841,1.7338408,-83.01364,-198.04132,2.194797
8.974136,-3.6388292,4.6033654,-68.64598,-178.08278,-3.7202086
11.242935,-4.1914897,7.0899677,-55.476402,-138.9482,-3.8561857
12.094052,-3.9031835,9.220054,-41.45776,-101.21404,1.2459342
11.563722,-2.1539617,10.45098,-33.568783,-65.86459,4.3663545
10.639683,-1.6652696,10.571261,-34.290543,-24.85743,13.272719
8.599736,-2.055525,9.279459,-36.84547,2.2819998,26.24527
6.5294642,-3.4620697,7.933115,-31.837822,22.269096,36.922077
4.0947247,-4.1926637,6.318777,-26.932787,29.675873,40.052834
1.6415496,-5.4521546,4.5565867,-21.646118,23.831156,44.240295
0.5784913,-6.884306,3.4355023,-6.2050657,14.317631,53.58583
-0.13719708,-8.47806,2.316638,21.444904,13.917291,49.656544
-0.99883765,-9.239916,1.3545884,45.96931,11.69135,47.85466
-1.4056287,-9.142536,0.7997095,64.4588,3.6750402,57.528183
-1.5290505,-8.657115,0.2861258,82.87408,-2.7572377,74.75377
-1.5705825,-7.9463973,-0.5455064,108.91047,-13.7042885,78.66853
-0.80854523,-6.159454,-0.65099186,121.9021,-15.412318,85.5979
-0.2755495,-4.9214096,-0.43576595,132.04117,-10.469852,96.97233
0.78596705,-3.3040385,-0.4449786,138.6806,-7.2570143,104.15889
1.0824187,-1.514396,-0.39477444,139.56145,-2.2597132,104.380226
1.2211651,-0.44397968,-0.62529147,136.16109,9.5284,106.73391
0.37603828,0.13868271,-1.2972535,135.0214,9.070632,111.7463
0.17354146,1.0402167,-1.326075,130.58562,8.930013,107.67176
0.81522715,3.1078386,-0.89657027,127.29332,7.4608197,101.68693
0.6923782,4.655944,-0.7892018,116.11553,12.319412,95.12301
0.15851587,5.5651975,-1.2274088,94.50254,12.946788,91.73167
-0.39380774,5.488418,-2.5383725,75.95048,7.339667,81.857315
-0.14711529,4.861852,-3.1785538,69.40517,4.064064,73.30621
0.21086393,4.149593,-3.3691552,67.22673,-4.6279416,58.3096
0.8959638,4.3928237,-3.2145047,58.664238,-8.709429,46.981453
1.3610637,5.1165504,-2.9937868,44.70214,-8.551089,41.742706
1.4621004,5.994534,-2.851598,32.07273,-11.437669,36.545204
1.6209462,6.9519835,-2.6976964,20.11745,-17.666508,20.169231
2.114939,7.3769903,-2.428312,7.275715,-19.907469,12.582742
2.9862149,7.5309978,-2.0360487,-6.183798,-19.86236,4.628231
3.9197636,7.415801,-1.8235873,-24.244677,-13.916101,-11.973021
4.7178926,7.48716,-1.2968565,-35.083607,-4.133679,-23.883287
4.4070444,7.8569126,-0.82245314,-50.10916,2.936728,-32.07053
3.9752395,7.967343,-0.90678346,-62.598835,5.9064274,-48.307972
3.7835855,7.756614,-1.0304582,-78.589096,7.507326,-55.86841
3.8128479,7.584295,-1.1956754,-100.12264,11.0250435,-64.57463
4.1092925,6.857808,-1.0680561,-109.51284,15.822845,-74.51247
3.8345706,6.3818145,-1.5684084,-120.41421,24.114586,-85.87399
3.3609812,5.2400174,-2.113655,-128.10481,25.474577,-97.46738
2.766092,4.064615,-2.6998293,-128.0766,26.246824,-108.39968
2.3099732,2.6514583,-2.7365618,-130.12321,30.20842,-125.60163
1.7189553,1.551604,-2.9013293,-126.929276,28.687954,-130.9658
1.2351207,1.0015235,-2.852764,-131.1645,23.727415,-137.04793
1.0604376,0.16854608,-2.6496172,-135.84807,18.373846,-135.44061
0.78268385,-0.9383729,-2.4371989,-134.17354,10.639956,-137.9576
0.9218165,-3.205509,-2.5056045,-125.73433,0.7960105,-143.39984
1.6692808,-6.4148884,-2.032695,-117.26587,-0.29145265,-133.01088
1.5617877,-8.3258705,-1.4682504,-104.617195,1.5670369,-120.51111
0.86705977,-9.781368,-0.97020304,-87.01195,6.559502,-105.04027
-0.44998848,-10.276052,-0.94286615,-68.675896,2.942443,-94.93025
-1.7427748,-10.324246,-0.59192055,-52.028713,-0.86701727,-76.55923
-2.5336022,-9.395654,-0.033482514,-35.19115,-11.655926,-58.10161
-2.471495,-8.688168,0.60086334,-25.220446,-13.095043,-44.30649
-2.1066952,-8.13458,1.3255467,-15.159969,-12.936686,-31.701519
-1.6328614,-7.615126,1.7250304,-4.385594,-9.0575485,-18.361021
-1.3780353,-6.3624506,2.0129533,2.213243,-3.5126288,-6.1705256
-1.4310336,-5.4998183,2.2667916,9.401843,4.642293,8.641572
-1.516567,-4.559257,2.2696412,13.575248,0.825221,14.424833
-1.2921479,-3.5999854,2.3962195,18.415861,-2.1020577,22.345268
-0.47206324,-3.0665994,2.6619947,25.309511,-0.7034412,25.089941
0.27622452,-3.05757,2.9113822,33.064095,6.407692,28.687756
1.6339681,-3.1268842,3.0669248,36.642036,15.616691,34.12321
1.5158553,-3.108015,2.9033267,43.994755,22.396198,43.467144
1.175326,-3.0586758,2.6580968,49.54216,29.118938,47.570324
