ax,ay,az,gx,gy,gz
-0.33386064,0.07818391,-0.53257006,0.74857414,0.48604584,24.89817
-0.53523624,-0.8575597,-0.0898138,17.116055,-10.861934,15.757814
-0.70794094,-0.34234554,0.36864516,19.634335,-18.426949,21.13468
0.040342383,0.055932216,0.52219045,16.23384,-6.7968154,13.764328
-0.21787724,-0.11634303,1.4763432,5.0121775,4.026072,12.019504
-0.15334174,0.20891121,0.05609423,-8.843061,0.5541043,4.9965467
-0.16724971,-0.11577645,0.74803996,-18.664688,6.8805175,-3.3430552
0.17811711,-0.17062385,0.2802705,-18.03848,13.32629,-2.451465
0.14620751,-0.48259312,0.82204777,-14.251026,14.801465,0.14879346
0.18769157,-0.49397707,0.6478918,-7.9049616,7.273559,-2.3079293
0.020092584,-0.82496065,0.7861173,3.4301422,13.022119,-8.250941
0.23814079,-0.19019528,0.23722512,3.5098124,11.943786,-0.10493076
0.18615523,0.24970412,0.38668454,5.074572,18.911652,1.4070536
-0.019211113,0.17426223,0.82973397,4.2933745,18.22933,2.7313044
0.16730767,0.17688549,0.17395312,0.51198864,12.507368,-2.070318
0.23975387,0.05480423,0.2175748,-1.3847072,16.310627,0.74504066
0.29255736,0.24137694,-0.1431424,-2.1289756,14.468819,7.788893
-0.076302156,-0.32329783,-0.27350286,5.8061395,20.59362,2.4859056
0.103068665,-0.3430552,-0.27013433,9.583114,13.226366,-0.7523804
0.440269,-0.34021086,-0.5652554,11.681309,12.867974,5.837743
0.311749,-0.8502063,-0.85781515,14.439942,16.569433,2.8306098
0.35559174,-0.6004493,-1.9054824,26.980244,20.369883,2.7080793
0.056052774,-1.0667285,-2.4449506,42.155106,10.142693,-10.57373
0.73100877,-0.8269646,-4.30755,47.498837,4.9286003,-12.460762
1.7278206,-1.3064059,-6.4427,34.636967,-0.6130514,2.5034962
2.8079045,-0.70672864,-10.931623,4.9791775,-7.783769,12.219302
-0.085020885,-4.662333,-21.02943,-4.5689144,-53.940247,3.7525492
-3.9238043,-10.701115,-28.249784,37.78245,-134.17871,1.8185437
-4.5970907,-13.627967,-30.417215,53.825108,-220.84482,34.5153
-2.9345834,-10.504999,-28.956053,29.738203,-300.52988,92.69332
-2.8334491,-6.076124,-26.884342,3.8072107,-378.41183,127.89009
-0.400478,-1.5154074,-23.166622,-15.657724,-448.39865,138.0171
3.9676938,1.9116231,-16.332216,-27.5464,-485.3362,139.4658
11.648032,4.9534674,-7.484414,-45.278877,-513.55786,118.020966
21.137234,6.123994,4.6078544,-75.76399,-505.1947,89.81916
27.410053,4.9787345,16.612358,-88.15193,-385.68222,55.994434
29.848099,0.86323285,25.872984,-77.71764,-283.03156,29.497488
28.48593,-1.4004287,30.474482,-60.413208,-174.29495,26.660118
25.429348,-1.2775329,29.430733,-33.3553,-72.38466,35.83258
20.983047,0.21994883,27.515728,-21.848566,10.840715,42.0663
16.648258,3.1196191,23.8595,-11.398468,86.37027,33.74145
12.98976,3.3441882,19.217846,9.169762,124.06009,5.4475555
11.994318,1.1722951,16.337723,45.275223,173.78844,-23.161306
11.818741,-0.93683106,13.410936,73.04846,206.43744,-46.006973
11.697418,-1.9550886,10.959736,86.08978,247.46367,-42.660603
11.16056,-3.0343065,8.42684,91.67616,284.14575,-28.828856
9.284878,-3.2319627,4.862385,110.90549,302.04834,-19.588903
7.717743,-3.9901886,1.9977894,141.83356,338.1288,-16.204748
6.007158,-4.1664524,-1.2719083,160.82954,354.85928,-19.571087
4.4805937,-4.8061757,-3.5959234,152.66818,374.39825,-4.5368533
2.3570957,-5.719921,-6.911381,152.48557,355.0064,17.16032
0.81041574,-6.6534033,-9.213844,143.85606,327.606,41.201645
-0.6425413,-6.451735,-10.273649,124.97409,289.37848,60.755936
-0.18814783,-5.95886,-9.496744,104.191895,258.16974,74.35319
0.2994845,-6.434937,-10.061063,93.02579,235.0962,91.692314
-0.09556537,-5.471858,-9.665812,107.697525,203.53876,105.212204
-0.3908348,-4.6202435,-10.274025,115.47173,180.81683,112.4407
-0.4334885,-2.797005,-11.104207,118.70786,150.76236,112.25757
0.21898738,-1.4982117,-10.51285,120.02826,123.53908,101.700874
0.71692026,-0.2668895,-10.122175,106.286476,90.97318,96.26263
1.4863278,1.4403309,-10.340861,94.553894,57.62856,82.221
2.9342847,4.214964,-10.606187,91.17447,11.634141,47.644375
4.2868185,6.6996646,-10.37414,82.230385,-20.833502,15.65661
5.8338776,9.010547,-10.786663,78.45846,-37.966526,-5.8492813
7.1623273,12.079713,-11.269545,55.040974,-64.95103,-36.450657
7.692288,15.094477,-11.489599,28.70352,-90.26915,-74.635284
8.008114,19.082315,-11.136021,3.041976,-109.457954,-124.29787
8.099938,20.207111,-11.721693,-21.692276,-134.46605,-188.82625
8.681702,19.341345,-10.878444,-52.826385,-165.68738,-240.26675
9.628816,16.69648,-9.234446,-93.46485,-176.11403,-283.9615
9.898784,10.912159,-7.112804,-130.0817,-199.09767,-332.7102
11.739942,-1.1580935,-3.105862,-155.07741,-219.71213,-328.9794
13.908019,-10.578198,1.18769,-182.72752,-211.96614,-298.15552
13.412518,-18.9637,2.7542622,-157.8741,-171.41843,-258.46463
11.703157,-25.08685,3.5402951,-120.066765,-148.53433,-207.29965
9.167334,-27.372433,2.5230155,-48.360905,-113.27803,-134.30914
3.2344618,-24.09445,-2.9358604,-2.5827646,-97.32342,-95.26702
-0.8087951,-19.31966,-9.125235,26.942532,-114.002754,-64.01576
-2.9836738,-15.70946,-14.034386,23.478703,-170.19244,-40.73479
-4.219625,-12.693541,-18.326063,13.143646,-222.1975,-14.6232
-5.139845,-11.49613,-21.558882,-13.265732,-324.5225,9.46883
-3.813528,-10.859333,-18.90829,-30.843071,-363.40097,32.851418
-0.74706364,-9.19363,-13.406028,-16.32782,-397.24094,59.206013
3.65734,-5.60176,-6.945628,-8.521226,-400.1769,68.03062
7.9993076,-2.0724776,0.36461836,-17.292011,-403.98154,62.269444
12.808852,0.9000306,8.98376,-39.69077,-370.36646,68.712845
17.958046,3.398829,18.606754,-57.443916,-305.4704,77.92064
19.704035,3.7636323,24.290586,-67.93232,-224.8988,66.90033
20.329443,3.8550477,27.693317,-69.54193,-134.20541,59.51713
18.381933,4.094786,26.866705,-45.92237,-23.251713,37.52192
15.447269,4.2754655,23.6918,-36.320118,72.88627,21.921833
10.103889,1.2615162,17.054462,-30.341616,107.887825,2.3925261
7.510934,-1.3699435,12.812616,-27.821884,123.42908,-8.827235
7.7486067,-4.888024,10.685079,-20.114655,142.48479,3.7340767
7.362693,-6.7609706,9.410679,-16.809475,169.94098,12.553755
7.328191,-8.089211,6.9097033,-29.533411,215.55353,17.934216
6.2097206,-10.31329,2.0562358,25.70191,236.00276,59.10197
4.43712,-11.633878,-1.2198205,71.9488,236.67227,89.30963
3.238458,-12.238136,-3.6192904,99.54845,233.99011,125.38215
3.0900304,-11.706931,-5.5584483,114.21552,232.9135,161.90326
3.1889992,-11.008458,-6.7673855,115.228516,228.54297,225.76695
2.8279808,-7.861992,-8.244782,109.54458,225.91707,258.73724
2.400427,-5.176062,-9.421644,113.68682,212.73445,272.42545
2.1259851,-2.492185,-10.502142,109.27688,195.98293,288.43533
1.6407495,-0.7180847,-10.408458,111.071495,168.71378,290.23846
1.8263016,1.4965961,-9.842238,92.14045,116.31434,278.76474
2.669124,4.353369,-8.207329,78.46181,103.009964,263.94595
3.1837208,5.731975,-7.173091,74.11381,95.45186,240.86499
3.5141032,7.849787,-6.3976903,72.26743,81.577774,228.29514
3.3570437,9.735958,-6.1853623,76.645004,73.62607,200.46092
2.8516138,11.3033495,-7.2127633,58.32252,33.23709,145.80829
2.7362356,12.463187,-8.735382,38.08409,11.863932,110.38294
3.331267,11.48227,-10.407905,32.84865,-27.607576,71.23518
6.13353,14.083552,-10.519682,34.80002,-48.07972,47.577248
9.184218,18.540794,-10.077112,10.800677,-53.856625,8.611318
10.583755,24.41713,-11.566674,-56.36216,-70.8074,-68.29995
9.077784,28.715775,-14.811789,-114.33453,-97.28058,-140.61838
7.9771442,27.415113,-18.526733,-144.28503,-128.10039,-219.27107
8.683336,25.02007,-20.63107,-155.91962,-192.18596,-307.92313
12.392619,20.598814,-19.422342,-157.96129,-252.82675,-383.49026
16.691137,13.833543,-15.017336,-206.93472,-284.2263,-436.70975
21.020393,-0.20880812,-7.274075,-249.51665,-318.92123,-426.73892
25.679764,-13.077872,0.7608514,-259.32352,-305.44885,-390.7697
29.372004,-23.721321,11.613299,-235.85754,-228.6389,-331.6774
27.889439,-31.272066,18.884256,-220.88913,-111.76318,-248.97319
19.804436,-33.50588,16.77807,-170.26527,16.252583,-133.75522
6.605205,-30.24867,9.044353,-112.890434,46.759113,-68.78814
0.638614,-24.102276,6.081284,-41.741306,66.44558,-34.39048
-2.4684684,-16.56679,2.4122055,-6.1053348,85.15741,-13.57838
-4.340234,-10.824206,0.32025677,-4.25383,70.79107,8.325909
-5.0249696,-6.782621,-1.3101397,-11.823361,47.53704,15.318396
-5.1649833,-2.971366,-1.4262259,-13.6393,41.28302,18.234571
-4.51742,-1.1532747,-0.72548556,-17.042864,24.498415,22.734982
-3.7769427,-0.23777232,-0.34977722,-19.579094,10.305453,20.26404
-3.301536,0.8141397,-0.091144085,-17.660236,7.643111,18.430387
-2.593372,0.8963404,0.24878055,-21.974178,1.6185969,21.689272
-1.5673628,1.4227369,0.4519059,-31.596445,3.14118,30.597755
-0.9962409,1.5292405,0.6050962,-29.083254,4.0020776,30.642405
-0.8300293,0.53074265,0.07964894,-23.329287,-0.7305228,25.363358
-0.4455767,-0.05370243,-0.11368801,-18.061813,3.4182663,17.323732
-0.46359643,-0.54899657,-0.12769757,-14.997043,-6.629409,11.953745
0.121430725,-0.759643,0.10343239,-9.82064,-0.82826424,15.326676
-0.013327897,0.14595312,0.20612124,-13.559071,-4.142295,19.904919
0.3970908,0.12918149,0.5279293,-3.5881953,-5.5195327,18.157686
0.3000212,0.5713757,0.14682952,2.1031873,0.32761014,16.064085
0.5642272,0.7283684,0.72395843,-4.877135,7.4803762,10.640626
0.17106363,1.124611,0.5058675,-12.278077,-3.1062572,10.209753
0.24925564,1.3302873,0.45931265,-9.279416,-1.1858977,2.105382
0.30823845,0.90924925,1.0124896,-13.856108,3.75697,5.176776
0.171622,1.6278188,0.43540877,-16.334759,10.238518,0.1654191
-0.1423933,1.195595,0.46842313,-21.982399,8.741703,1.3620542
0.048045576,0.7032913,0.21422648,-32.20225,5.794281,-5.758678
-0.43798864,0.31214756,0.3530597,-37.237453,2.254322,-9.344202
0.0,0.0,0.0,0.0,0.0,0.0
0.0,0.0,0.0,0.0,0.0,0.0
0.0,0.0,0.0,0.0,0.0,0.0
0.0,0.0,0.0,0.0,0.0,0.0
0.0,0.0,0.0,0.0,0.0,0.0
0.0,0.0,0.0,0.0,0.0,0.0
0.0,0.0,0.0,0.0,0.0,0.0
0.0,0.0,0.0,0.0,0.0,0.0
0.0,0.0,0.0,0.0,0.0,0.0
0.0,0.0,0.0,0.0,0.0,0.0
0.0,0.0,0.0,0.0,0.0,0.0
0.0,0.0,0.0,0.0,0.0,0.0
0.0,0.0,0.0,0.0,0.0,0.0
0.0,0.0,0.0,0.0,0.0,0.0
0.0,0.0,0.0,0.0,0.0,0.0
0.0,0.0,0.0,0.0,0.0,0.0
0.0,0.0,0.0,0.0,0.0,0.0
0.0,0.0,0.0,0.0,0.0,0.0
0.0,0.0,0.0,0.0,0.0,0.0
0.0,0.0,0.0,0.0,0.0,0.0
0.0,0.0,0.0,0.0,0.0,0.0
0.0,0.0,0.0,0.0,0.0,0.0
0.0,0.0,0.0,0.0,0.0,0.0
0.0,0.0,0.0,0.0,0.0,0.0
0.0,0.0,0.0,0.0,0.0,0.0
0.0,0.0,0.0,0.0,0.0,0.0
0.0,0.0,0.0,0.0,0.0,0.0
