ax,ay,az,gx,gy,gz
0.9951675,0.4889784,-0.9406753,13.257681,17.67233,-4.2253823
1.081412,0.05606782,-0.5564476,-4.5535727,24.48832,-7.169521
0.6277853,0.18859732,-0.9872941,-5.869283,23.757086,-15.603537
0.4012247,0.4291976,-1.0394655,-6.593274,6.946996,-9.819112
-0.08118616,0.68465006,-0.79784995,-8.530088,2.2464883,-6.28769
-0.32337373,0.7378988,-1.4852017,-16.055817,-1.2485989,-4.176362
-0.26857993,-0.4208308,-1.2420644,-9.684293,-5.690166,1.11119
-0.42723474,-0.29226318,-1.2441864,-11.08272,-10.087059,2.154537
-0.70308095,-0.49575573,-0.44941914,-3.0566561,-11.183657,-0.94505274
-0.54167,-0.26027447,0.11734297,-0.84878504,-6.279294,-1.3949466
-0.16725954,-0.2563252,0.7312305,4.534658,-4.0396333,0.98665446
0.064186096,0.29411379,0.8286804,7.9018884,-2.540038,1.7549651
0.34969455,0.60809326,1.019824,5.068448,6.5824566,0.0016555786
0.59893507,1.2358001,1.2858218,7.5854244,8.652637,-0.5127483
0.42511088,1.6718565,1.0865788,-1.419845,9.069935,-3.12933
0.12214534,1.1942283,0.73649114,-8.166113,14.734909,-3.1129575
0.14569588,0.44478953,0.23630433,-8.980525,9.062534,-2.4474735
0.24104954,-0.013660304,0.06546571,-12.839079,8.646908,-8.374995
-0.14975828,-0.23733549,-0.21720187,-11.71536,14.629551,-7.634908
-0.45156634,-0.6074272,-0.49266604,-7.559186,8.954565,-4.8830886
-0.5851232,-0.65493214,-0.6917109,-3.8499007,1.1382728,-3.389619
-0.5570913,-0.7937408,-0.43008757,-2.5516553,6.4492483,-0.8678363
-0.48574516,-0.4595069,0.09126538,7.6480446,-3.431713,3.6021447
-0.5338458,-0.14186843,-0.038195975,9.76142,-4.155294,2.8260167
-0.014194109,0.46096656,0.3649025,14.879799,-0.8127395,0.79294825
0.33964396,0.652658,-0.01946308,17.643959,-0.9055271,-5.334776
0.975653,1.015731,-0.26547083,8.938451,9.73522,-5.1943
1.2792788,0.7257346,-1.0828073,1.0318356,12.734236,-1.9244868
1.3326391,-0.026369229,-2.1378725,-5.3247576,13.259722,-3.1288743
1.7120848,-0.4979532,-4.2362733,-10.144466,8.607758,1.2594751
2.0581377,-1.4365199,-6.6972017,-18.57071,4.4888206,8.091884
2.126095,-2.227579,-10.29609,-31.73885,-12.270358,21.128723
1.4155666,-3.7838008,-12.96721,-53.651356,-39.75331,36.496174
0.36321202,-5.297733,-15.272372,-70.373436,-81.08772,57.838432
-1.4778175,-6.892392,-16.806364,-71.25657,-119.78772,68.75445
-2.4014719,-7.658564,-16.781025,-48.115818,-168.3821,52.180088
-2.3921824,-7.1501446,-15.77917,-20.104221,-197.3104,47.373722
-1.3028734,-5.6950927,-14.717402,-9.331198,-232.30287,58.504543
-0.61088896,-3.5434823,-12.237632,-8.267349,-281.53613,77.76733
1.5640671,-0.81810737,-6.3770795,-16.486662,-320.7698,82.9086
6.9389,-0.10957086,0.39001146,-26.382786,-342.03677,87.51509
13.079335,1.5819438,9.638825,-57.263336,-316.71515,91.97187
15.967481,2.4821718,16.928701,-57.498703,-249.74274,83.60578
15.2717085,3.2393231,21.402565,-23.391682,-144.48235,47.17023
12.962842,5.6659803,23.776472,-21.6134,-85.32073,32.90854
10.852238,6.5925426,23.6767,-25.313595,-39.48214,18.477674
8.538124,6.8460116,22.606857,-23.38837,11.523472,13.9495125
6.236845,7.08072,20.36267,-15.882683,54.622234,2.4417896
5.2308917,6.238496,17.522787,8.59944,89.95475,-25.797323
5.004347,5.1617703,14.199425,22.248785,113.38942,-42.243835
5.719701,4.340328,12.207961,24.093739,142.49838,-48.67
5.808033,2.9997156,9.605275,24.97555,171.08739,-56.355007
5.5455422,1.0771264,6.8985114,26.736439,195.5527,-64.08681
4.731579,-0.22898284,4.8135967,31.267027,213.52757,-60.406223
3.5631125,-2.0311024,1.8454615,24.795868,222.88428,-57.379
3.3012044,-2.6815784,-0.11309391,22.802376,231.51762,-51.8807
2.6410692,-3.1097574,-1.7188594,25.007149,235.62973,-40.182144
2.1918883,-3.789149,-3.518881,19.215729,239.98369,-20.406315
1.2474016,-4.4127083,-5.0870194,36.92113,234.19653,-7.719664
0.16749778,-4.8245482,-6.379961,47.759743,222.44366,-0.5576091
-0.32267466,-5.093112,-7.3710804,57.60067,209.14978,16.53359
-1.1987956,-5.0737786,-7.920042,60.308235,203.7055,29.699717
-2.067828,-4.9063253,-8.849704,72.96457,182.21307,46.474117
-2.2298322,-3.8187602,-8.992095,74.722015,142.25159,60.815548
-2.0841222,-3.3775995,-8.0733385,77.117455,114.51385,55.836365
-0.93611765,-2.8284893,-7.2672844,81.09622,66.123795,59.565155
-0.042018045,-2.2375624,-5.921979,77.143745,44.092525,59.67283
0.9171171,-1.7977175,-5.2341447,76.704155,13.944232,58.2785
1.9015955,-0.75129354,-4.1817307,75.06336,7.2952833,69.47547
2.6526246,1.0264368,-3.6329157,71.667854,10.975976,77.970894
2.4067512,2.706028,-4.7872996,105.644554,2.6291347,65.12266
2.087837,6.211967,-5.679276,143.09053,0.4603629,35.044518
1.8004782,10.045794,-6.5281525,173.87253,-37.58291,-27.539442
2.6955314,13.849138,-6.551172,153.54996,-68.897026,-103.51667
3.9476657,16.912088,-6.381117,84.54794,-76.25349,-132.75645
3.6746964,17.978575,-6.62938,15.317711,-81.581116,-167.24048
3.915828,17.148167,-6.4972467,-53.00952,-88.87817,-199.4833
3.9195175,14.223077,-6.8253794,-104.281815,-102.45963,-217.58055
4.1194715,11.301016,-6.093249,-159.09369,-115.31303,-238.9943
5.936453,5.44673,-4.094061,-182.00253,-129.86795,-249.62227
8.067878,-0.021688573,-2.4059486,-200.56288,-128.23264,-245.79852
9.512192,-6.3169713,-0.9316258,-196.28058,-101.68519,-228.04532
9.01361,-12.364922,-0.12749496,-159.36203,-77.23126,-198.31155
6.905543,-16.906477,-1.1004288,-80.78506,-64.11978,-141.67578
4.5360494,-18.456059,-1.7273358,-13.425805,-64.76029,-104.70449
3.1520238,-16.374863,-2.8428006,48.199795,-73.50519,-68.32974
1.7081082,-12.81551,-4.4522796,80.16255,-83.927505,-46.43607
0.43727368,-9.3840065,-7.165946,97.28542,-113.2927,-20.312426
-1.3586867,-7.3142967,-9.969467,81.62376,-196.9792,13.922148
-2.5402687,-6.6036477,-12.342834,68.91204,-275.25363,38.805214
-3.2318487,-6.450111,-14.279186,51.335712,-370.2287,68.61598
-2.4480562,-5.6695957,-14.096977,35.27776,-436.6554,100.14687
-0.43880898,-3.542848,-13.380892,14.730068,-499.53537,123.756035
2.191941,-0.9935638,-10.465501,-12.145437,-525.41974,114.66374
7.969588,0.44907838,-2.8822973,-24.462975,-509.8176,103.631744
12.806943,0.26450998,5.1148915,-6.044327,-428.59662,102.70247
15.2690325,1.169396,10.909413,25.025246,-274.073,82.671745
14.207481,0.8784159,11.192722,48.459717,-151.33937,50.059586
10.795123,0.36773425,9.01676,38.66102,-113.47824,27.049576
8.651523,0.99147713,9.462888,9.611423,-88.70974,35.682648
8.278254,2.3391564,10.438517,-32.34616,-58.679417,43.587006
7.804066,2.6110353,11.320582,-73.860985,-7.676024,39.11086
7.4862757,2.731463,11.141563,-102.54315,37.943214,8.683259
7.1971164,1.9615897,10.011722,-105.35416,96.13045,-14.567735
5.968764,-0.3017057,6.718411,-69.12403,99.97716,-18.896255
5.5001173,-2.826866,6.41067,-12.913155,106.4799,-18.38433
5.8335724,-3.1816106,6.235798,-2.5005546,131.32903,-5.706895
5.6080546,-4.0316653,5.4892716,-3.5608501,167.35738,10.090658
5.3562446,-4.6749105,4.165987,0.71954316,197.47023,17.547281
4.0821853,-5.549039,1.5723236,27.452126,215.08234,26.78467
3.1883593,-5.3622246,-0.18402067,56.913494,212.42001,36.66496
3.1298733,-4.469708,-0.3014168,60.657272,215.06453,54.098713
3.5053768,-3.7082617,-1.0622923,57.418137,230.28123,77.22926
3.1495912,-3.6831367,-1.8356304,56.093555,244.74593,108.13074
1.30332,-3.8014467,-4.1711736,69.644455,238.80022,128.54088
-0.036961645,-3.347223,-4.8158736,63.323845,216.80946,149.40968
-1.01242,-2.3533337,-5.7198076,51.219204,204.99142,155.78613
-1.2483916,-1.7509334,-5.9725404,31.363512,182.49643,175.03752
-1.4422466,-1.5124501,-6.2490525,42.928104,147.23178,194.02834
-1.5033016,-1.1298455,-5.928132,34.330265,118.60963,207.96986
-1.363342,0.30487525,-5.8771906,34.972157,103.799934,218.11293
-0.8414208,0.778255,-5.6106973,50.987686,80.28015,216.43042
-0.4326744,1.7182407,-5.539474,65.37553,73.6517,213.51294
-0.34793383,3.326296,-5.9071264,80.044975,47.885162,196.7273
-0.6192137,5.755314,-6.256805,87.352104,29.610228,174.93391
-0.6629966,7.598769,-6.33847,82.663246,5.2841606,144.76405
-0.017723385,8.679518,-6.3524942,83.49516,-23.820143,115.146645
1.5843582,10.453442,-5.6620884,93.42098,-50.35908,75.39065
3.264216,12.991057,-5.248117,79.40033,-56.40057,18.972082
3.7993798,16.884562,-6.2613745,56.23488,-51.946053,-28.141745
2.7908409,19.745102,-7.792484,14.865577,-78.54751,-82.1105
2.143778,21.109728,-9.399595,-40.148937,-100.74851,-130.04305
2.1059482,21.293821,-11.194724,-79.544075,-130.48804,-193.15282
3.8041372,18.450428,-11.414719,-119.56171,-169.28172,-275.11508
8.546418,13.755537,-8.445126,-162.00957,-186.62552,-317.8545
10.162685,9.725253,-5.859004,-220.9427,-196.69733,-321.93372
11.890259,4.670143,-3.8362432,-253.2294,-206.6981,-320.09183
13.947317,-1.0431645,-0.9559711,-266.01294,-202.90468,-315.06326
15.371263,-8.226512,2.314683,-257.7759,-162.1711,-287.45547
15.223674,-15.147746,5.961265,-240.79442,-106.19743,-239.60312
12.336481,-18.477198,6.658464,-183.72612,-46.37891,-195.03618
8.116061,-20.170967,5.8997216,-105.779594,-6.4745464,-138.14459
4.551352,-18.58806,4.43978,-35.067753,18.610788,-88.88896
2.3328292,-14.414541,3.2457385,5.951621,34.523476,-44.98676
0.26761597,-10.078572,1.3945352,12.67066,35.254627,-18.307121
-0.7920866,-7.5421457,0.20029968,-0.6441093,26.1543,10.434706
-1.4126137,-5.7210712,-0.24318758,-9.378092,23.008791,33.466644
-2.0369654,-4.133431,-0.835398,-2.1045527,14.357852,39.824276
-2.0028307,-2.9886632,-0.86926305,6.127533,-0.73317945,36.40504
-1.3853691,-1.0767764,-0.07832605,3.9955628,-8.982777,43.175674
-1.0974287,-0.27007282,0.247635,-0.30289012,-3.0622795,38.770428
-0.7658448,0.07832587,0.42884558,2.185616,4.483825,38.157444
-0.49435005,0.67959374,0.78123426,2.8272407,7.0041447,37.0446
-0.22796768,1.2043903,1.1058089,-2.2275631,18.660683,31.74833
-0.6886629,1.4789135,0.4851038,-10.311266,18.574535,28.500446
-0.98761505,1.560926,0.6278349,-20.583273,18.820868,22.551077
-1.1158285,0.838422,0.20330808,-25.814682,19.985563,28.375607
-0.9517573,0.6496077,0.17994288,-27.915466,18.774662,23.360554
-0.73219097,0.08707755,0.018666252,-12.898039,16.586945,16.946114
-0.85404134,0.6783469,-0.047339194,-6.403115,12.0616665,14.356664
-0.7867549,0.96180475,-0.33447105,-1.2084978,-0.26072145,11.504705
-0.5096894,1.3224456,0.22686169,-7.67132,-4.093724,9.217337
-0.3821776,1.7005044,0.3811103,-14.683799,2.888875,12.674685
0.13177179,1.531378,0.77124333,-22.344128,-2.2265635,9.056763
0.16409808,1.0302548,0.8814713,-19.856129,5.666836,6.664688
-0.21947116,1.2552118,0.17175297,-8.351791,10.6738,-5.9049816
-0.37244877,0.6051361,0.27585995,-11.634602,12.163187,-10.589975
-0.347575,0.723949,0.041558467,-17.493988,2.8281615,-19.158264
0.0,0.0,0.0,0.0,0.0,0.0
0.0,0.0,0.0,0.0,0.0,0.0
0.0,0.0,0.0,0.0,0.0,0.0
0.0,0.0,0.0,0.0,0.0,0.0
0.0,0.0,0.0,0.0,0.0,0.0
0.0,0.0,0.0,0.0,0.0,0.0
0.0,0.0,0.0,0.0,0.0,0.0
0.0,0.0,0.0,0.0,0.0,0.0
0.0,0.0,0.0,0.0,0.0,0.0
0.0,0.0,0.0,0.0,0.0,0.0
0.0,0.0,0.0,0.0,0.0,0.0
0.0,0.0,0.0,0.0,0.0,0.0
