ax,ay,az,gx,gy,gz
2.4403477,0.54774076,-1.8437438,9.762479,-20.1455,-7.3981614
3.060069,-0.20131083,0.010400474,-19.659245,-19.311628,4.579625
2.8751402,-0.79145014,-0.62002796,-17.673574,-1.9116678,4.854018
2.3667428,-1.7651827,-0.5047227,1.4814811,4.1683893,-15.310494
1.6877112,-1.6947944,-0.5508237,6.827419,14.417482,-13.857004
1.4356803,-1.7230797,-0.5189428,6.07074,17.472652,-9.201017
0.6267485,-1.301905,-0.43367782,4.387801,13.607484,-8.220997
-0.20373732,-0.48597622,-0.87200177,-0.8211139,3.2251947,3.4480267
-0.65481126,-0.26717985,-0.7400347,-5.1914763,-0.6609366,2.275649
-0.5191746,0.30965608,-0.7239873,1.3631512,2.740364,-0.7401309
-0.6767308,0.32463324,-0.24030598,7.1762977,5.8525195,0.40989622
-0.5824113,0.67323625,-0.46754616,4.7562523,7.251471,-4.9033957
-0.6556459,0.9590534,-0.29376426,3.0207953,5.4429727,-10.496019
-0.36459878,0.8930249,0.034999847,-3.2828388,4.4305024,-5.228934
-0.03653641,0.7694595,-0.5209673,-10.1624565,-0.9101608,-7.423361
0.23002838,0.26324016,-0.40955004,-15.856157,5.7417526,-2.6322484
0.09180136,-0.1413213,-0.50222945,-13.449682,2.543044,-7.3153706
0.7470366,-1.1149395,-1.1606444,-7.8952746,2.039371,-9.586894
0.880238,-0.79467094,-2.1767325,-5.656643,9.124633,-9.715646
1.5969366,-1.121942,-4.1161423,-17.366058,6.7775464,-3.9776664
2.3455784,-0.6820359,-7.9520855,-45.748108,11.319771,4.8210583
2.3482645,-2.4237993,-15.261909,-96.231865,-12.828843,27.220875
-1.5123796,-9.243044,-24.522999,-100.61232,-116.761505,20.991526
-7.6589327,-21.720839,-35.64582,-27.535315,-223.02026,31.983135
-7.664325,-23.384459,-36.058857,21.02901,-328.95966,83.88981
-5.254881,-17.625786,-32.929935,53.334442,-400.3053,139.09735
-0.5286427,-9.361746,-26.762583,65.0249,-445.59235,179.52782
4.3724236,0.50172246,-20.520464,73.5503,-495.35336,181.48027
16.511848,9.07636,-7.9397407,51.139256,-523.6914,156.99374
26.459118,12.466276,6.096813,-13.573913,-483.30658,153.87244
31.979567,11.612313,18.316582,-64.525185,-404.97324,140.12854
32.30471,8.625526,25.65258,-76.982544,-283.76157,105.03423
30.094059,6.5957174,28.382555,-76.980835,-168.6221,76.98046
26.683926,4.816431,28.69365,-56.38942,-38.15931,52.775787
20.497131,5.300089,25.09058,-50.717308,22.568825,51.68501
15.86796,6.156632,21.514687,-52.751316,71.19931,43.80195
12.544604,6.3896446,18.796637,-32.50273,111.89892,27.64979
11.05483,4.933522,16.276733,3.7931664,146.6406,-18.352322
10.965294,1.9870261,13.355881,27.775301,178.24263,-41.436707
10.872195,0.102324344,10.652563,39.5969,217.17741,-47.72557
10.541329,-0.7455567,8.736282,44.80547,241.64485,-44.12129
9.673481,-1.8247318,6.92813,51.24466,264.93683,-41.61548
9.199648,-3.0463982,4.74525,67.89209,300.09134,-44.51738
7.58714,-3.6925998,1.828527,84.683876,329.05414,-42.59513
5.485682,-4.504538,-1.3585235,108.29241,337.57553,-33.12796
3.7904801,-4.085557,-3.8317418,110.802376,341.9311,-36.711742
2.0268283,-4.8454895,-6.2159142,104.98954,338.18228,-24.008509
0.08882871,-6.1551957,-8.517762,104.27928,324.22717,-25.374022
-1.2514235,-6.8724694,-10.31427,97.04903,281.8124,-9.720039
-2.1020267,-6.3835344,-11.392923,77.21775,241.83786,4.950115
-2.822792,-6.0248976,-11.940424,57.6541,209.76923,23.35709
-2.934919,-5.855708,-12.482074,55.58761,171.53067,57.149982
-2.7376041,-5.8525257,-12.946927,74.68457,123.71864,70.123825
-2.1992671,-4.556041,-13.003782,93.795456,88.106544,78.4266
-1.5609316,-2.0263164,-12.438469,108.91687,43.89717,71.75899
0.29266366,0.72502637,-10.673307,111.271645,11.391618,69.32996
2.6155138,4.77606,-9.385495,113.92684,-3.725266,52.984318
3.7455778,9.902171,-8.58631,102.57944,-26.752348,8.401311
3.8547554,18.013634,-10.594835,80.0202,-49.78549,-39.379387
3.3258374,22.452345,-11.685074,50.081635,-69.29627,-92.76286
3.1637478,25.3927,-12.150367,4.8262434,-108.33296,-145.05164
4.369383,26.597746,-12.102614,-32.667545,-139.84776,-197.42278
7.0258594,25.993223,-10.837939,-79.98599,-155.07921,-247.99406
9.372528,19.428024,-8.329439,-133.8162,-168.3577,-310.44955
11.310036,9.8195305,-6.2323685,-157.75568,-189.39569,-347.27936
15.66214,-0.1622611,-1.3929147,-188.14017,-196.85077,-336.50143
18.688429,-10.96169,4.1715965,-201.70204,-153.10649,-298.5646
17.275642,-20.2952,6.8225102,-168.32205,-65.542725,-226.9862
12.832653,-26.176085,5.8541594,-136.70982,-26.47134,-163.01796
7.9370766,-26.795269,2.2645383,-74.24248,13.777871,-123.21827
3.395314,-24.139086,-2.1465242,-6.6693716,24.42501,-78.74133
-0.6643306,-18.939184,-7.6066546,30.658922,11.467669,-45.05854
-3.979363,-13.989405,-14.659276,40.331226,-47.848984,-13.4866085
-6.5804906,-10.678964,-24.543531,43.517323,-130.61935,-6.4910398
-6.882669,-9.070944,-28.572523,44.065792,-224.989,-1.2191844
-6.064141,-7.531581,-30.479645,44.693848,-311.84964,15.972086
-3.944435,-5.1198072,-28.06546,33.110077,-388.20285,31.980553
0.306198,-3.2334433,-22.338667,8.006504,-424.70035,45.7043
5.147217,-0.8184315,-14.854696,-18.626657,-448.04617,52.91076
11.892666,1.3362899,-1.8760871,-56.470818,-439.42703,57.14954
16.50166,-0.27713382,7.7284255,-71.73031,-394.97168,61.940784
19.667326,-0.46341085,15.224481,-81.39374,-336.64902,62.863525
21.69497,-0.96570754,20.875536,-61.69528,-228.68933,41.18884
20.19553,-1.2157259,24.291756,-32.93111,-136.37444,29.29216
16.238934,-0.3647276,24.052761,-36.241535,-69.2365,26.881403
12.481991,-0.16793633,21.10786,-46.259594,-17.112617,23.795134
9.3161125,-0.78215975,18.189747,-37.741695,11.102686,26.467287
8.001614,-1.3471549,15.99267,-14.090889,55.135067,15.292848
7.1822987,-1.5992564,13.495213,-8.623576,80.88341,17.593582
6.473133,-2.1067877,10.768978,-8.775214,106.95566,19.217007
5.976356,-2.9545245,9.045583,-0.28492522,116.86527,15.59948
5.507123,-4.161087,7.073873,10.901135,141.23384,24.06063
5.4187202,-6.192074,5.307812,19.456524,163.10272,34.45193
4.637319,-7.7023754,3.0709565,32.185123,190.89119,53.892677
3.9907048,-8.877055,0.57974416,45.805832,202.28528,67.321625
3.9347486,-8.683876,-1.3989395,68.54074,206.48239,104.09743
2.9492304,-8.28176,-2.339775,88.64614,208.81763,135.17802
2.1755886,-7.03916,-4.685657,101.69088,196.80515,162.82668
1.3489819,-6.001422,-6.3335304,102.249344,179.67195,191.74062
1.3570225,-4.0755606,-6.767975,98.738625,158.56279,200.12596
1.4204298,-3.6442597,-6.371723,91.56084,150.24367,213.53667
1.5644684,-2.7010872,-6.6768823,84.59075,130.67722,229.71698
1.5664262,-1.4381407,-6.4834447,80.4828,111.32509,246.52457
1.3546586,0.28991142,-6.8832073,80.779434,90.50521,242.50003
0.81021106,1.6986041,-7.0827727,84.83758,73.367836,232.14738
0.6471783,2.8283641,-6.639368,79.05021,45.03049,229.2596
1.0218997,4.08307,-6.22266,73.1666,37.741257,215.8296
1.9843702,5.046119,-4.884859,65.69352,26.861397,201.3936
2.0780735,5.5180635,-4.6570487,59.6457,29.521587,188.79012
2.1579216,6.592203,-5.4926877,63.478413,20.82029,180.36722
2.5007265,7.770467,-5.837234,86.35755,10.552248,152.21243
2.835742,9.359262,-6.0963693,100.767746,2.3270772,121.19129
3.533971,11.6630745,-6.744346,86.84162,-16.197239,87.483665
4.033358,15.188971,-7.5383763,64.87042,-22.297125,58.47748
3.8883862,18.831308,-9.630955,18.900871,-47.383938,16.533867
3.7950213,24.390669,-12.343044,-50.044056,-80.09669,-39.339207
2.9904144,27.129463,-15.409751,-112.88597,-114.57808,-105.97828
1.599554,27.62947,-19.299377,-156.92332,-181.52327,-188.87097
3.1372266,25.151272,-22.026688,-155.18494,-232.7262,-257.90985
7.9884086,21.612738,-20.346853,-156.6646,-281.23126,-322.79065
12.995583,15.420373,-16.010668,-151.63998,-311.63074,-377.81686
18.59,7.10403,-9.806535,-144.52235,-332.76636,-396.41223
26.173595,-1.0737052,0.28580788,-199.05827,-313.9201,-371.20474
33.919792,-10.23538,11.789329,-240.72563,-232.23091,-317.12976
31.774601,-21.839783,18.76831,-241.18459,-89.30069,-254.834
22.719288,-25.82224,14.777629,-218.93388,-17.990866,-202.26337
11.475767,-25.871695,8.546472,-185.47179,17.443407,-146.94803
4.163916,-24.904745,4.2805266,-93.18284,25.682184,-96.99607
-1.4776635,-18.906065,1.1979293,-42.301594,17.40117,-78.69903
-3.4590497,-13.496986,0.23838098,-18.361452,1.8018497,-53.701336
-3.102514,-10.369968,0.21300483,-3.0228245,-8.17001,-45.007225
-2.729799,-6.142981,1.3776009,-8.609464,-8.154824,-20.006172
-2.2025745,-4.992221,1.5204381,-23.88789,0.69011676,1.2215699
-1.9078958,-3.3776777,0.877205,-15.349396,9.159604,9.913347
-1.4823494,-2.5586698,0.6098634,-6.1712017,7.2811003,16.579952
-1.4167229,-0.95011896,0.6405961,-7.7513595,3.9747179,16.969456
-1.1286123,-0.9023667,0.744608,-3.1468852,2.1243043,11.77384
-0.81326497,-0.9285846,0.97753525,-11.201622,17.624287,13.146469
-0.6046196,-0.82769793,0.12145235,-14.57737,15.102629,15.768312
-0.5737939,-1.4090792,-0.18378118,-7.2544985,16.122921,13.953471
-0.7012966,-1.0549115,-0.14492047,-0.8130318,11.582554,14.1876545
-0.44201675,-0.7295593,-0.5952233,2.1839788,3.736075,15.683956
-0.5987352,-0.546584,0.15479189,-1.0722523,8.15556,14.910751
-0.5710007,-0.03599964,-0.18653892,4.2784195,9.728119,14.661355
-0.20684403,-0.13246217,0.112505704,6.078733,8.685554,19.412218
0.12314059,0.46422714,0.07150099,3.2692208,6.0863495,10.623546
0.5451623,0.5706536,0.56783956,-2.6651132,8.776125,12.587782
0.047051415,0.854522,0.5742574,-8.139974,18.181501,13.135948
0.29353273,0.60625213,0.30686614,-8.537353,19.395555,12.0352545
0.49659586,-0.001398474,0.5028798,-12.783446,20.42691,14.471191
0.1906249,0.26681954,-0.38721454,-16.827972,21.713026,14.117997
-0.4527226,0.009459693,-0.28611308,-23.9099,22.456274,12.482597
0.0,0.0,0.0,0.0,0.0,0.0
0.0,0.0,0.0,0.0,0.0,0.0
0.0,0.0,0.0,0.0,0.0,0.0
0.0,0.0,0.0,0.0,0.0,0.0
0.0,0.0,0.0,0.0,0.0,0.0
0.0,0.0,0.0,0.0,0.0,0.0
0.0,0.0,0.0,0.0,0.0,0.0
0.0,0.0,0.0,0.0,0.0,0.0
0.0,0.0,0.0,0.0,0.0,0.0
0.0,0.0,0.0,0.0,0.0,0.0
0.0,0.0,0.0,0.0,0.0,0.0
0.0,0.0,0.0,0.0,0.0,0.0
0.0,0.0,0.0,0.0,0.0,0.0
0.0,0.0,0.0,0.0,0.0,0.0
0.0,0.0,0.0,0.0,0.0,0.0
0.0,0.0,0.0,0.0,0.0,0.0
0.0,0.0,0.0,0.0,0.0,0.0
0.0,0.0,0.0,0.0,0.0,0.0
0.0,0.0,0.0,0.0,0.0,0.0
0.0,0.0,0.0,0.0,0.0,0.0
0.0,0.0,0.0,0.0,0.0,0.0
0.0,0.0,0.0,0.0,0.0,0.0
0.0,0.0,0.0,0.0,0.0,0.0
0.0,0.0,0.0,0.0,0.0,0.0
0.0,0.0,0.0,0.0,0.0,0.0
0.0,0.0,0.0,0.0,0.0,0.0
0.0,0.0,0.0,0.0,0.0,0.0
0.0,0.0,0.0,0.0,0.0,0.0
