ax,ay,az,gx,gy,gz
0.12088083,-0.21214557,-1.1786792,23.39201,16.098808,1.9722497
-0.03680359,-0.54533255,-2.0918608,40.31613,12.694534,-13.259555
-0.800018,-0.63644844,-2.6999602,44.112778,6.390254,-26.050697
-0.65827715,-0.4951125,-2.924309,30.436361,-2.8586755,-13.217934
-0.6211435,0.077699535,-3.2227855,5.4027467,-3.321612,-4.613263
-0.82066524,-0.25121942,-4.2164907,-6.0162477,-15.73525,7.9395266
-0.82922053,-0.27291784,-5.201739,1.029002,-23.808054,3.2135224
-0.9001533,-0.50825626,-7.245676,9.494548,-37.650604,1.2547028
-0.87450683,-1.1144339,-8.319935,9.952395,-51.539722,4.103686
-0.92645776,-1.7512718,-9.2848625,11.686581,-68.2031,9.750484
-0.6466449,-2.0068185,-10.045738,15.633599,-86.148895,15.065081
-0.28469086,-1.0505786,-9.909762,4.667346,-103.94972,13.726066
-0.93461126,0.19348869,-8.5777235,-3.9947987,-118.15963,8.549402
-1.0912175,0.30465654,-7.5193233,-4.48924,-135.4489,5.513697
-0.21975963,-0.6568156,-6.700129,-7.169286,-151.91385,4.9373245
0.5467668,-1.3551518,-5.3100367,-2.982208,-160.54256,13.918937
1.0989026,-0.3883081,-2.513301,-2.01369,-167.71898,14.000618
2.019015,0.19391987,1.0837033,-6.894074,-174.33325,16.830967
3.2120912,-0.5254832,3.5747306,-10.666343,-170.20007,17.292027
4.042841,-1.5030652,5.9689326,-0.72629166,-158.22096,13.281426
4.6774483,-0.25105587,9.0696945,21.587433,-139.46187,4.468166
5.4495707,2.5576947,11.510317,21.252604,-109.99924,1.2102448
6.129359,3.8196604,13.147294,-0.9173388,-86.33582,11.919254
6.2466054,2.782029,12.379456,-9.093532,-58.27165,15.072002
5.9673862,2.0823634,10.938403,-9.08412,-26.829271,8.204128
5.0220003,2.2505376,9.484697,-9.940269,-6.5006075,7.3169756
3.3203604,2.0576293,7.7991543,-16.414526,10.773883,6.3117223
1.6886792,1.1720458,5.5261283,-20.1543,17.74029,7.0344386
0.87612534,0.51092577,3.7629669,-15.254694,21.445175,11.151451
0.22444998,0.21903324,2.4435532,-7.906273,26.620396,7.570658
0.003969321,-0.027584985,1.1439404,2.2376235,32.271698,0.37904334
-0.027563002,0.33431995,0.78187764,7.736326,28.51507,-0.16008556
-0.024612531,0.4796171,0.44293976,4.6959333,28.584063,2.8282142
-0.020093556,0.29746404,0.6840481,2.578618,28.109365,5.976272
0.13962872,0.33553818,1.2482066,-2.4996464,29.816732,5.928958
0.0479908,0.40093386,1.9445547,-1.3874435,33.59824,1.9006424
0.73865175,0.6135368,3.1827044,2.2158837,40.924393,-7.121891
2.44775,1.3055105,4.828984,-11.840322,52.442337,-2.2067218
2.7735753,0.52011514,5.3096585,-20.308725,65.93795,3.8772717
3.2239435,0.054971702,5.366783,-23.26784,83.14723,5.5415273
3.0254705,-0.054288454,4.7916527,-25.30438,98.528885,8.676598
2.287968,-0.15062162,4.318253,-23.422613,103.45906,10.743073
1.7392414,-0.29068482,3.2650483,-24.876957,108.34724,7.85176
1.4252052,0.040572263,2.4232588,-31.318562,110.75913,14.538403
0.9097403,-0.2925237,1.2335478,-36.015648,110.16471,20.03866
0.58626145,-1.1852503,0.15289354,-30.940794,111.31152,19.05701
0.24979572,-1.4953183,-1.5452751,-17.787262,110.346214,15.377665
-0.25180155,-1.7715777,-3.53001,-13.509437,99.59195,16.384546
-0.62447315,-2.1273422,-4.9296904,-11.1691,82.91497,21.636963
-0.89180344,-2.4451466,-5.890827,-6.316688,66.00506,29.339603
-1.2006322,-2.4091244,-6.575999,4.7144628,52.733406,30.169472
-1.2329457,-2.329542,-7.126277,25.144487,43.187412,32.63555
-2.120365,-1.1378767,-7.499751,39.89206,29.970667,29.049162
-2.4481685,0.27638927,-6.7597446,48.489586,13.760317,25.209623
-2.2935488,2.0151575,-5.9505672,52.337578,-0.25194335,24.498552
-2.1301043,3.8547513,-4.7477083,48.228535,-6.925689,19.31207
-1.6106844,5.8642306,-3.1823971,38.491367,-16.222294,7.3045607
-1.2057003,7.4844723,-1.7028148,29.982933,-16.496414,-4.137539
-0.9242648,7.934572,-0.8103039,28.821732,-12.635183,-22.681084
-0.8610053,8.677326,0.22046229,22.40584,-9.937552,-35.081944
-1.0465484,10.129042,0.9534647,7.127195,-5.5273724,-46.422783
-1.0567539,10.422736,1.2855399,-13.699774,-9.157602,-65.16696
-1.4145242,9.611986,1.3794094,-27.560009,-13.834221,-77.39735
-0.7753133,8.462782,1.0162866,-35.422634,-15.388517,-93.75504
0.40782654,7.227924,0.41955823,-36.584385,-12.103617,-107.057884
1.1523379,5.651994,0.060187913,-40.602272,-10.094916,-112.7278
1.4518224,4.0420523,-0.321074,-44.762596,-10.016039,-116.441086
1.7351379,1.9996783,-0.66357374,-42.806843,-7.199867,-123.688065
2.1796594,-0.30258518,-0.893856,-39.103558,-8.529951,-125.00263
2.5446253,-2.0007358,-1.2912105,-30.370262,-9.069544,-121.87952
3.1173334,-4.0001197,-1.4945425,-22.078583,-6.9463224,-114.752464
3.3776863,-5.5519943,-1.5880362,-13.982401,-3.811951,-95.39963
3.0113611,-6.596642,-1.596681,-11.2918825,-2.5539775,-82.59469
2.5558016,-7.526777,-2.0628064,-6.7317863,-7.5277014,-62.169556
2.4783537,-7.9666076,-2.0131197,5.587069,0.012182951,-51.032772
2.1578217,-7.60861,-2.0582209,19.32456,1.8843334,-47.25252
1.5282762,-6.4663763,-2.0572674,17.67173,-2.200764,-31.23525
0.46787596,-5.290997,-2.324742,12.544943,-6.619795,-15.5027485
-0.1491931,-3.765702,-2.5256193,8.873972,-12.891123,-7.249882
-0.38286948,-2.7269497,-3.0474145,5.163475,-15.329009,-4.811795
-0.8226755,-2.5095263,-4.035155,7.4548044,-18.235533,-0.5158736
-1.7533281,-2.4488325,-5.7745266,8.928512,-31.318472,3.4317136
-2.7264805,-2.7509685,-7.681511,13.1593,-51.92041,12.270754
-3.5240707,-2.7473855,-8.050909,18.781443,-73.36948,14.697584
-3.781818,-2.152983,-7.586375,31.290617,-91.852715,10.755168
-3.1624238,-1.1541786,-6.3576264,40.27114,-103.83768,7.3704796
-2.3288956,-0.21833757,-5.0450377,46.60298,-115.38942,0.23791018
-1.4077706,-0.44089726,-3.1561546,45.84742,-128.51703,5.276583
-0.25232607,-0.5573273,-1.6744341,46.494484,-138.46683,9.141072
1.5966109,0.32727835,0.45269495,45.699722,-137.79343,10.715391
3.1252377,1.275741,2.8569388,38.496902,-126.45487,8.406653
3.5163152,1.2388027,4.729509,28.310944,-109.7773,7.9264846
3.882799,0.9355961,6.168117,24.819296,-101.20975,12.901924
4.615521,1.3580854,7.295374,14.899105,-88.33423,15.85878
5.3064537,1.5154662,8.420189,3.680142,-70.99662,17.753714
5.696459,1.6755134,8.980747,-7.947255,-43.31005,19.717518
5.501142,0.5394922,8.704968,-10.757138,-1.9841399,18.886318
4.8253126,-0.90780514,7.2839866,-10.887994,15.081899,19.855616
4.2169824,-1.8910604,5.948737,-12.726115,28.826862,24.57371
4.155132,-2.9652658,4.64814,-11.824525,36.216698,39.28439
3.987282,-4.1955204,3.3347347,-7.142508,51.3257,48.837193
3.1838224,-5.2937756,1.9166576,8.920567,63.63926,65.80075
1.7694672,-5.014194,0.44426644,29.066948,69.239685,66.991104
0.89419216,-4.0113163,-0.14527237,37.011467,70.5861,71.92885
0.50270045,-3.307768,-0.56346697,38.358154,70.45427,83.127
0.3100027,-2.3375385,-0.97211385,32.20745,60.536285,92.7866
0.6026582,-1.6410723,-0.7593248,19.435913,54.633358,107.22787
0.060751636,-1.2418995,-1.0482243,16.175898,56.884388,110.568085
-0.9392228,-1.1010627,-1.7026033,20.598082,53.259743,109.53689
-1.8507262,-0.10933167,-2.0784686,23.624577,48.282143,109.65347
-2.6148844,0.80031484,-2.2891417,25.90196,38.55415,106.95722
-3.278889,1.8032461,-2.4242086,21.836948,16.867353,101.58178
-3.5479276,2.4490056,-2.5988848,21.032066,2.2686605,95.85375
-2.7773361,2.624077,-2.310892,24.19209,-10.030742,85.25852
-1.8521426,3.5416782,-1.6779795,26.688313,-8.269169,73.63792
-1.2471383,4.710624,-1.0667733,23.361187,-13.720489,66.954575
-0.97663045,5.8596005,-0.39321974,11.668667,-17.325499,54.041595
-0.5917743,6.4351134,0.30416963,2.3963518,-22.72831,47.782192
-0.52188456,6.882656,0.56859416,-3.6804602,-21.544132,37.009438
-0.5270871,7.7779512,0.81152827,-10.219066,-20.463465,27.02957
-0.19877619,8.017438,1.1880544,-14.512234,-16.56928,15.784603
-0.26377207,8.713545,1.3289729,-21.948637,-9.689945,-1.9117193
-0.6223555,9.113836,1.0849288,-24.210138,-9.015097,-19.735575
-0.6601242,9.22806,0.8288916,-28.49925,-8.338526,-33.0365
-0.48304722,9.191234,0.57376647,-33.17534,-9.567393,-43.976063
-0.4141854,9.268217,0.4541683,-37.20615,-8.941529,-59.17992
-0.38436028,9.605645,0.45529497,-37.751156,-6.8980665,-82.41266
-0.35534304,9.714102,0.2784251,-42.656437,-6.8256536,-97.08811
-0.3424127,9.466942,0.14695159,-45.857372,-6.6193295,-113.97078
-0.19788,9.255318,-0.4222486,-53.650314,-12.740016,-126.67883
0.20684183,8.449035,-0.8325834,-64.53181,-18.74589,-137.7354
0.7877461,6.7119536,-1.4720631,-72.50266,-22.042223,-155.38274
1.7787194,2.7494423,-2.752904,-70.05811,-22.864328,-167.46571
2.545135,-1.1110913,-3.661494,-60.037308,-26.02399,-168.40137
3.444963,-4.638721,-4.1500974,-48.5042,-32.42233,-162.01923
4.2016177,-8.089835,-3.655227,-30.31979,-33.291935,-147.16397
4.9206514,-10.672423,-2.8853278,-11.910062,-36.421135,-120.00922
6.0913215,-11.446286,-1.3608357,-8.194654,-36.425865,-90.729515
6.3800488,-11.906094,-0.41486248,-3.9801092,-26.876163,-58.25616
5.7277446,-11.006683,0.1691804,2.8007467,-16.232206,-35.17762
4.332231,-9.399001,0.40314487,10.118088,-0.48450994,-18.249031
2.629386,-7.4507384,0.74951047,16.870901,5.413351,2.9487903
0.28690916,-4.2095046,1.3424556,12.305092,8.939308,16.75808
-0.8279229,-2.972493,1.3802824,6.7035575,9.672369,21.752098
-1.2493196,-2.1153398,1.1663954,0.7657536,4.117155,27.964157
-1.2497315,-1.6286323,0.96307725,-2.3551228,0.27888584,29.59657
-0.718483,-1.8747175,0.8613484,-5.3007216,3.2824507,37.7359
0.1166351,-1.2234819,1.428939,-14.24703,11.346964,41.525387
0.7408331,-0.7130949,2.1296082,-27.840782,24.53758,44.12288
0.7391505,-0.4412522,2.6160865,-35.05942,27.360947,50.250378
0.0,0.0,0.0,0.0,0.0,0.0
0.0,0.0,0.0,0.0,0.0,0.0
0.0,0.0,0.0,0.0,0.0,0.0
0.0,0.0,0.0,0.0,0.0,0.0
0.0,0.0,0.0,0.0,0.0,0.0
0.0,0.0,0.0,0.0,0.0,0.0
0.0,0.0,0.0,0.0,0.0,0.0
0.0,0.0,0.0,0.0,0.0,0.0
0.0,0.0,0.0,0.0,0.0,0.0
0.0,0.0,0.0,0.0,0.0,0.0
0.0,0.0,0.0,0.0,0.0,0.0
0.0,0.0,0.0,0.0,0.0,0.0
0.0,0.0,0.0,0.0,0.0,0.0
0.0,0.0,0.0,0.0,0.0,0.0
0.0,0.0,0.0,0.0,0.0,0.0
0.0,0.0,0.0,0.0,0.0,0.0
0.0,0.0,0.0,0.0,0.0,0.0
0.0,0.0,0.0,0.0,0.0,0.0
0.0,0.0,0.0,0.0,0.0,0.0
0.0,0.0,0.0,0.0,0.0,0.0
0.0,0.0,0.0,0.0,0.0,0.0
0.0,0.0,0.0,0.0,0.0,0.0
0.0,0.0,0.0,0.0,0.0,0.0
0.0,0.0,0.0,0.0,0.0,0.0
0.0,0.0,0.0,0.0,0.0,0.0
0.0,0.0,0.0,0.0,0.0,0.0
0.0,0.0,0.0,0.0,0.0,0.0
0.0,0.0,0.0,0.0,0.0,0.0
0.0,0.0,0.0,0.0,0.0,0.0
0.0,0.0,0.0,0.0,0.0,0.0
