ax,ay,az,gx,gy,gz
1.2295622,-0.5818286,-1.3061953,5.1604214,14.948329,-5.168149
0.9317384,-0.029026225,-0.686419,6.119591,19.29467,4.80387
0.63649946,-0.27954116,-0.84985876,10.647404,15.431368,2.3242157
0.2396577,0.25536972,-0.6325606,3.4494588,17.187561,0.36705047
-0.12569241,0.67240775,-0.7547921,-0.9980148,10.014332,-5.119981
0.19906297,0.34951818,-0.63648593,-9.182211,9.21,-2.6645515
0.072706185,-0.06553168,-0.77860427,-11.661946,4.3904057,-1.3263994
0.19236717,-0.1767923,-0.8573739,-11.914733,-2.6036353,-1.495921
-0.08623706,-0.6561972,-0.845364,-10.028767,1.8010851,-3.5185196
0.0009779166,-0.008608043,-0.51783687,-0.13548136,-2.9946651,-1.2542754
-0.0012645647,0.09402312,-0.4456449,2.3479278,-5.5928917,-3.9058216
-0.25328982,0.0597677,-0.05234319,5.56876,-2.591664,-0.029018402
-0.08173071,0.052979752,0.53185004,0.17187464,-2.1966393,1.6859615
-0.0141124055,0.30806172,0.84629,1.773696,7.1835327,0.7188018
-0.023241594,0.1404221,0.8562881,2.156611,3.0782447,0.5209923
0.09019924,0.657342,0.97418386,1.3331823,11.06785,-3.2160926
0.045567784,0.5842272,0.24524385,0.08802527,16.975475,-11.094274
-0.0038523301,0.3438995,0.4461428,-4.9312606,13.642866,-10.180451
-0.15964587,0.10907922,-0.028090388,-7.402671,10.094594,-5.6232643
-0.25499013,-0.47246835,-0.41903147,-8.0275955,8.872975,-3.103051
0.08486271,-0.6848835,-0.38551435,-8.7488365,7.6340594,-0.6496769
-0.066156276,-0.8135476,-0.50585175,-4.6186795,9.582655,-2.432164
0.5330181,-0.9875273,-0.9489986,0.33124244,5.883165,-0.54052263
0.47886768,-0.58087784,-1.0616503,4.96603,3.0423908,0.62544537
0.33325183,-0.72473454,-1.5870407,7.2854285,9.679096,-0.6998509
0.4938758,-0.4320273,-1.9697956,10.075853,-4.4706693,2.4064977
0.88156116,-0.27443954,-3.0942736,6.722429,-4.8193693,5.380996
1.7297521,0.0613409,-5.158673,7.0877247,-13.171078,2.8597112
2.6818438,-0.9405263,-8.853674,-17.032024,-23.543447,9.225626
2.0492692,-2.8429034,-11.9808035,-37.957882,-47.370274,10.968015
0.7724744,-5.1833963,-15.031067,-48.04682,-91.493195,14.999031
-0.28226793,-7.163939,-16.695227,-43.946533,-132.1387,10.722305
0.114955306,-7.386948,-16.903215,-46.55674,-185.72714,31.480753
0.21370237,-6.564681,-16.402018,-54.438786,-209.90025,38.950226
-0.3825729,-5.332185,-16.218084,-73.22174,-248.14162,54.619236
-0.6772523,-5.269022,-14.69824,-88.0644,-293.69965,71.5974
0.37882274,-5.1254325,-11.896428,-86.58869,-327.765,94.88969
4.0710406,-4.538931,-5.535501,-73.501335,-361.04742,105.695694
10.553102,-0.8327232,6.158797,-57.72909,-344.45398,95.89876
14.975688,2.17319,14.708887,-45.560017,-293.27618,70.48919
16.93569,4.908779,21.869478,-42.24225,-227.86807,55.3257
16.468788,6.3044357,26.09016,-42.056877,-154.84317,31.032385
15.001798,7.1909714,28.246048,-49.30422,-61.733242,10.502107
11.26892,7.424388,27.456274,-37.57887,9.283056,-5.743956
8.308026,6.528924,24.537636,-27.973927,64.83506,-19.115189
6.244564,5.1077404,20.232002,-1.6805023,102.804436,-42.371418
5.096171,3.401184,16.355692,25.595009,129.25893,-52.47627
5.1350403,2.340832,13.511502,38.82703,157.15268,-48.09541
5.7432475,1.1085277,10.191487,38.434124,181.77386,-47.299755
5.2407084,-0.5823342,8.007942,46.88321,213.14735,-40.315685
4.8132668,-2.2915719,5.381605,54.377117,227.36934,-37.941364
4.065182,-3.8699117,3.140305,66.92395,242.00299,-34.52552
3.2246904,-4.6585307,0.21377504,82.78334,262.4079,-18.600664
1.834677,-4.853325,-2.7716405,84.28015,250.49185,-10.455432
1.3468348,-5.339942,-5.2310543,86.27611,248.94492,-3.9506507
0.91478443,-5.7050705,-6.0947857,80.6981,235.07422,10.45895
0.6429667,-5.683814,-6.928344,70.448296,219.61824,33.517647
0.59578145,-5.744333,-7.7544703,63.286606,187.95522,48.35283
0.6395717,-4.596285,-8.15548,69.43435,165.93335,53.308754
0.57666105,-4.051138,-8.645285,69.196884,144.75703,57.014805
0.45792764,-3.5311258,-8.564585,71.464134,116.389145,60.43745
0.19146308,-2.3568454,-8.532392,74.40004,97.953224,71.953094
0.4828785,-0.74872404,-8.843063,81.184555,57.61806,72.62584
0.61279273,2.6404035,-8.358347,99.959885,23.362242,51.053127
0.6858203,6.539278,-8.305027,120.16828,-6.140911,-6.354485
1.7747694,8.973311,-7.8284693,126.182594,-30.09741,-61.422375
2.902904,10.2310295,-6.267038,105.46061,-33.143543,-85.53844
2.605183,11.93218,-6.3994823,57.232433,-36.912075,-101.34993
1.587799,13.722579,-6.78015,28.141834,-57.297695,-129.60849
1.2763097,13.669325,-6.841039,-2.6195445,-78.11817,-166.74236
1.9159063,12.584071,-6.0853796,-40.1298,-90.82609,-185.6224
2.5107632,10.28747,-4.993005,-73.17881,-100.27029,-192.53767
3.3245506,6.8329716,-4.0319567,-96.59739,-113.79285,-204.18645
4.9280796,2.440319,-1.0646138,-96.60694,-117.81161,-209.5267
6.556517,-1.3148787,0.2789878,-98.05583,-112.70097,-206.78154
7.7495294,-5.18471,2.1466146,-95.49751,-94.012764,-194.60269
7.3699636,-8.732596,2.0122204,-81.28243,-76.44014,-170.64606
6.7710357,-11.027159,0.5578296,-44.07625,-56.729404,-146.25444
5.2152634,-12.406169,-2.175035,-17.516714,-53.31645,-128.29019
3.4758127,-11.450948,-5.0042,0.9063418,-68.41191,-98.03105
1.8800586,-10.651346,-7.4506865,4.90465,-87.20575,-70.101105
0.5225551,-10.420285,-10.141473,15.871929,-109.829575,-44.13148
-0.53916323,-10.320727,-12.4775505,35.962395,-166.32861,-11.487519
-1.4154768,-9.80968,-14.015296,48.641476,-201.63715,6.073754
-1.3657854,-8.660773,-14.725715,51.664745,-242.55235,21.168755
-0.50820637,-7.678486,-13.915051,53.675808,-293.90506,41.785416
2.1078165,-6.072024,-10.644709,39.079735,-309.72787,63.371555
4.2150393,-4.314784,-7.4731603,39.35006,-312.67853,78.80994
6.4342036,-0.98050714,-2.1140783,39.85134,-310.66138,74.35311
8.293745,1.9310769,3.4914854,31.272211,-282.20264,64.384026
9.17186,3.818417,8.7684965,13.191808,-236.65742,52.482136
9.406608,4.7139435,12.036372,0.69674665,-195.53078,49.286663
9.8672905,5.605258,14.603027,-25.054735,-138.87712,31.319689
10.658048,5.0338535,18.00966,-49.930122,-84.470345,23.816874
9.772557,3.5664294,17.490688,-61.20053,-32.578457,8.651642
7.852123,1.9275388,15.794053,-55.796227,6.9915986,1.2967453
6.045366,0.32361004,13.300283,-42.882988,43.271896,-1.1639242
4.556455,-0.556286,11.021927,-27.931185,63.8216,2.710886
4.2915344,-1.4054164,9.239269,-24.47535,83.31329,2.1219335
4.7046943,-2.4620705,7.8522396,-14.992576,103.5705,6.7191734
5.0380635,-2.7358701,6.8507214,-13.346505,132.14757,11.363572
4.9479775,-3.4256728,5.4807067,-6.7405434,160.04906,26.541164
4.6018653,-4.179583,3.9336574,-2.5223124,190.455,34.065823
3.431959,-5.329735,1.4675151,15.879534,199.78174,50.586956
2.304503,-6.0335197,-0.78602535,26.747135,207.76451,78.157295
1.7048666,-5.704255,-2.1694431,36.148746,202.5099,101.566475
0.90598917,-5.4551253,-3.774078,45.87965,206.12349,121.63111
0.81272024,-4.893205,-4.1694093,47.830452,181.68369,143.80638
0.48304245,-3.4835355,-4.9596553,49.168198,168.51147,164.65308
0.3133452,-2.6404817,-5.204773,44.046978,156.41315,175.26535
-0.03697566,-2.1723065,-5.6228957,41.243946,130.42569,185.68608
0.0043903366,-1.7241887,-5.7554774,37.258415,116.10725,190.88734
0.56650835,-1.4498849,-5.3949046,40.458466,92.994156,202.06242
1.3779964,-0.5145011,-5.1294556,46.93483,86.39185,202.34535
2.4090335,0.5571337,-4.2723713,49.734516,91.07834,199.13168
2.4234695,1.6423426,-4.629723,50.763798,96.69027,196.48375
1.594112,1.921225,-5.3060255,57.12178,90.0048,198.59781
1.1152681,3.4122999,-6.32303,70.03588,67.603165,195.68842
1.0411867,5.7161746,-6.735636,84.78625,42.611458,173.46495
0.9302428,8.584405,-7.1081715,102.432846,14.566155,128.64215
1.2979962,12.586246,-7.1016164,109.43484,-22.646832,61.686928
2.2359202,16.284233,-6.849747,91.6228,-55.67025,-9.338013
3.7504542,17.87457,-6.284991,5.9209766,-59.857014,-47.967056
3.9231524,17.828087,-7.7375326,-55.191032,-68.44882,-66.55305
3.0258157,17.25949,-9.9070835,-77.55641,-92.5194,-110.22071
2.5598795,16.176825,-12.080813,-85.07118,-125.452,-160.17235
3.0209246,14.685933,-12.758087,-96.910164,-157.88596,-208.75821
4.462189,12.817373,-12.070472,-117.66547,-199.07556,-252.04402
7.1695514,8.65579,-9.674529,-141.95094,-218.86154,-271.9685
8.6220045,4.544088,-7.16048,-167.12576,-237.86137,-272.37305
11.03231,-0.53370494,-3.4815834,-169.0538,-240.73877,-273.70193
13.282871,-5.917887,1.1062226,-135.61043,-225.50119,-282.3849
14.021151,-10.662603,5.5728183,-76.91914,-188.46283,-269.10605
13.532384,-15.548274,9.9040365,-34.19168,-140.71165,-234.06769
12.382191,-17.014488,11.620964,-12.015869,-105.951645,-173.47516
10.016244,-15.911136,11.984714,-0.7795765,-57.079002,-114.84373
6.7406144,-13.560973,10.094087,3.2977142,-20.155678,-76.268845
4.264427,-11.318826,8.067203,2.6398783,2.9811716,-45.52647
1.6455185,-9.304114,5.2775774,0.9943349,17.517227,-25.40189
0.3614335,-8.33663,3.0087416,8.887144,22.331291,-15.10667
-0.9342035,-6.7145176,1.5667658,16.775063,31.271597,2.1535938
-1.6332356,-5.0656238,-0.12162201,19.577984,23.628672,16.064312
-1.8410523,-3.2290223,-0.72157705,21.146507,17.821573,26.520311
-1.3132097,-0.48722303,-0.53476423,8.443758,17.34078,32.460747
-1.0484927,0.76680756,-0.43492958,1.8938645,17.147371,32.72422
-0.8605376,1.6704986,0.0979229,-11.933775,17.918541,28.594091
-0.92131263,1.8466927,0.16185488,-23.864006,17.493605,28.162868
-0.90604305,1.4967433,0.1278103,-24.19782,9.673945,14.535163
-0.84568876,0.8741651,0.11124644,-25.575462,8.086348,18.9774
-0.55918646,0.3950989,0.34307712,-28.95388,6.280207,18.046041
-0.55416423,0.7189611,-0.0017929487,-34.792675,6.6602135,24.881336
-0.6748056,0.088796,-0.17429647,-35.831978,0.89531726,23.585974
0.0,0.0,0.0,0.0,0.0,0.0
0.0,0.0,0.0,0.0,0.0,0.0
0.0,0.0,0.0,0.0,0.0,0.0
0.0,0.0,0.0,0.0,0.0,0.0
0.0,0.0,0.0,0.0,0.0,0.0
0.0,0.0,0.0,0.0,0.0,0.0
0.0,0.0,0.0,0.0,0.0,0.0
0.0,0.0,0.0,0.0,0.0,0.0
0.0,0.0,0.0,0.0,0.0,0.0
0.0,0.0,0.0,0.0,0.0,0.0
0.0,0.0,0.0,0.0,0.0,0.0
0.0,0.0,0.0,0.0,0.0,0.0
0.0,0.0,0.0,0.0,0.0,0.0
0.0,0.0,0.0,0.0,0.0,0.0
0.0,0.0,0.0,0.0,0.0,0.0
0.0,0.0,0.0,0.0,0.0,0.0
0.0,0.0,0.0,0.0,0.0,0.0
0.0,0.0,0.0,0.0,0.0,0.0
0.0,0.0,0.0,0.0,0.0,0.0
0.0,0.0,0.0,0.0,0.0,0.0
0.0,0.0,0.0,0.0,0.0,0.0
0.0,0.0,0.0,0.0,0.0,0.0
0.0,0.0,0.0,0.0,0.0,0.0
0.0,0.0,0.0,0.0,0.0,0.0
0.0,0.0,0.0,0.0,0.0,0.0
0.0,0.0,0.0,0.0,0.0,0.0
0.0,0.0,0.0,0.0,0.0,0.0
0.0,0.0,0.0,0.0,0.0,0.0
