ax,ay,az,gx,gy,gz
0.56280476,0.67462015,-0.6677349,-13.428736,12.921926,-1.413588
0.058932096,0.46803612,0.02821669,-12.339064,6.8781676,-2.931442
0.18590769,-0.1980098,0.006549105,-10.789129,0.54695845,-0.3446294
0.43810323,-0.19394504,-0.14652058,-5.8395076,2.761639,1.1510669
0.43708172,-0.4026104,0.07337226,-0.8819132,3.1664312,0.85420007
0.254238,-0.29134658,0.28730872,-2.7726598,4.155904,1.5973542
0.024432853,-0.16406532,-0.10835082,-1.1467438,3.4313262,2.8432176
-0.03863496,-0.041434884,0.49474493,1.9271154,3.1022687,0.7796865
-0.05002579,0.5433065,-0.064461015,2.2017007,3.759859,-1.4724895
-0.0042045363,0.69434047,-0.14101239,-0.28206158,6.2264786,-0.15126109
0.01556947,0.8815231,0.27368933,-7.0173206,7.3345633,-4.1334953
0.007162414,0.5277968,-0.058148615,-10.342904,7.2050295,-0.88897705
-0.034129184,0.78532994,-0.07265085,-12.564703,8.109843,-1.4635382
0.18373422,0.13858587,-0.14736079,-10.075841,-0.17270708,-2.6391146
-0.13754168,-0.24805604,-0.37061065,-9.1965275,2.8618572,-4.144237
0.19483218,-0.13728991,-0.13167152,-7.4148664,5.630946,-3.7352674
5.0084665e-05,-0.34395084,-0.1772838,-6.3587503,1.1724893,-4.834728
-0.054026823,-0.2099059,-0.18565193,-3.6503134,-1.8105834,3.3788161
0.07611397,-0.008121565,0.584246,-1.5443516,-1.7526875,4.451814
0.11663849,0.2576407,0.34234038,-1.7207456,3.2029457,3.1303551
0.18426925,0.3089988,0.37494943,2.3636885,-4.769501,1.6600138
0.32450363,0.65979403,0.4249369,0.4152097,3.309757,0.07203901
0.18151227,0.8520853,-0.16792181,-3.6999521,7.7180057,-4.333488
0.29342997,0.4087225,-0.21534427,-7.5128756,11.120295,-5.173196
0.4780247,0.2624125,-0.7786274,-13.838728,8.82607,-2.859254
0.28305864,-0.20976807,-1.4642032,-16.841816,6.7083354,-4.946165
0.27019146,-0.87726533,-2.2517114,-17.503544,1.8802296,0.45503855
0.11961368,-0.9996888,-3.656992,-19.175411,-3.7931695,1.3609676
0.47032923,-1.4692591,-4.9959016,-22.703722,-11.9931965,12.308706
1.8585618,-1.6374903,-8.812746,-38.582745,-17.80395,13.349387
2.1642833,-2.4817863,-12.36666,-64.366646,-33.70382,26.010323
1.6487716,-4.5932417,-16.340406,-76.74728,-63.212482,30.65632
0.4244746,-7.5165277,-18.939299,-75.26011,-104.80925,32.79746
-0.85141134,-9.333174,-20.99629,-28.993969,-169.56598,25.379465
-2.336207,-9.050529,-20.264349,-6.6657944,-231.07425,41.23976
-2.1751785,-6.8278995,-18.80069,-2.6110692,-282.32886,59.240326
-0.8170059,-4.097744,-15.500285,-5.63285,-332.47855,82.22098
1.5067137,-1.0886216,-10.476873,-17.602346,-376.7101,91.46568
6.72557,0.93179595,-2.8827472,-30.748589,-396.27454,98.84465
15.979312,4.3883295,10.466445,-72.9363,-374.2357,93.87987
20.815731,5.5969744,19.960321,-104.305885,-294.3836,81.63563
21.086042,4.3449883,25.454498,-96.39687,-196.33295,61.93846
17.818508,3.3081005,26.85792,-57.43885,-111.86317,44.466225
14.337286,3.6388328,26.542105,-18.810076,-20.040962,20.943583
10.647277,5.3570304,24.181845,-4.005994,34.86701,9.625784
8.251695,5.779452,21.025957,0.85093284,83.70844,3.1541395
7.4356003,4.93241,17.71165,8.920455,108.07505,-14.490406
7.0814157,3.6106632,14.366008,32.68888,145.6382,-30.85895
7.229302,2.370708,11.366131,41.335888,178.05206,-48.344715
6.946264,0.90739983,7.5004563,35.502678,197.70973,-50.228024
5.8975224,-0.46583545,4.65409,46.058655,215.91066,-43.590637
4.515743,-2.1982453,2.213407,48.321877,238.69191,-45.728546
2.8682013,-2.5649605,-0.35900867,47.3892,237.83159,-33.412617
1.4995191,-4.147179,-2.6982296,54.06748,233.53087,-13.017979
0.30641595,-5.616398,-4.765236,64.82815,223.77707,2.86728
-0.5949765,-5.7308297,-6.085652,68.32448,214.13928,17.947702
-0.9440636,-5.711732,-7.427131,75.322754,200.82225,28.038504
-1.4285,-5.390353,-7.679953,77.260635,180.5041,41.139545
-1.6581879,-4.868495,-8.997344,76.98535,152.19391,55.61552
-2.4524946,-3.8100169,-9.748688,76.1404,129.90425,59.325577
-2.680118,-2.4188864,-9.899047,70.56969,94.89927,64.410965
-2.0897536,-1.6394659,-9.571085,70.90086,60.90196,64.39027
-0.7890404,-0.8123385,-8.485756,84.43976,41.721153,65.34128
0.24818173,2.0522628,-7.524333,102.03944,12.078239,39.26415
1.4774475,6.9867787,-7.155633,121.88067,-8.961718,-4.6717134
2.1987357,10.507383,-6.6070695,124.15211,-27.617664,-53.86791
3.0616996,12.266166,-6.365836,98.65622,-42.779816,-83.69415
2.9447474,13.959136,-6.5984626,65.315735,-48.07009,-100.52167
2.8815677,15.920443,-6.8199263,11.8564005,-65.585464,-135.2094
2.7771108,16.473158,-6.2183104,-33.28438,-83.93871,-165.11702
3.2215617,14.580901,-5.6742287,-80.48273,-97.62929,-191.03117
4.2876425,11.466066,-4.086061,-113.58284,-101.619125,-203.18317
5.8433642,7.4557505,-3.037338,-143.37132,-101.586555,-212.88123
7.4626746,1.5622528,-1.0969617,-172.18126,-100.09489,-208.24115
8.96705,-7.046583,0.119902134,-165.51685,-84.255775,-189.31161
9.064564,-12.092356,1.8343639,-141.24585,-54.19666,-161.22495
7.188803,-15.721231,0.93703103,-97.49026,-29.666864,-131.34271
5.013303,-17.199512,-0.8734008,-50.32607,-19.019001,-101.458305
3.1742969,-16.626162,-3.02941,8.6918,-15.943531,-61.21171
0.7769541,-13.118853,-6.1034665,33.261753,-25.651804,-41.10271
-0.582299,-10.357309,-9.350479,52.97887,-51.907562,-17.047714
-1.78394,-8.081237,-11.44674,54.167534,-78.12611,2.6547642
-2.5021884,-5.9066844,-13.471406,63.76651,-111.17446,10.427497
-2.7453935,-4.388806,-14.125371,55.750237,-163.8099,18.974663
-2.8413267,-3.3036695,-14.2872095,47.35379,-197.71828,20.867838
-2.3811474,-2.9637125,-13.292579,41.032127,-231.60587,21.12534
-1.2206761,-2.7999663,-11.342017,35.531113,-262.11398,29.64618
0.5156988,-2.598638,-8.108519,20.51676,-277.01837,42.20912
2.5189798,-2.3848038,-5.1085563,7.2527013,-291.61356,54.120453
6.7316875,-1.1782875,2.0780149,-6.6444426,-290.97543,68.04994
9.832776,0.5016762,8.034092,-24.828287,-268.67157,65.1676
11.313612,1.3990206,12.754836,-28.004602,-220.0498,60.455784
11.106824,2.9138615,15.691039,-22.958342,-160.25647,51.07383
10.407078,4.183918,17.510567,-34.16833,-97.36955,34.25533
9.265084,4.7357965,17.876524,-45.102398,-49.5599,23.981796
7.736361,4.2021675,16.747566,-56.607845,-5.2376003,17.545322
5.9510574,3.5098567,14.737956,-64.23338,25.685719,10.681252
4.551004,1.5478699,11.817317,-64.03818,49.82905,-3.328061
3.8670795,-1.2958875,9.025818,-56.422005,72.80622,-7.410636
3.8100936,-4.326418,6.8446264,-41.130573,91.52167,-2.2019053
4.2669067,-6.4695106,5.357974,-19.53788,110.330086,4.148912
4.7118864,-7.517583,4.9347196,-0.5271466,129.69786,20.997568
4.8369,-8.14123,3.2855191,20.083958,146.27809,38.197308
4.6427574,-8.113248,1.7167003,40.134724,161.20804,73.87331
3.5897412,-7.8025627,-0.4020885,58.001087,176.7323,100.88468
2.1542933,-7.200496,-2.3590775,71.19476,179.39185,132.42888
1.5846198,-6.09937,-4.10821,84.19258,171.9657,161.80023
1.0809844,-4.975099,-5.2437563,90.64741,162.20842,189.01778
0.81739193,-3.3404918,-6.039317,85.64006,143.76143,214.4013
0.11115203,-1.0308664,-6.8812504,80.63454,128.54665,220.39348
-0.30055416,0.32908332,-7.0837793,81.97005,102.77296,224.72221
-0.1048104,1.207401,-7.282516,76.16638,79.43132,225.65321
-0.21910721,2.6675768,-7.4250107,81.35714,60.314457,219.93028
-0.6398113,3.2403786,-6.9213433,99.442986,42.491467,193.56378
-0.13990784,5.7923307,-7.005706,109.90585,28.146845,171.41003
0.049150266,8.043231,-7.2285275,117.19635,10.609941,134.15352
0.3990742,10.369079,-7.605745,119.0292,-11.677856,97.9442
1.4898227,12.935219,-7.350007,111.1569,-32.201233,49.624527
3.1964266,16.135326,-7.2159157,75.832115,-50.941795,-1.4443358
4.3323913,20.33039,-7.556114,27.57708,-52.828495,-45.318184
3.6289735,22.605392,-8.651081,-33.635525,-63.648407,-85.32678
2.7528906,22.909044,-10.517427,-95.76132,-77.31114,-124.345085
1.0217001,21.014202,-12.694523,-135.90477,-97.60374,-163.93608
0.5952029,18.729216,-13.962278,-171.20555,-145.9297,-215.38997
2.0271945,13.205607,-13.36762,-178.59723,-190.47614,-266.67374
6.106669,8.157076,-10.78272,-199.97636,-228.60434,-291.46014
11.346525,2.2525046,-5.87513,-241.1619,-257.29724,-290.45517
17.47065,-5.8782444,0.95401096,-259.94638,-238.80016,-284.1302
21.628117,-14.942348,7.6854,-202.40898,-134.96863,-242.7313
19.298075,-22.379519,10.923545,-156.40417,-57.836266,-186.49393
14.211835,-23.071398,9.805517,-109.28076,-3.1909451,-127.06624
8.248539,-21.294138,7.2720265,-64.1752,28.939404,-70.11297
3.4913778,-17.047722,4.8047733,-34.73189,41.68419,-39.996758
-0.0888957,-13.473797,1.7962983,0.2734678,42.67967,-6.1965275
-2.8236356,-8.812351,-0.42479303,16.172085,44.990288,9.200331
-3.6134448,-4.9825525,-2.2309597,18.5667,27.227757,21.252186
-3.9837482,-2.4398289,-2.2961316,8.692491,15.703265,26.42874
-3.5994728,-0.6949013,-1.8970444,1.8085784,0.20992708,31.959654
-3.4177272,0.8361795,-1.1030388,-2.5347676,-2.9913583,23.685007
-2.311218,1.3216743,-0.32289803,-6.222706,-10.511116,21.624859
-1.1809064,1.702971,-0.23289503,-8.558939,-8.74534,19.255531
-0.747556,1.4800626,-0.15383974,-12.741088,-9.686968,18.911146
-0.22599396,1.2608935,0.11083417,-16.573101,-0.88734055,19.679892
-0.09832649,0.66776246,0.49810082,-17.69444,-6.795159,19.364676
0.28484863,0.0019671354,0.43818584,-11.784128,-1.5673347,11.123376
0.528226,-0.1720472,0.86645174,-9.429403,-8.372989,10.361029
0.27769983,-0.37116903,0.972317,-7.3498583,5.124239,10.873892
0.25329715,0.39599738,0.6261456,-11.563133,4.0464373,10.0836525
0.17660893,0.34361818,0.4113199,-17.788813,0.32591295,12.565042
-0.16998304,0.4686352,0.34909254,-23.115372,1.5702248,9.291082
-0.4675882,0.554194,0.36440694,-19.642307,-1.1187489,3.8101792
0.0,0.0,0.0,0.0,0.0,0.0
0.0,0.0,0.0,0.0,0.0,0.0
0.0,0.0,0.0,0.0,0.0,0.0
0.0,0.0,0.0,0.0,0.0,0.0
0.0,0.0,0.0,0.0,0.0,0.0
0.0,0.0,0.0,0.0,0.0,0.0
0.0,0.0,0.0,0.0,0.0,0.0
0.0,0.0,0.0,0.0,0.0,0.0
0.0,0.0,0.0,0.0,0.0,0.0
0.0,0.0,0.0,0.0,0.0,0.0
0.0,0.0,0.0,0.0,0.0,0.0
0.0,0.0,0.0,0.0,0.0,0.0
0.0,0.0,0.0,0.0,0.0,0.0
0.0,0.0,0.0,0.0,0.0,0.0
0.0,0.0,0.0,0.0,0.0,0.0
0.0,0.0,0.0,0.0,0.0,0.0
0.0,0.0,0.0,0.0,0.0,0.0
0.0,0.0,0.0,0.0,0.0,0.0
0.0,0.0,0.0,0.0,0.0,0.0
0.0,0.0,0.0,0.0,0.0,0.0
0.0,0.0,0.0,0.0,0.0,0.0
0.0,0.0,0.0,0.0,0.0,0.0
0.0,0.0,0.0,0.0,0.0,0.0
0.0,0.0,0.0,0.0,0.0,0.0
0.0,0.0,0.0,0.0,0.0,0.0
0.0,0.0,0.0,0.0,0.0,0.0
0.0,0.0,0.0,0.0,0.0,0.0
0.0,0.0,0.0,0.0,0.0,0.0
0.0,0.0,0.0,0.0,0.0,0.0
