ax,ay,az,gx,gy,gz
0.70340776,0.25072607,-2.7276516,4.6366954,-13.090035,10.862402
1.3514396,-0.53999,-4.189182,-3.9655166,-14.9378605,19.110748
1.7983955,-0.18675984,-5.380866,-25.893448,-17.904045,20.222254
1.3639398,-0.80389225,-6.2670774,-46.848473,-28.646414,31.27498
0.44962087,-2.6975656,-8.043384,-37.675587,-40.377922,32.064415
0.0673904,-3.511657,-9.366312,-3.3450663,-44.01939,25.95083
-0.08403156,-3.0799625,-10.507772,33.263683,-54.856762,23.001247
0.15815145,-1.3828808,-11.20802,42.152775,-65.7541,21.25239
0.21419716,0.6203789,-11.761101,11.040777,-97.23305,33.543217
0.45129588,1.9258202,-11.39316,-16.399492,-121.50498,39.995243
0.93852246,2.8108587,-10.387555,-53.82558,-143.75829,37.95742
1.6513222,3.2187295,-9.533596,-83.610214,-150.7745,20.717632
1.5231695,2.7368488,-8.999438,-111.82166,-152.17053,10.525893
0.7275623,0.9126986,-7.9632273,-102.415596,-158.75024,-17.16694
-0.30553707,-0.75187653,-6.6013846,-67.23922,-180.22218,-29.497923
0.6865034,0.014019042,-5.076178,-68.13073,-210.6416,-33.89472
2.693682,0.58229035,-2.6298304,-109.59,-228.52751,-30.89958
4.3297086,-1.4376966,0.14080173,-139.45876,-233.11855,-17.129356
6.596701,-4.436918,3.648446,-117.93545,-222.20352,-18.124538
9.080541,-6.3794103,8.382695,-70.16169,-188.67404,-24.637884
9.375693,-6.2046027,10.995995,-43.339447,-159.40894,-32.68158
8.520433,-6.1172085,12.628281,-28.31613,-140.00746,-21.21475
7.877227,-4.6985555,14.161323,-31.031633,-122.68188,-5.818314
7.818941,-4.0331445,15.848769,-20.959055,-96.63612,9.493314
7.5969567,-2.9548364,17.369957,-12.188432,-68.90121,14.148369
6.8282146,-2.6225445,17.768505,5.468015,-42.207302,8.844281
5.9990983,-2.338478,17.467316,23.984255,-19.495693,10.830669
5.426457,-1.3527424,16.394592,37.407303,1.894466,18.35988
5.2791266,-0.04071311,15.499818,50.0689,27.140102,20.422194
5.44907,2.075186,13.286359,40.46391,44.841747,12.267876
5.582472,2.300384,11.995284,31.110722,72.37869,5.791787
5.1653895,1.9593058,9.968978,27.44694,97.40376,-2.434512
4.2777157,1.0354223,8.209549,27.543615,113.76492,-4.585736
3.2704992,0.3851629,7.343977,38.771782,123.65666,-17.405237
3.4032311,0.19027977,6.729654,48.25867,132.92285,-23.689062
3.8616672,-0.63091576,6.080704,49.187683,146.8059,-25.157516
4.0611887,-1.3058932,5.3937745,41.0007,157.70244,-27.146622
4.3310966,-2.409304,3.645349,41.511295,168.84639,-31.190561
4.854339,-4.658083,1.783111,48.55016,173.64194,-28.909182
5.288493,-7.5239444,-0.77328336,61.153088,172.9514,-18.436544
4.7556167,-7.9011087,-2.8567903,74.45487,169.41801,-14.074799
4.1070924,-8.225598,-4.7611237,86.24262,153.77295,1.1037387
3.2925305,-7.841886,-6.6576486,93.82499,146.42258,12.034003
2.2632911,-6.7689357,-8.802215,102.075935,123.6973,27.571585
0.67450637,-5.490316,-10.586054,103.69742,100.47567,38.189697
-0.079934135,-4.2130218,-11.6355,109.06326,77.034065,42.989082
-0.44221917,-2.7984085,-11.605199,107.694305,51.911892,46.23609
-0.61593807,-1.6207964,-11.482519,102.75845,30.838459,47.921165
-0.42413703,0.13577303,-10.823608,95.46474,6.645841,53.415924
0.17893694,3.075859,-9.989075,87.45202,-8.287763,50.421364
1.0944247,5.0311317,-8.605773,73.67006,-16.422773,43.54346
1.8588698,6.618102,-7.2765236,64.64003,-18.49467,24.356241
2.4604144,7.268828,-6.1186466,58.519054,-14.743696,5.317222
2.872139,8.247905,-5.5194306,45.550175,-13.122538,-16.477587
3.346968,8.983591,-4.1165175,26.425512,1.8286365,-32.050186
3.0380971,9.317642,-2.5822754,25.894337,7.7100205,-50.150608
2.885695,10.167196,-2.0048668,36.92726,3.3931105,-83.22484
3.5224562,12.260707,-0.67398655,32.273468,1.1723236,-108.3904
4.7504487,13.771402,0.09353639,-20.491846,12.253429,-138.47379
4.2923064,12.4230385,0.38009608,-76.35775,19.835573,-147.34988
3.4894598,9.566346,0.1318966,-119.44164,24.046007,-140.7346
3.7992468,6.0760493,0.3790306,-126.1635,29.310522,-152.26141
4.691174,2.9862318,1.3207313,-105.77793,40.270634,-184.02957
5.0572376,-1.1174843,0.9412563,-83.18611,60.006214,-204.00595
3.376484,-7.3312745,-2.126414,-84.35786,60.616993,-195.86032
0.7214718,-13.018411,-4.558532,-64.25662,31.243828,-167.13759
-0.70296645,-15.862772,-5.596003,-27.775366,-4.4120665,-129.46721
-0.39218536,-15.72374,-5.898991,14.258094,-24.761808,-96.203865
0.63016367,-14.280627,-5.467567,55.797283,-42.11388,-60.707157
1.0562717,-10.90766,-6.1813884,72.11058,-48.02192,-42.811813
0.8264111,-8.504532,-6.8684025,71.09077,-54.464874,-32.02164
0.41164157,-5.647293,-7.102569,65.384476,-54.279236,-18.47283
-0.23418102,-2.774364,-7.809034,40.851532,-47.84931,-9.38219
-1.3415709,-0.36908492,-8.811563,0.0349952,-51.09125,1.4459682
-2.869888,0.3374704,-10.061694,-27.733221,-62.749886,-3.1389806
-3.900194,-1.0453854,-10.107537,-37.937233,-80.37874,-3.201604
-4.204371,-1.4309375,-9.858048,-32.76331,-100.38733,-9.64542
-2.954038,-0.89608717,-9.847527,-33.859867,-112.7941,-4.7844753
-2.4280722,0.175252,-8.777698,-73.45646,-135.0622,-1.2088964
-3.038217,-0.25681576,-6.4678125,-95.394684,-150.1406,3.8121247
-3.226294,-0.78247434,-4.1988997,-92.25074,-171.53535,5.7938137
-1.6255126,-0.7088845,-1.8849173,-74.681206,-199.59396,-4.52513
2.454099,-0.27495843,1.9781445,-64.91588,-198.52905,-6.4561563
5.905835,0.18519701,6.040546,-70.162445,-160.94354,-23.046103
7.130426,0.3413933,8.972379,-75.516884,-129.82875,-27.178059
7.510992,-1.8271681,10.691042,-65.74216,-103.55566,-29.341303
8.217687,-1.9267546,11.644908,-60.26407,-72.370995,-29.733564
8.199969,-2.427769,11.811454,-71.88616,-40.988964,-24.597439
6.841364,-3.4039216,11.292763,-80.02132,-3.8466518,-15.184516
4.9067335,-4.8632493,9.179601,-74.20201,17.808073,-11.075905
3.254003,-5.5339723,7.2635593,-64.56135,30.512957,3.0576963
2.2559469,-6.0643206,5.8002367,-57.74477,38.24053,9.473688
1.6181918,-6.734723,4.440547,-55.314915,45.33379,16.001705
0.776567,-8.9020605,2.8623872,-17.771084,58.124256,13.988144
-1.2618132,-11.376877,1.0631769,18.26406,52.493427,26.098957
-2.3605242,-11.595267,-0.28921854,37.054005,37.736076,49.65595
-2.0566149,-11.479752,-0.6083722,44.143116,20.55335,73.916916
-1.0420383,-11.738081,-0.43485612,53.077732,13.678672,101.36665
-0.28575698,-11.394987,-0.23381475,86.11086,12.129448,128.50201
0.507135,-9.829484,-0.3107007,97.665375,13.222572,140.88693
0.87517196,-7.743347,-1.0134996,94.71178,12.340729,150.4742
0.888323,-6.6554613,-0.7883895,80.58891,15.448124,170.43568
1.451958,-5.7524724,-0.7421993,76.14605,15.513384,178.08363
1.8664901,-5.2783694,-0.6442153,81.04321,14.652968,188.77
3.1187255,-2.9783227,-0.64314294,91.097946,13.88294,185.91895
3.4547524,-1.2057616,-1.0083852,84.4782,20.9864,180.55898
3.4031556,-0.45638883,-1.7579565,86.11913,23.646198,180.36691
2.670719,0.5057118,-2.523505,90.72405,14.968037,185.01279
3.299503,3.19234,-2.2672045,89.30033,-6.258427,187.33737
5.5456634,6.7994084,-1.36155,63.92918,-6.287452,173.0576
6.7771482,7.5792565,-0.6303391,37.76538,9.502789,160.15466
6.060576,6.316449,-1.3147166,27.657873,26.018984,144.90018
4.3885236,5.5106163,-2.90535,31.821554,20.255394,129.47319
3.435845,6.541549,-3.6787739,44.541107,-4.3608894,116.44598
5.034762,9.070886,-3.212792,37.155235,-17.224728,98.64052
6.179955,10.296054,-2.0908294,21.498781,-9.016516,79.68378
6.2532177,10.697817,-1.6049203,2.7887669,1.5485283,61.540367
5.331434,9.861024,-2.0889719,-10.936683,8.241532,41.89169
4.5008774,9.363087,-2.519025,-14.469794,-1.6860237,25.628359
4.0930123,9.777322,-2.8141725,-19.5761,-9.55911,8.696648
4.2216,9.69574,-2.4828517,-19.83402,-16.190266,-10.140007
4.156185,9.689359,-2.140618,-19.661596,-10.910672,-33.21505
3.8401232,9.252908,-1.816205,-28.164095,-10.477397,-57.58226
3.2004979,8.974369,-1.8163916,-47.155857,-11.864872,-75.613495
2.4058836,7.726999,-1.738094,-57.608395,-12.952629,-81.82956
2.5566983,7.154628,-1.5722097,-72.09261,-22.131533,-93.009995
3.3792238,6.110219,-0.42506889,-79.81448,-27.463747,-95.06698
4.4706244,5.6980076,0.1781779,-85.362816,-25.368216,-110.42468
5.0250854,5.217123,0.6024773,-84.292816,-16.705109,-134.0145
5.02557,4.120902,1.0671802,-77.55042,-3.988005,-152.84782
4.863796,2.9755719,1.3621006,-67.83127,1.6790853,-164.25797
5.3487005,2.490421,1.6824965,-60.845642,6.2467074,-176.44237
6.5177445,2.4213474,2.5466168,-64.04876,17.471895,-175.1337
7.714214,2.1449916,3.5785918,-90.84685,39.04956,-181.54579
8.913581,0.94375575,3.6026459,-106.60574,67.60957,-195.45349
7.915584,-1.9451747,2.2514875,-110.404,94.35716,-218.20558
5.6563096,-4.851341,-0.051512808,-100.84494,108.063934,-217.3183
3.3304324,-7.550897,-2.62629,-94.48371,105.46534,-208.21733
1.4323494,-9.237946,-4.373142,-98.42478,79.600266,-164.70845
0.545109,-12.170943,-5.194053,-93.05222,58.20028,-130.87418
-0.18168682,-13.549533,-4.5015125,-61.095592,43.59306,-107.27386
-0.7235658,-13.199354,-4.5165973,-24.14297,31.733746,-95.14827
-1.0005459,-12.101526,-3.787008,5.56285,23.743761,-79.50577
-1.6728656,-10.457891,-3.0008411,23.62573,11.021492,-60.51134
-2.152546,-8.127699,-2.601357,31.975798,4.7509933,-41.559853
-1.8949426,-6.843337,-2.0846004,39.15897,0.31444716,-32.39681
-1.6858181,-5.490183,-1.5130141,47.666515,-3.664848,-20.816956
-1.3630816,-3.1167624,-1.1385151,42.94377,-4.0642457,-15.7798
-0.71548545,-1.5338348,-0.4462198,28.866964,0.76310396,-10.655599
-0.39891857,-1.4548445,-0.14052302,16.425774,11.032105,-7.4413085
-0.9770407,-1.3584073,-0.6523742,8.50434,9.046744,-4.1412134
-1.0070088,-1.014742,-0.55459297,4.6546392,6.178322,-1.8558546
-0.7394274,-1.094688,-0.4837414,-0.96110487,-0.04649949,3.0522547
-0.6975969,-0.78971773,-0.3869995,0.5445564,-0.62107134,4.7707553
-0.47116536,-0.061759334,-0.12999198,-1.6776599,-2.502799,0.88519144
-0.3519522,-0.010281958,0.16069996,-8.827235,-1.3391447,6.3792944
-0.4003175,0.15317741,-0.2693807,-9.797729,-0.06510651,5.701282
-0.5031325,-0.7788972,-0.4307881,-4.9308553,-1.0339985,3.4494925
-0.6771859,-0.8711762,-0.3739478,3.1662273,-8.408805,7.6072817
-0.34868664,-0.5912078,-0.074254386,6.3982973,-12.780669,6.3993206
-0.19113833,-0.11811486,0.14790197,11.076834,-17.430935,7.729168
0.082584634,0.2119888,0.19087867,10.738774,-20.927328,5.572367
0.28447524,0.5653305,0.5990657,4.7534437,-10.792469,4.237804
0.46389827,0.40224916,0.614009,6.409648,-8.6661825,-3.6508546
0.3610052,0.3601935,0.75064516,0.7871518,-7.502983,-1.0772501
0.45399347,-0.15257241,0.4728177,0.1823155,-1.8007109,-0.048056364
0.2530481,-0.18910341,0.30375707,-6.422733,-5.7055006,3.9124913
0.09978011,-0.5144297,0.2531051,-11.811345,-6.5290184,10.392574
0.20326893,-0.53636265,-0.1806058,-20.815859,-9.528455,14.721826
0.0,0.0,0.0,0.0,0.0,0.0
0.0,0.0,0.0,0.0,0.0,0.0
0.0,0.0,0.0,0.0,0.0,0.0
0.0,0.0,0.0,0.0,0.0,0.0
0.0,0.0,0.0,0.0,0.0,0.0
0.0,0.0,0.0,0.0,0.0,0.0
0.0,0.0,0.0,0.0,0.0,0.0
0.0,0.0,0.0,0.0,0.0,0.0
0.0,0.0,0.0,0.0,0.0,0.0
0.0,0.0,0.0,0.0,0.0,0.0
0.0,0.0,0.0,0.0,0.0,0.0
