ax,ay,az,gx,gy,gz
-3.968292,-0.6068459,-5.1308584,1.3928438,-100.89163,-13.060213
-3.9506245,-0.6966205,-5.217018,-6.403873,-124.8403,5.7802806
-3.9142919,-1.0619557,-5.4038315,-8.189413,-137.86603,17.72481
-3.4442542,-0.5171286,-5.2403107,-20.736237,-144.72766,20.785103
-3.0618196,-0.25805703,-5.2485857,-13.687995,-152.81227,5.3847656
-2.6326697,-0.023842938,-5.35373,2.1071212,-159.7858,-18.354733
-1.4048067,-0.07571401,-5.1143456,10.981672,-168.09727,-16.28477
-0.5690374,-0.48938364,-5.3587866,-0.41526672,-177.13094,9.314694
-0.39735162,-0.3963592,-4.8750978,-19.793499,-195.87535,35.6019
0.5138339,-0.42622453,-3.766105,-28.32322,-208.12125,38.78339
1.5262617,-0.31070647,-2.6775904,-24.414644,-209.15718,22.235298
3.9022448,-1.0502553,-1.1367486,-17.719254,-198.27676,11.787041
5.341349,-1.1520202,0.07537727,-14.202224,-190.33012,6.812351
6.859888,-1.217781,1.3046665,-17.520885,-177.13104,8.468842
8.121552,-0.89463043,2.5237026,-11.336725,-164.79692,13.1209345
9.636378,-0.23322256,4.434959,-2.751597,-138.80069,14.612388
11.394644,0.42277595,6.4865365,-1.4947528,-101.980965,16.697285
11.47636,0.96828735,7.195898,-9.560536,-74.10709,18.400372
10.808091,1.2770196,7.3325944,-17.223711,-54.55561,15.402518
10.492139,1.2310659,7.5823116,-21.785131,-33.241627,10.37494
9.982624,1.2599812,7.572906,-18.95911,-0.69916415,3.844681
9.08138,1.0766671,7.237082,-8.612138,19.769554,1.1213983
8.694683,1.0560508,6.412926,2.0973613,33.371426,-2.7980115
8.31941,1.3662955,6.084923,10.41059,50.117397,-8.258751
7.744211,1.2878039,5.6025596,12.121207,65.05403,-16.384336
7.4784245,1.0159595,4.968276,7.7019086,80.01402,-23.547483
6.8502173,0.43731925,4.1831646,8.620493,96.829735,-24.153988
6.367112,0.12518474,3.5780632,6.876473,120.64371,-28.295341
5.960036,-0.07714168,3.2547479,1.884926,135.10657,-33.177063
4.8923845,-0.31531897,1.8661393,15.53806,146.26128,-40.537292
3.557957,-0.47353017,0.8530618,17.021454,143.97636,-49.341114
3.0351486,-0.7576624,0.2457175,21.3469,137.86336,-51.08099
3.1704535,-0.79854125,0.06080214,14.408421,138.75041,-43.43689
2.756706,-1.1490786,-0.18578011,13.768773,141.67598,-35.8851
2.4500659,-0.9758535,-0.82267237,13.174671,149.07037,-28.337147
1.8139033,-0.7442877,-1.4347056,19.913126,151.23842,-29.256319
0.6490161,-0.50442445,-2.5638125,23.79302,144.42587,-34.382313
-0.18903947,-0.60121024,-2.8761663,18.766382,138.51982,-32.12934
-0.6692367,-0.68763363,-3.4677458,13.030876,135.22337,-27.705208
-1.376546,-0.90492356,-3.89575,7.640517,124.20645,-22.222427
-1.8393463,-0.96215767,-4.261079,12.815485,118.17443,-23.722706
-2.586405,-0.87802386,-4.67432,17.7052,103.743095,-26.447304
-3.142108,-0.9302206,-4.843978,20.036587,99.60079,-26.052874
-3.550241,-1.1349016,-5.0796766,19.924772,88.14566,-15.8468895
-4.242381,-1.0595593,-5.5028424,19.778349,75.96804,-4.863555
-4.465405,-0.6357044,-5.343195,14.439518,50.210854,3.7013266
-4.219121,-0.14741848,-5.0720415,12.65712,35.01688,-0.2158275
-3.5847294,-0.005423952,-4.5218635,20.450062,28.708914,-9.486957
-3.0191145,0.29211587,-3.9740047,21.813074,21.485596,-16.07287
-2.7067041,0.28624165,-3.9860728,25.445316,20.708687,-15.662969
-2.5706155,0.5829204,-3.9667363,18.397118,7.6605306,-6.6495886
-2.2896245,1.4032559,-3.829129,13.302524,-3.8663197,-5.007649
-1.8255398,2.0652502,-3.5772882,9.352299,-11.015018,-3.8342443
-1.3146204,2.3592973,-3.142102,5.086518,-13.914889,-5.745102
-0.7391589,3.1697245,-2.7014906,3.176518,-13.163594,-14.28232
-0.37924716,3.820336,-2.14044,-2.3149574,-14.856216,-25.778017
-0.060291395,4.747861,-1.5936728,-11.632822,-13.986573,-26.06984
0.33426142,5.923626,-1.0156658,-31.41977,-10.006904,-22.56651
0.46635982,6.1835647,-0.6715345,-46.727585,-9.229545,-25.579515
0.35879326,5.759257,-0.5870691,-61.468914,-3.0049336,-32.11181
-0.2070525,4.964145,-0.59390235,-76.288,2.8149886,-42.395874
-0.16306582,3.5162425,-0.655853,-87.24739,2.946435,-45.631958
-0.23546116,1.8958441,-0.81515735,-91.34254,-3.8421354,-49.477116
-0.23439142,0.1241533,-0.921121,-90.514084,-1.3062711,-46.51623
-0.011371717,-1.4928117,-0.9178732,-86.779274,-7.4698467,-40.30632
-0.0026126802,-3.1030347,-1.0454949,-77.284805,-7.4919357,-33.244125
0.11698559,-4.7194877,-1.064758,-64.095894,-11.314125,-30.296564
-0.3079532,-5.356947,-1.2107598,-47.333614,-10.361457,-27.683653
-0.81022394,-5.927887,-1.8432668,-32.94457,-13.93992,-23.744799
-1.3246973,-5.512688,-1.9910975,-19.502306,-23.448683,-17.502468
-1.3142143,-4.9198027,-2.100732,-6.3940754,-27.258566,-12.351781
-1.2938809,-4.227064,-2.1922445,3.9155807,-33.188705,-7.4706674
-1.5675718,-3.4712436,-2.4062614,10.467735,-34.342308,0.89477456
-2.3691955,-2.458484,-3.034025,13.670144,-38.596687,7.586898
-2.7925096,-1.9262621,-3.366379,10.08387,-47.706066,11.258169
-3.4427013,-1.5629102,-4.0585346,8.4688225,-56.76362,14.229932
-4.13623,-1.6139624,-4.3248405,6.6687994,-69.92526,16.912996
-4.661852,-1.2482817,-4.4928684,7.940789,-85.51523,21.339195
-4.529396,-1.0830406,-4.8180285,3.85952,-102.002556,22.282616
-3.7713838,-1.0598123,-5.0495443,2.7065947,-120.49625,24.590967
-3.199916,-0.9795416,-4.7278795,-0.832155,-132.52226,33.590374
-2.3939548,-0.8536523,-3.3272781,0.8472457,-139.52353,32.515457
-1.910666,-0.4879436,-2.2660303,-1.1653737,-150.55014,30.469883
-0.8547393,-0.526266,-1.4963063,-5.202464,-154.52203,36.42236
0.5035612,-0.4574796,-0.20608391,-11.2116585,-161.36353,48.002533
2.898776,0.4199809,2.0049107,-24.711485,-148.56047,53.596912
6.074984,1.4998162,5.193177,-31.244974,-113.81073,49.06193
7.984021,2.2428014,6.900539,-30.387745,-80.22716,34.55541
9.33077,2.5057063,8.285896,-29.756626,-47.06714,22.431557
10.223458,2.012405,8.43828,-27.421543,-14.066073,17.134453
9.909096,1.2014843,8.092159,-31.790323,12.801102,23.681892
8.750999,-0.49419805,7.408029,-34.5104,35.274483,29.104437
7.213298,-1.4936802,6.316185,-34.75978,47.26981,27.08807
5.557387,-2.8719513,5.3343606,-25.814386,63.213127,19.944126
3.767492,-3.7795296,3.944419,-3.953257,70.510635,14.405502
1.8849808,-4.462128,2.4348922,21.100792,69.06983,11.504634
0.21132389,-5.1111774,1.1246775,34.330914,58.49744,12.013672
-0.71682835,-4.9437647,0.3378719,50.078907,45.676796,17.551798
-1.2649816,-4.1229186,-0.45866323,63.945232,34.38169,17.826565
-0.9422502,-3.6771648,-0.7685462,73.23626,25.57831,15.737392
-0.80988896,-3.300208,-0.9128139,85.98213,22.853594,12.206973
-0.76963,-3.0288131,-1.4301815,88.845055,20.92305,17.298185
-0.86870563,-2.9369378,-1.8363271,93.36571,21.522854,25.70897
-1.2161297,-2.3944273,-2.1211317,92.14596,15.7498665,35.338047
-1.2646534,-1.6830977,-2.2720072,97.02669,13.610731,42.17019
-1.3924987,-0.82733035,-2.6318784,100.24249,10.951286,43.21313
-1.1301997,0.12803501,-2.6367126,102.58455,5.9669695,40.19645
-1.2133325,1.0006658,-2.7178698,99.56265,-1.1773274,37.709007
-1.0926906,1.5771939,-2.7469711,96.980835,-4.0008883,35.910194
-1.0701747,2.4237242,-2.4946604,94.725876,-6.7430644,35.21668
-0.6573416,3.5521052,-2.4079294,85.66642,-10.357338,32.05513
-0.0910196,4.815435,-2.0228167,75.54786,-7.640728,27.386044
0.5475093,6.2743573,-1.6743556,59.20498,-12.549551,20.043873
1.27857,6.971159,-1.0621254,41.098736,-4.8550735,15.436178
1.5361553,7.379403,-1.0664843,27.909733,-0.40324745,10.617108
1.0518672,7.505586,-1.077407,6.6524177,6.607879,5.8673444
0.52036417,7.4831686,-1.3196056,-9.168608,7.9267406,1.1719159
0.019871898,7.5638022,-1.4202172,-25.419956,2.2836742,-3.612972
-0.14860861,7.463445,-1.2526836,-38.057343,-1.9685214,-10.615661
-0.21245712,7.653026,-1.2743638,-51.19707,-8.015613,-20.50626
0.19068012,7.2471747,-0.9320712,-69.130035,-10.366134,-28.662544
0.40961266,6.4694586,-1.1799738,-84.09243,-7.5987754,-36.330055
0.71024996,5.80739,-1.105932,-95.0963,-10.563507,-39.84954
0.94893956,5.140238,-1.1372155,-106.769264,-8.480196,-45.08212
1.1346018,4.0329666,-1.019054,-114.050766,-8.265429,-50.41115
0.8870812,2.939921,-0.9988445,-116.40581,-7.9488325,-55.25456
0.6961012,1.4274707,-0.9434064,-122.180466,-7.1591344,-58.930325
0.71135426,-0.04888496,-0.7763458,-117.4617,-6.282282,-55.680412
0.64816046,-0.77562046,-0.70735836,-116.60219,-1.1182128,-50.312176
0.24023563,-1.7568568,-1.0525309,-112.15453,-2.1570544,-51.57136
0.021548193,-3.1596882,-0.98642427,-97.4324,-7.694784,-54.69416
0.14476568,-5.400722,-0.9038421,-80.738686,-9.533561,-47.413498
-0.01790746,-5.7217445,-0.5308752,-66.36603,-10.5226965,-36.707813
0.2752024,-5.5322814,-0.26738086,-58.15489,-14.073959,-28.18091
0.33171117,-5.347003,-0.12907362,-43.910694,-12.280238,-23.912424
0.54266435,-5.2880526,-0.04259059,-28.470083,-6.867974,-22.215057
0.18323265,-4.6639214,0.3639095,-19.63715,-0.71333396,-14.94141
0.016923308,-4.152389,0.19777067,-13.119118,-3.4964175,-6.519151
-0.5339232,-3.4280772,0.16880131,-9.143407,-2.5232115,-2.4050322
-0.63720524,-2.7787638,0.29702315,-3.9191406,-8.107474,2.5391192
-0.41856897,-2.087348,0.5232917,2.0665216,-4.5692115,3.4734077
-0.43217897,-1.3680298,0.6560745,5.338613,-0.8721647,2.494586
-0.30908787,-0.9167347,0.7059431,5.6630983,4.40015,4.4444814
-0.19821551,-0.6100049,0.7550794,3.703018,7.1326227,12.038525
-0.42430994,-0.45004684,0.42723557,5.2513695,7.089336,15.850411
-0.29734358,-0.3016066,0.36365974,3.310972,1.5813744,17.348145
0.2105725,-0.23048711,0.7057779,4.351997,5.4852676,15.528709
0.0,0.0,0.0,0.0,0.0,0.0
0.0,0.0,0.0,0.0,0.0,0.0
0.0,0.0,0.0,0.0,0.0,0.0
0.0,0.0,0.0,0.0,0.0,0.0
0.0,0.0,0.0,0.0,0.0,0.0
0.0,0.0,0.0,0.0,0.0,0.0
0.0,0.0,0.0,0.0,0.0,0.0
0.0,0.0,0.0,0.0,0.0,0.0
0.0,0.0,0.0,0.0,0.0,0.0
0.0,0.0,0.0,0.0,0.0,0.0
0.0,0.0,0.0,0.0,0.0,0.0
0.0,0.0,0.0,0.0,0.0,0.0
0.0,0.0,0.0,0.0,0.0,0.0
0.0,0.0,0.0,0.0,0.0,0.0
0.0,0.0,0.0,0.0,0.0,0.0
0.0,0.0,0.0,0.0,0.0,0.0
0.0,0.0,0.0,0.0,0.0,0.0
0.0,0.0,0.0,0.0,0.0,0.0
0.0,0.0,0.0,0.0,0.0,0.0
0.0,0.0,0.0,0.0,0.0,0.0
0.0,0.0,0.0,0.0,0.0,0.0
0.0,0.0,0.0,0.0,0.0,0.0
0.0,0.0,0.0,0.0,0.0,0.0
0.0,0.0,0.0,0.0,0.0,0.0
0.0,0.0,0.0,0.0,0.0,0.0
0.0,0.0,0.0,0.0,0.0,0.0
0.0,0.0,0.0,0.0,0.0,0.0
0.0,0.0,0.0,0.0,0.0,0.0
0.0,0.0,0.0,0.0,0.0,0.0
0.0,0.0,0.0,0.0,0.0,0.0
0.0,0.0,0.0,0.0,0.0,0.0
0.0,0.0,0.0,0.0,0.0,0.0
0.0,0.0,0.0,0.0,0.0,0.0
