ax,ay,az,gx,gy,gz
-0.009123709,0.5366541,-0.68933064,2.865215,2.9171443,-0.080557466
0.27806756,0.08360537,-0.9245702,-3.0999956,3.3294668,-0.96144617
-0.06704285,0.27182943,-0.8523377,-6.803028,0.9177637,-2.7878995
-0.09979984,0.20682517,-0.7342707,-5.0864573,-1.147721,-2.384266
-0.20087735,0.19096474,-0.7684828,-6.7640934,-6.3726597,-2.0946367
-0.074615054,0.068177395,-0.4169702,-4.8394003,-4.4358892,-1.6372358
-0.25621217,0.48193523,-0.41128612,-1.8467002,-2.9836214,-1.7803588
-0.4806312,0.7776266,-0.4078866,-2.8966832,-3.294757,-2.8796635
-0.21981268,0.39985946,0.060708765,-0.6136661,-3.2763543,-3.356682
0.00030865817,0.24503165,0.078933075,1.7559371,-1.6535165,-3.3372796
0.045453932,0.12776469,0.3768543,2.2935643,-4.2080765,-2.7738929
0.37548262,0.16682692,0.55868065,2.2684274,1.210177,-2.3695478
0.1827385,-0.050241336,0.3017931,3.3249836,1.8355123,-4.1269255
0.24536899,0.18664655,0.7848557,0.16661313,4.522963,-5.775493
-0.2492283,0.29177472,0.62050045,-1.3525324,-0.78438073,-4.4382186
-0.18440911,-0.18945396,0.63523495,0.30155087,-2.9429262,-4.651482
0.33400977,-0.3841726,1.1888961,2.4821,5.62475,-3.8165169
0.6956332,-0.35528824,1.2214619,2.887547,6.7581267,-3.4362235
0.72512335,-0.09146799,1.3586856,1.3420556,10.158887,-3.3942633
0.45587248,0.027057722,1.0602636,1.1349826,12.24518,-4.8674593
0.3539518,0.020595796,0.61801785,0.53077257,13.878897,-4.191226
0.22935216,-0.024391733,0.56352526,-1.7048265,15.065214,-2.7747693
0.062368844,-0.19324812,-0.17729533,-1.1090205,17.365501,-2.2810245
-0.08882356,-0.07381226,-0.7893816,-3.3053846,17.115889,-2.1883206
-0.37387252,-0.22780323,-1.5001194,-2.1805644,21.758142,-3.4026222
-1.046681,-0.34563196,-2.4812298,1.6344521,18.46595,-8.406044
-2.3242779,0.28551483,-3.9324217,13.422875,14.498239,-13.036584
-3.5569153,0.92171013,-6.0670276,10.89867,4.908253,-16.740385
-4.5534306,0.91527915,-8.308557,8.446158,-24.374641,-24.475237
-5.2911105,-0.15818934,-12.8060875,8.008454,-53.621223,-23.350624
-5.9031744,-2.1971872,-15.84389,4.6422696,-100.78535,-19.836472
-5.4126654,-5.390774,-16.531273,11.919313,-140.07771,-14.321901
-3.6272483,-6.65065,-14.930361,53.05137,-178.89076,-11.2783575
-0.8690475,-2.6639817,-10.472423,61.418137,-195.22313,-7.5686274
0.58125174,0.71807414,-6.292983,47.606216,-207.62714,-5.3996425
2.497969,2.7036521,-2.1163568,29.56874,-210.95302,-4.578504
4.697659,2.7658632,2.1972759,13.637517,-206.67448,1.7146137
6.4814863,2.3472376,6.00261,17.70937,-177.36104,-0.1349802
8.687383,2.98428,10.449969,13.524808,-144.26497,2.9231954
10.214062,4.0970125,13.858285,-5.1625443,-104.41302,11.238693
10.241273,4.3256984,15.442117,-24.713413,-52.60941,6.584433
9.387052,3.575856,15.239793,-31.396488,-18.752949,3.7128515
8.444963,3.239657,14.602374,-30.479618,17.02674,-3.0462694
6.967245,2.5478377,13.281546,-33.85295,48.3875,-6.613279
6.778728,1.6594037,11.7057905,-37.078243,74.57515,-5.8546696
6.2518806,0.76480913,9.837346,-32.389816,100.91038,-7.9276075
5.1933327,0.0048431605,7.2650933,-24.814594,116.19298,-9.908593
3.5554814,-0.8726423,4.7396874,-20.457449,121.80541,-2.818461
2.2826965,-1.1688219,2.0642216,-20.852934,119.45118,1.2559633
1.9132575,-0.81864315,0.83103085,-22.747742,127.15731,0.7468173
1.8303493,-0.7271366,0.15797167,-24.05441,135.822,1.6548812
1.5407573,-0.55805653,-0.8746596,-22.830275,144.59242,-1.5517852
0.33276328,-0.8202002,-2.9784806,1.5656213,119.931366,-2.615278
-1.9685186,-1.305782,-4.7735877,6.546201,98.2581,0.042228
-2.2401347,-1.51804,-5.223669,6.2472525,74.70011,3.6735773
-1.9556136,-1.8784585,-5.1512647,10.971651,62.78545,8.44223
-1.6487213,-2.0502055,-5.24409,20.915886,64.08272,10.968939
-1.3073559,-2.297595,-4.8765664,32.157272,56.01361,15.677108
-1.3840058,-2.3029199,-4.9417853,49.47575,42.33209,23.341007
-1.7449743,-2.0842135,-5.112613,62.3855,25.826963,27.110424
-1.6578279,-0.62807095,-4.6174035,67.14859,12.636671,26.321499
-1.72748,1.5373039,-3.84316,63.727856,6.069975,12.619967
-1.6788477,2.6627772,-3.618437,55.364403,-2.205544,1.7398571
-1.279666,4.313951,-2.701147,48.33324,-0.99163675,-10.185025
-0.87492263,6.0023627,-1.8174413,40.146393,-4.9357014,-24.035456
-0.67324686,8.034805,-1.0643858,22.199923,-4.267109,-36.06041
-0.6264366,9.997565,-0.7976761,-1.539144,-12.13419,-51.866886
-0.68554235,9.723529,-1.3519102,-36.62379,-17.566858,-63.922523
-1.4678544,8.118298,-2.0428097,-54.19771,-24.417562,-76.53718
-1.4865701,6.559334,-2.509342,-59.70439,-31.395412,-90.26737
-0.7689288,4.5718184,-2.8089695,-71.233765,-36.800312,-92.2536
0.13164657,2.368554,-2.7573578,-77.65121,-41.666138,-85.20294
0.901282,0.57283473,-2.1640797,-75.0336,-48.149055,-88.0256
1.5203893,-1.3789634,-1.213496,-57.03293,-47.28184,-91.29514
2.113468,-3.8372712,0.43458334,-44.835526,-40.649727,-81.563156
2.5839846,-4.9529963,1.3632498,-38.151962,-34.896767,-70.71603
3.1268077,-6.332308,1.665055,-26.216852,-29.374056,-53.238552
3.1904843,-6.7054243,1.6122196,-15.978123,-14.708691,-39.421803
2.321569,-6.5243955,0.8766943,-4.782256,-7.778504,-32.333683
1.5367689,-5.866141,0.32400605,3.050784,-0.6950728,-28.519733
0.56941175,-4.5731378,-0.06279507,-1.1847651,4.7826824,-20.61284
-0.47380266,-3.811269,-1.2516251,-7.4965324,4.022905,-10.169381
-1.884257,-3.3347545,-3.0259173,-5.336849,3.6486578,-2.420623
-3.7262115,-2.9916208,-5.7832,-0.06591576,-7.812441,-2.4907362
-4.94361,-2.2560825,-8.267772,4.6695757,-23.898735,-5.2501097
-5.468507,-1.7786095,-9.8983345,7.9464283,-46.720295,-5.0234337
-5.2254653,-1.7911865,-10.389144,11.700504,-74.10514,1.5860724
-3.8542852,-1.0810716,-8.990169,11.3653965,-103.375465,4.637797
-2.2788718,-0.1833573,-7.3474774,11.248095,-107.34006,1.087841
-0.5695394,-0.7852225,-5.7232647,13.205498,-112.919586,0.16798358
0.288638,-1.3840381,-4.390572,17.425045,-115.82841,1.3343096
0.4650641,-2.0190802,-3.3610494,26.2157,-123.88273,3.0625203
0.7137855,-2.1081803,-1.4865047,35.405106,-133.589,12.752381
2.499594,-1.0107782,2.2129447,32.518105,-132.73611,19.002066
4.4687853,0.6205753,5.9475307,26.191212,-114.5489,22.685783
5.6221986,2.5719569,9.514446,15.864759,-97.06,18.234028
6.272153,3.3714755,12.640917,-2.685833,-73.771576,9.369809
6.714813,2.6230936,14.335034,-21.156616,-25.23195,5.270379
6.7330523,0.8808398,13.7105255,-37.464077,7.7325845,6.2747335
5.5547175,-2.3061707,11.047046,-40.468014,25.97617,13.963982
4.814755,-4.392232,8.75058,-33.22356,37.66267,24.366686
3.773784,-5.933515,6.5041633,-17.422327,59.85485,31.76904
2.6601477,-6.2676597,4.275942,0.45792058,70.93888,40.890747
2.3840222,-5.8936906,2.7740598,8.849246,78.79752,52.132496
1.5242939,-5.1191797,0.7188296,7.266841,79.68225,62.06802
0.7320133,-4.913861,-0.73150206,0.7565271,78.6634,73.963425
0.1456568,-5.1895065,-2.22566,7.8234816,75.22683,78.052216
-0.5255732,-5.0759215,-3.0367682,35.26896,70.09113,78.56687
-0.99270904,-3.3372169,-3.5231197,58.611362,65.456245,77.31583
-1.3875177,-1.4791719,-3.929822,58.925247,52.725456,81.04568
-1.3013976,-0.4754973,-3.540868,55.068947,42.474213,88.81952
-1.0434957,0.09945388,-3.21133,54.67233,33.378014,91.70549
-0.42550433,1.149211,-2.623229,51.803852,27.28602,85.813416
-0.42384788,2.178331,-1.7152406,58.14263,30.105528,80.84168
-0.8029636,3.2761319,-1.8067447,55.855755,22.903004,69.819954
-0.8694725,3.7149193,-1.7854022,54.771053,14.538194,66.84369
-0.50701207,5.134597,-1.3131385,48.310818,4.993376,59.53529
0.07646464,6.1934543,-0.7888464,31.579441,4.6061964,52.50997
0.41355377,6.707224,-0.52102804,20.054066,1.0025824,40.121803
0.957528,6.943975,-0.5602811,18.400576,1.1861703,26.770004
1.0206175,7.682893,-0.52809435,17.801508,1.5935321,14.145248
0.7940301,8.699582,-0.40004125,9.787816,5.397153,3.7316518
0.2143558,9.986033,-0.8718091,1.502098,-2.0579722,-14.542259
-0.53244,11.309386,-1.4423712,-3.8251226,-9.570849,-30.930838
-0.7211479,12.306529,-1.5053831,-25.525585,-12.282171,-49.520782
-0.31067726,11.554098,-1.8113513,-46.12947,-22.12076,-63.152164
0.25019464,10.073026,-1.9952238,-61.364735,-23.41053,-73.28776
1.3043687,8.285899,-2.0156324,-72.77829,-21.815872,-86.71755
1.9854097,6.0465755,-2.293734,-72.61862,-22.627398,-103.74224
1.4354982,4.307043,-2.2890725,-70.17057,-25.395527,-109.07254
1.010384,2.9787033,-2.0891736,-76.437416,-30.085604,-110.91694
1.1411899,0.9658207,-1.9459844,-72.01824,-37.70084,-110.84273
2.5203443,-0.7188178,-0.5966197,-71.62766,-37.307323,-110.44122
3.4598908,-2.7734337,0.5150151,-71.7886,-24.91551,-107.35961
2.733145,-7.253789,0.2100478,-57.278248,-22.352245,-102.02206
2.156653,-10.582111,0.2511319,-34.483265,-19.571827,-88.28705
2.1447732,-12.402665,0.6054475,-19.71826,-16.210304,-70.60992
2.5839646,-12.836105,1.2306033,-11.406399,-4.6270323,-39.974335
1.5150393,-12.151571,1.5336651,-2.4865065,-1.9980571,-15.866457
0.509864,-9.889741,0.99004185,9.353006,5.814296,-3.8012428
-0.4638646,-7.6645713,0.7372996,12.192306,7.402714,1.9209939
-1.4935086,-5.9677534,0.12365162,17.80656,9.663534,7.980729
-2.3387897,-4.1368065,-0.09673561,16.915274,3.5930388,17.15618
-2.1048732,-1.8695688,-0.027284991,12.983507,3.1920183,22.805098
-2.0252106,-0.22275464,0.14402866,8.112953,-2.5762908,22.92568
-1.2011743,0.50191426,0.5040847,0.39888826,-1.8963859,22.682526
-0.5780611,0.75793195,0.55482346,-6.4984636,-0.047289908,20.482264
-0.5335328,0.71406317,0.4914242,-4.0751114,0.8353323,15.403364
-0.81334305,0.7493883,-0.20298842,-3.962041,-2.2369106,13.439791
-0.4890146,0.27480835,-0.23118246,-5.8192263,-4.288513,10.34118
0.17913704,-0.13075182,-0.22533955,-0.5553998,-6.806688,13.710005
0.6379463,-0.1638408,0.098910876,-0.49615458,-6.7870255,13.263151
0.8084012,0.19523604,0.46465445,2.4097013,-1.3477204,12.806536
0.7333474,0.82855403,0.75702107,-4.2621293,1.3460615,13.05632
0.77642673,0.8801303,0.92606807,-8.382183,7.4079475,11.45979
0.57594204,0.5546194,0.68582684,-5.760328,3.9972253,8.153387
0.6874192,0.62757355,0.63002837,-9.0273485,5.504734,6.600571
0.5969447,0.017642865,0.5641687,-10.373393,4.840911,9.992884
0.47518742,-0.47053462,0.65056694,-14.378134,10.292544,11.690866
0.3387076,-0.55958736,0.7282791,-14.694148,16.46867,13.36648
0.07201643,-0.91657573,0.61563003,-14.141217,18.822582,11.944907
0.0,0.0,0.0,0.0,0.0,0.0
0.0,0.0,0.0,0.0,0.0,0.0
0.0,0.0,0.0,0.0,0.0,0.0
0.0,0.0,0.0,0.0,0.0,0.0
0.0,0.0,0.0,0.0,0.0,0.0
0.0,0.0,0.0,0.0,0.0,0.0
0.0,0.0,0.0,0.0,0.0,0.0
0.0,0.0,0.0,0.0,0.0,0.0
0.0,0.0,0.0,0.0,0.0,0.0
0.0,0.0,0.0,0.0,0.0,0.0
0.0,0.0,0.0,0.0,0.0,0.0
0.0,0.0,0.0,0.0,0.0,0.0
0.0,0.0,0.0,0.0,0.0,0.0
0.0,0.0,0.0,0.0,0.0,0.0
0.0,0.0,0.0,0.0,0.0,0.0
0.0,0.0,0.0,0.0,0.0,0.0
0.0,0.0,0.0,0.0,0.0,0.0
0.0,0.0,0.0,0.0,0.0,0.0
0.0,0.0,0.0,0.0,0.0,0.0
