ax,ay,az,gx,gy,gz
-0.29718193,-0.07491706,-0.08054969,-22.30167,8.41807,4.8096113
0.20736682,-1.658927,-0.59253097,-23.630869,4.0374994,23.17112
0.6827778,-1.1237137,-0.56475097,-4.845706,4.119169,15.343061
0.4236062,-1.3002226,-1.2721559,10.260495,-1.2873738,9.364484
0.3876839,-0.9950046,-1.5271816,26.886091,-0.22741938,3.1050105
0.5938889,-1.026062,-1.6024557,32.71442,-4.91203,0.33998263
0.49164814,-0.3717215,-2.3207135,28.324183,-1.637378,4.2889028
0.6230944,-0.2033536,-3.0176132,20.087896,-0.6179623,7.927461
0.81148493,-0.07176459,-4.201252,3.8371665,1.2740215,6.889394
1.2698994,-0.5721786,-4.868798,-13.813228,-3.213828,11.504847
1.448168,-1.0090877,-6.17102,-28.086748,-3.7923453,15.740019
1.7088183,-2.1875017,-7.596709,-31.599747,-5.02933,10.9259405
1.0798093,-3.0645,-8.579515,-28.719912,-9.713059,11.353973
0.6865378,-2.9210515,-9.7156925,-34.922897,-25.771624,15.445234
0.6602931,-2.6552105,-9.980104,-50.227535,-41.575645,29.993408
0.7021865,-2.7840776,-10.618575,-61.94983,-58.85592,42.392952
1.3817967,-2.8219554,-10.531206,-53.857327,-69.54046,38.808773
1.1610019,-1.9973812,-10.835326,-46.92358,-82.51507,32.809902
1.0975956,-0.9493847,-10.515188,-50.62223,-98.84247,29.452467
1.1571391,-0.29327995,-10.227175,-50.06747,-111.38905,20.18611
0.826843,0.52822185,-10.212901,-56.975,-133.41873,3.7003822
0.12643877,2.21067,-9.162215,-70.02023,-157.36996,-1.1389132
-0.074367516,2.9821844,-7.633522,-101.57679,-186.3985,-9.263625
0.23917596,3.1612916,-5.475626,-129.2119,-210.80801,-12.128306
2.2500324,1.9580058,-2.3228405,-154.21724,-231.19653,-24.329275
5.5220613,-1.6153785,2.0789227,-132.89117,-236.39105,-31.14646
9.8300495,-4.5658393,9.072562,-113.93118,-211.46054,-31.31808
11.527439,-4.7410073,12.965235,-110.39843,-174.32358,-38.292786
10.5009985,-5.821437,15.614509,-109.56278,-145.14023,-33.932777
8.476117,-7.7225494,17.266935,-102.993454,-129.82402,-16.542608
7.671576,-9.032436,19.175457,-60.687206,-105.01518,4.360099
7.0848265,-7.9271812,21.087593,-15.844882,-78.71187,18.639402
6.396712,-5.613851,21.51216,25.064405,-50.53895,30.332132
5.5049973,-2.4001083,20.968588,66.56798,-16.396301,29.917883
4.6068263,1.4487331,19.535921,84.11258,15.761792,26.25188
4.6502132,4.4812965,17.333742,76.41829,53.366524,13.99135
4.748149,5.6715717,14.324141,58.518528,77.53443,-3.9576678
4.2430706,3.4991512,11.611082,48.572163,95.67366,-12.787749
3.71845,0.9627675,9.760944,54.810722,109.39548,-13.435413
3.3675187,-0.3799834,7.882444,67.40901,117.85662,-18.16058
3.0928626,-0.6239022,6.7233834,89.68647,118.582596,-26.878597
2.6591785,1.2754474,5.942453,82.97566,119.95343,-30.894876
2.8732474,1.4093318,5.677361,57.871685,130.94221,-38.391388
2.5927017,-0.07858949,4.354233,45.88263,142.9419,-42.89178
3.1051002,-1.7683325,2.6957126,38.7312,152.63861,-41.00322
3.334361,-3.7572486,1.113833,41.847965,151.48445,-28.076788
4.280397,-5.872204,-0.5865271,58.62215,154.09592,-35.08674
4.2246156,-6.710588,-2.2340302,64.760574,147.03276,-34.099102
4.0007734,-8.097,-3.3836932,71.06902,141.38074,-23.39615
3.6432006,-8.6033125,-5.129244,88.4041,135.63893,-9.741229
3.189205,-7.581473,-6.73181,99.13415,117.05425,4.193928
2.7204068,-5.5424933,-8.167031,101.5546,107.57012,16.907984
2.1945453,-3.7637274,-9.19423,87.70189,92.3065,23.90989
1.8388648,-2.8849812,-9.480745,76.855545,76.21043,25.384943
1.3506459,-2.0325584,-9.47008,66.53526,59.752556,28.613264
0.82244915,-1.0443699,-9.284116,54.397274,35.38417,38.866013
0.24773106,-0.25796288,-9.197355,49.303516,15.677592,40.44607
0.8996467,0.6851175,-8.043172,53.788322,5.5919123,45.50641
2.3910491,1.6912628,-6.803053,53.35084,5.146163,40.805107
3.3370218,3.2344375,-5.469052,48.455566,19.739695,30.113842
2.976092,4.067006,-5.4385066,42.67987,22.4922,11.740427
2.0234957,5.1251464,-5.2580023,45.79597,12.676859,3.7741733
1.89393,6.6010103,-5.011697,44.39084,-5.76412,-11.64507
1.96022,8.004913,-3.695191,48.78909,-21.235159,-14.629127
3.2248943,10.844065,-1.589602,51.27191,-29.687956,-35.46706
6.1344194,14.226652,0.26361364,12.236324,1.0664899,-71.789635
7.6882706,15.767136,1.849909,-32.58165,38.827858,-105.70954
6.00073,13.862276,1.2268014,-73.405365,63.885498,-133.62007
3.939717,11.115012,0.3720816,-106.16114,66.85111,-156.8785
3.5698688,7.7506313,-1.1879164,-125.285545,65.33732,-169.12651
3.8557732,3.0447047,-2.4537816,-129.92462,66.95539,-192.88086
2.0942185,-5.4960732,-3.6388931,-108.62834,58.499035,-187.86693
0.4858316,-9.379988,-5.563622,-64.68994,37.736736,-172.11192
-0.27493644,-11.049392,-6.626087,-41.664204,8.646719,-147.43413
-0.045112215,-12.373644,-6.7248397,-23.86375,-20.261095,-116.67367
0.87734044,-12.969016,-6.043691,14.058157,-38.032074,-73.997696
1.5679222,-11.150084,-6.1395655,41.78072,-47.459267,-53.378178
2.1705208,-8.956221,-6.95132,62.443153,-52.341045,-43.521088
2.2333155,-7.1626863,-7.4289064,65.4558,-56.70793,-32.708805
1.7562709,-5.3235373,-7.924168,53.609016,-56.566612,-13.844734
1.6314187,-3.6784134,-8.736144,12.436708,-60.332066,18.157375
2.1393754,-1.8648129,-8.898403,-18.339495,-56.85714,28.991188
2.4257717,-0.85890555,-8.700013,-40.967125,-57.81606,21.155344
1.7311056,-1.210424,-8.77877,-49.39788,-62.24896,-7.7162366
0.6661122,-1.5974867,-8.67833,-46.711617,-72.94059,-20.231617
-0.28656024,-1.8743846,-8.284633,-49.20009,-88.45321,-24.60623
-1.0048354,-0.9142308,-7.9074397,-62.98951,-109.29647,-11.422817
-1.5358816,0.43422455,-7.4040146,-89.054886,-134.71112,-8.5935545
-1.5987666,2.029061,-4.956011,-135.88626,-160.57896,-13.4145975
-0.75801307,1.2093238,-0.43285686,-154.86716,-170.34605,-24.283436
0.8340842,-0.015238131,2.4983459,-155.04778,-153.34952,-34.70442
2.5580733,-2.7840502,5.688806,-155.76736,-138.04846,-34.72908
2.8595693,-5.720998,7.69468,-133.11568,-129.6029,-38.699184
3.4478962,-7.072125,9.4307,-96.03424,-128.02982,-33.96457
4.7731724,-6.9678717,10.978301,-74.849434,-108.681244,-26.727604
5.103532,-7.3744125,11.716486,-73.62033,-77.85983,-21.017036
3.7762167,-8.533135,12.300457,-71.54763,-45.17469,-5.762016
2.2980168,-9.268255,10.93157,-56.273186,-25.913816,7.4198737
1.0677197,-9.446761,9.499292,-33.279263,-11.642983,22.242615
-0.12560807,-10.141822,7.993292,-9.607544,2.899226,34.36895
-1.3066028,-11.135935,6.1642942,39.626984,7.5013585,55.503757
-2.015431,-10.756075,4.0740237,76.500725,4.1377516,77.41122
-1.8147298,-9.367284,2.9175367,95.82956,-2.1344783,108.13752
-0.89277816,-7.4015183,2.3329854,105.019936,-5.867224,129.36789
0.100211464,-5.9302144,2.1580696,98.99103,-2.9981556,142.55006
0.86319935,-4.61562,1.3836468,86.01886,2.57266,153.76433
2.0956683,-4.0883994,1.1075219,76.84431,10.63891,157.18591
2.3125079,-3.3788307,0.7499256,76.33117,21.511591,159.04977
1.7413076,-2.4567077,-0.3141641,75.27029,26.68443,160.17743
1.4916866,-2.154192,-1.421961,69.78455,21.116241,168.13902
1.658578,-1.0749698,-1.5082254,79.20169,10.490975,166.42735
2.1774178,1.0507772,-1.9891198,86.71007,1.9805982,164.7247
3.195711,2.8600316,-1.8326405,88.90864,-1.5173888,163.09969
4.402092,4.7108684,-1.8253314,72.771904,4.497761,153.70041
5.1154027,6.0012035,-1.8102745,42.44071,14.3606415,139.8692
4.4059515,6.40846,-1.8957847,5.4022555,16.343397,131.26349
3.1260273,6.1249766,-3.1855865,-2.1841524,11.449504,124.61463
3.119573,5.9498954,-3.3731704,10.761198,-5.1784363,110.801025
4.0244126,6.740138,-2.7519603,28.87303,-22.476233,87.4893
5.2127995,7.663257,-1.9575356,42.098133,-24.03667,62.08445
6.355621,9.063796,-1.1657945,25.32005,-17.873785,38.91595
6.845593,9.826794,-0.8269934,3.638236,-2.947056,22.167957
6.10099,9.61533,-1.1550782,-14.526417,-6.634888,6.3736687
5.742941,9.107914,-1.2808719,-25.825907,-10.882634,-8.472931
5.758237,8.874957,-0.6885066,-41.584465,-12.790892,-28.557032
5.595926,8.402516,-0.44003403,-46.59638,-8.353242,-50.66798
5.4785385,7.0885224,-0.3687688,-43.67233,-5.3707414,-74.933685
5.318065,6.5065193,-0.22058183,-23.81432,-1.6779852,-95.61398
5.0419,6.670988,-0.1296768,-16.663452,-2.5871692,-113.49017
5.0925126,6.733002,0.22559331,-15.001389,-3.5419161,-129.69478
5.713371,7.6847215,2.0492039,2.4264972,-12.326891,-149.06116
8.678314,11.150234,5.5279703,35.697414,2.2463489,-187.90012
12.235643,13.764716,6.3504753,17.028423,40.82146,-236.01224
12.471404,11.615683,4.095708,-24.081644,75.38406,-289.14996
10.462189,6.9926,0.52849364,-41.21025,97.12276,-326.55075
8.183398,2.2190228,-2.554809,-72.56247,96.93219,-335.83566
4.763632,-3.6083674,-6.5592823,-140.77136,78.396255,-298.41605
3.2895112,-10.1319065,-7.226336,-184.01949,46.46596,-239.81737
2.3425362,-17.002539,-5.814705,-135.14517,15.970721,-198.8916
2.2829714,-18.851213,-3.656474,-55.66131,-5.1928654,-173.27345
3.0708473,-17.839455,-1.9835373,14.842621,-4.883535,-136.20764
2.7314363,-14.933612,-0.8187111,28.070164,8.0185795,-118.17103
0.49504992,-13.195875,-1.3064826,26.678606,4.7936425,-83.40159
-1.0695962,-11.525324,-1.8365567,18.545826,-5.472468,-54.074497
-1.2851886,-9.578154,-1.9863948,8.992188,-11.854423,-25.869009
-1.4011629,-8.258432,-1.2363367,17.373865,-11.81211,-11.346059
-1.6504086,-6.2326846,-1.3788147,28.847687,-12.418938,-6.758076
-1.7177583,-4.646369,-1.2926661,30.141779,-11.774237,-3.4382582
-1.6366212,-3.2589002,-0.65037847,32.052574,-13.353321,1.3671311
-1.4228612,-1.5992877,-0.724893,24.65414,-11.901491,4.835447
-1.1554649,-0.4859478,-0.11637606,-4.049966,-0.076785326,11.943136
-1.1072589,-0.6130779,-0.08074963,-20.42427,0.7321515,15.494049
-0.8595912,-0.95163065,-0.20723663,-28.005653,2.6482286,13.782366
-0.7984466,-1.9654678,0.064256996,-17.480688,1.9944764,16.709242
-0.5417911,-1.9973083,-0.069178,-2.9655666,-2.0363774,14.618835
-0.20160672,-1.649657,0.2705993,4.7699738,2.6385915,13.842814
0.04165647,-0.51600796,-0.038338132,2.3232431,1.1772323,18.022406
0.05913632,-0.5104952,-0.1267077,-10.259094,2.167004,19.643097
0.22488345,-0.4995829,0.16545825,-28.814138,3.5086327,24.228014
0.2786947,-0.5019596,-0.12658243,-40.268852,-3.2180314,23.80638
0.0,0.0,0.0,0.0,0.0,0.0
0.0,0.0,0.0,0.0,0.0,0.0
0.0,0.0,0.0,0.0,0.0,0.0
0.0,0.0,0.0,0.0,0.0,0.0
0.0,0.0,0.0,0.0,0.0,0.0
0.0,0.0,0.0,0.0,0.0,0.0
0.0,0.0,0.0,0.0,0.0,0.0
0.0,0.0,0.0,0.0,0.0,0.0
0.0,0.0,0.0,0.0,0.0,0.0
0.0,0.0,0.0,0.0,0.0,0.0
0.0,0.0,0.0,0.0,0.0,0.0
0.0,0.0,0.0,0.0,0.0,0.0
0.0,0.0,0.0,0.0,0.0,0.0
0.0,0.0,0.0,0.0,0.0,0.0
0.0,0.0,0.0,0.0,0.0,0.0
0.0,0.0,0.0,0.0,0.0,0.0
0.0,0.0,0.0,0.0,0.0,0.0
0.0,0.0,0.0,0.0,0.0,0.0
0.0,0.0,0.0,0.0,0.0,0.0
0.0,0.0,0.0,0.0,0.0,0.0
