ax,ay,az,gx,gy,gz
-0.36824608,0.36242682,-0.69275033,-6.320468,19.801617,-18.673223
-0.90989166,0.21099877,-1.14918,8.942182,12.175977,-16.650694
-1.0753028,-0.37236094,-1.4763544,14.264262,3.7078314,-19.089216
-0.94321895,-0.36221611,-1.8417052,20.15132,-0.8469879,-17.561346
-1.0137575,-0.14558214,-2.090874,17.571836,-7.6181984,-13.232236
-1.4803056,0.009893391,-2.3694637,7.084884,-7.338287,-10.000683
-1.8139535,-0.029457279,-2.9347496,4.407419,-14.939177,-6.016468
-1.7297097,-0.42072958,-3.156555,2.780398,-24.21127,3.1240191
-1.8749123,-0.69744766,-4.0909786,-0.38973817,-31.441635,7.9643707
-3.0581686,-1.858737,-6.224411,-17.449747,-109.93441,52.218163
-3.3793917,-2.5730076,-5.9684625,-16.804688,-119.878975,56.48283
-3.6442127,-1.973217,-5.791971,-12.249906,-133.9998,56.845947
-2.9920974,-0.85365707,-5.1750803,-13.990694,-153.04944,51.940098
-1.4001235,0.18357295,-3.8135934,-20.535315,-159.95569,50.547325
-0.38863364,0.7181561,-2.4557402,-28.227541,-164.2157,55.43883
0.39264944,1.4147853,-1.1804928,-39.098396,-167.219,56.889774
1.2757401,1.7621511,-0.25750184,-51.48164,-159.23677,62.897995
2.0151806,1.9901075,0.8995028,-58.113834,-152.30693,57.848465
3.4369874,2.1930351,1.9719987,-63.46378,-146.9827,49.472996
4.6038904,2.3815484,2.9868102,-77.53628,-135.74634,53.299194
4.6359763,0.87319547,2.8994768,-83.405495,-124.48963,54.43918
4.861179,-1.0189971,2.5673475,-76.02884,-120.44986,44.94481
6.441404,-1.7466108,3.674782,-64.072136,-110.213646,32.06192
7.1779537,-1.5378561,4.2509537,-54.432655,-87.36676,24.807495
6.9493556,-1.545507,4.65226,-48.235954,-69.37952,25.313213
6.2136493,-1.26649,4.631338,-43.090446,-59.43151,26.463236
4.9450674,-1.1301086,4.3658705,-33.0615,-50.143005,27.453705
3.8400018,-1.3529449,3.9233956,-24.671646,-44.554447,24.177095
3.2566931,-1.4420146,3.335552,-15.414902,-41.507656,15.751237
2.8657045,-1.038059,2.965889,-4.297552,-35.60182,7.997221
2.3568203,-0.423011,2.6490972,4.548198,-32.34898,3.7000787
2.0919125,0.42104214,2.6154242,11.276559,-27.666138,-2.0840266
1.9928975,0.77789104,2.5946188,10.509331,-23.2657,-1.5335724
2.0429218,0.8829856,2.3721883,9.660413,-21.163904,-3.6060886
1.9455321,0.6485738,2.156704,10.930198,-14.113795,-1.1308048
1.8623865,0.6216955,1.9678932,5.4795446,-9.1759815,-3.470002
1.9255507,0.36591533,1.7705474,4.1551733,-3.0908408,1.5774248
1.6472133,0.3108514,1.5775061,5.153692,3.0481153,3.5254016
1.4419509,0.3434633,1.4615922,1.6771686,9.264357,3.9691672
1.2004404,0.18416405,1.34511,3.1517692,14.191589,1.9094318
0.83253384,-0.37490863,0.9732447,6.165988,17.289463,2.1629097
0.5637108,-0.9230697,0.9656332,6.517027,13.633375,-0.37214172
0.18439953,-1.0214047,0.920422,15.015452,13.997157,-1.0078187
0.58962464,-1.1007037,1.2005167,19.44953,15.509122,3.8564627
1.1674156,-0.57771087,1.707043,21.501978,12.79128,4.3141003
1.5992473,-0.3231347,2.1298726,25.864613,17.399694,-0.99520135
2.1608436,-0.20431037,2.4192362,27.51294,28.693695,0.84696984
3.3423924,0.4348018,3.542294,26.619814,34.6138,4.5955987
4.2115498,0.84752053,4.2326064,28.050987,47.067112,0.91276884
4.944224,1.2482269,4.8126974,25.926228,60.40368,-2.7772284
5.343056,1.1417166,4.7076464,25.2876,78.44639,-9.876803
4.923948,0.7373316,4.3991675,29.334318,97.17939,-16.471844
4.1453276,0.048946314,4.0865116,29.391678,103.118515,-25.416641
4.1138997,-0.43781215,4.387364,32.11215,116.20855,-32.97375
4.490981,-1.0493705,3.779117,35.2158,127.8772,-36.67757
4.654652,-1.3955998,2.8920717,39.091877,136.7937,-30.099928
4.127079,-0.75924313,2.1831944,42.72809,149.9473,-30.275198
3.5562992,0.54213077,1.2576494,36.601845,155.511,-27.447123
2.4501023,0.81151897,-0.10571089,25.364746,161.89807,-19.935537
0.61515915,0.17613782,-1.705808,18.639086,161.36835,-19.81177
-1.3756102,-0.6126358,-3.5077684,27.235664,152.03087,-33.216534
-2.3420703,-1.089955,-4.9293113,38.00341,129.0147,-48.415516
-2.6258445,-1.8777558,-6.3251243,35.398556,110.55674,-47.764584
-3.0967085,-2.2893338,-6.898597,33.668076,89.12612,-39.919785
-3.507877,-2.3684258,-7.1658635,33.09551,66.23861,-33.102715
-3.6183496,-2.1184552,-7.399347,36.52494,43.782063,-29.373587
-2.8878176,-1.6479154,-6.9767985,38.571754,27.842564,-27.653498
-1.1578463,-0.78638184,-6.5363317,40.51997,21.471554,-18.073004
-1.1952015,0.5599159,-6.2685447,37.881,21.09822,-15.322991
-1.312673,1.5075719,-6.0388894,44.58735,12.587566,-22.209082
-0.95866936,2.6963933,-5.6967473,41.320152,7.470035,-30.022629
-0.33000007,4.130968,-4.748737,31.98015,-0.18439144,-43.10908
1.0131803,5.875246,-3.719687,14.752154,-3.865062,-45.984344
1.5158361,6.495494,-3.1923528,-1.6594899,2.7193732,-45.062084
2.0047727,7.126603,-2.6106164,-18.152565,0.7069801,-47.656605
2.3330743,7.6455946,-2.0672033,-30.113543,3.03805,-53.010323
3.0091715,7.646552,-1.5607826,-51.747463,4.1758747,-64.43646
3.5877368,6.749628,-1.3969271,-67.35616,10.708449,-68.578285
3.7348146,5.7847495,-1.322324,-79.881226,16.391794,-75.4875
3.8856301,4.27409,-1.4131665,-89.49555,22.243145,-79.68706
3.172951,2.993132,-1.6399926,-92.27442,28.400276,-85.67591
2.6378329,2.0205166,-1.4729185,-87.915,28.16045,-106.3382
2.3229463,0.9564433,-1.1622266,-93.96917,34.772865,-106.62517
1.4757128,0.5508528,-0.9720298,-98.254196,32.705013,-101.18049
0.48790893,-0.09599555,-0.8733601,-103.35969,30.988602,-99.33585
-0.50124305,-0.96719706,-0.75306934,-96.11374,23.821123,-107.93329
-0.8368342,-2.4614768,-0.6967003,-85.334366,15.966025,-120.79684
-1.3270459,-4.142465,-0.7371511,-79.966125,8.641459,-117.12204
-1.6046067,-5.221045,-0.38740635,-73.09715,1.5358359,-112.962524
-1.4268485,-5.908281,-0.17391893,-67.18025,-7.265299,-96.84893
-0.6781363,-6.8037734,0.67719287,-55.41008,-4.2656493,-83.02701
-0.15407486,-6.9302506,1.2372782,-42.553455,-1.3779275,-65.70686
-0.19561623,-6.9932613,1.343863,-33.87354,3.1316383,-58.084652
0.062270135,-6.7570443,1.4790257,-20.83382,9.410559,-53.1708
0.105056554,-6.2201843,1.405993,-12.058179,13.546992,-42.890816
0.02180974,-5.5278964,1.4572339,-3.5348315,19.08109,-29.260447
-0.5567234,-4.81479,0.93883944,2.21045,25.965666,-17.907131
-1.5657158,-4.0271006,0.02222435,6.7390738,27.21865,-7.7202487
-2.7127218,-3.3853624,-0.82627904,16.590303,19.752998,-3.4764984
-3.1683948,-3.0560825,-1.6677103,21.273745,11.597251,-3.3135636
-3.2545066,-2.49985,-2.1635685,24.775309,1.8236065,-1.8480169
-2.8509333,-1.5397826,-2.5568256,27.26663,-6.0895905,1.7742472
-2.757342,-0.4615452,-2.9728088,22.654716,-10.491998,5.6193557
-2.9383922,0.08565629,-3.5505579,21.119814,-13.650421,12.627994
-3.1484094,0.7283394,-4.1301584,15.409959,-25.04969,16.164055
-3.526202,1.1598271,-5.0039525,7.1375885,-36.118946,18.462948
-4.1274657,1.1516376,-6.016203,0.8097508,-54.83923,18.592924
-4.7239504,0.66972244,-7.105183,2.078908,-67.89229,10.955629
-4.795235,0.76323706,-7.246852,4.472812,-86.40296,8.466303
-4.0951996,1.4283609,-6.819503,0.09835565,-99.02095,7.916697
-3.6239939,1.7727091,-6.4481974,-8.435232,-109.16525,8.595203
-3.510233,2.339298,-6.2034383,-19.675648,-128.77942,9.827664
-3.250957,1.8988131,-5.9972625,-34.554214,-140.52208,21.920336
-3.2894332,1.0266175,-5.9421687,-41.18156,-153.82426,18.103424
-3.0589242,0.82111615,-5.2794013,-40.508945,-166.78662,15.09675
-2.02972,0.6667371,-4.1869497,-40.418922,-179.19102,5.852475
-0.7516894,1.2771516,-2.29455,-55.5596,-188.50781,9.376406
2.2683322,1.0088573,0.429713,-71.73319,-181.46509,19.78047
3.9427183,-0.43828595,1.8569183,-74.47384,-173.63129,15.408236
6.7103024,-2.4239964,3.345964,-63.559967,-160.11595,2.7634676
9.536337,-3.6855218,5.2066383,-49.640934,-133.63708,0.37836504
11.550997,-3.9401178,7.1617045,-31.76882,-94.948235,0.03787291
12.072824,-3.8993773,8.717815,-26.439213,-59.75552,5.334708
10.874349,-3.5450447,8.957576,-20.215631,-33.532364,14.002758
8.755635,-3.6906884,8.24185,-18.448416,-5.3418636,25.625338
6.345637,-4.531933,6.8805094,-13.695721,3.434649,29.986202
4.7756305,-5.575083,5.5210595,-3.3009913,18.916164,34.61044
2.6339302,-7.288994,3.839214,17.762848,24.774563,39.24847
1.4722627,-8.0743265,2.405487,35.162888,18.976416,46.32527
1.0576954,-8.791694,1.5302618,50.572826,17.925253,61.090553
0.358586,-9.070405,0.471964,63.32613,12.456472,80.81105
-0.37454033,-8.994331,-0.359247,85.89831,2.3409412,102.79094
-0.1934418,-8.156878,-1.0791749,107.03108,-0.12935704,117.28011
-0.032005414,-6.4812207,-1.1275696,129.59541,-4.159805,121.55321
0.5413823,-4.362628,-1.1353436,133.40335,2.1126797,129.62225
0.82857895,-3.176823,-1.0741484,139.11404,5.39778,137.69981
0.520692,-2.1796412,-1.609112,143.62268,10.570449,148.0998
-0.07359217,-0.71958506,-1.9545947,147.94482,6.541478,144.55054
0.486792,1.173437,-1.7228255,143.42654,3.4533327,143.2361
1.0165325,2.6406336,-1.1386249,137.60143,8.236667,142.06494
1.1880623,3.7032952,-1.094253,126.607735,15.022121,138.98085
0.43616825,4.385711,-1.3832664,112.59858,16.49203,128.80702
-0.31011325,5.313733,-2.2877595,106.84129,11.833216,110.91172
-0.30578858,5.3032565,-3.1126547,100.12943,-0.36720872,94.23501
0.5896677,5.6831574,-3.2868237,90.45961,-5.965716,83.77574
1.4523177,6.3264513,-3.2904072,76.2183,-11.84472,73.46162
2.2715313,6.898909,-3.0673268,60.009026,-6.2933574,62.313908
2.425158,8.092424,-3.0019178,46.74099,-6.290752,51.913254
2.2364264,8.910226,-3.1784487,30.042768,-11.164368,34.150883
2.8939054,9.5888605,-3.328659,15.892199,-17.71934,17.719608
4.4227433,9.374414,-2.9728425,-4.2854457,-18.983076,8.332425
5.521217,10.14472,-2.571786,-30.784216,-9.043361,-8.159856
5.938947,10.514285,-1.9405134,-43.235275,0.6483777,-23.536615
5.349246,10.403531,-1.8673315,-61.396545,5.3774614,-38.19738
4.55321,10.1265745,-2.048553,-76.94346,8.319793,-53.9342
4.1307545,9.598299,-2.12864,-95.92924,12.608303,-73.478874
3.903513,9.086318,-2.331731,-113.52025,13.82503,-91.87107
3.7792082,8.015028,-2.6305175,-130.54227,21.204317,-103.55242
3.7717712,6.825048,-3.002076,-141.73656,25.618832,-116.665054
3.5403247,5.9012475,-3.2966313,-149.6466,30.463259,-130.17049
2.9961667,5.108006,-3.5088477,-154.99248,35.988693,-140.37254
2.019939,4.067707,-3.814807,-159.83574,30.699215,-149.81781
0.9719098,1.9055823,-4.1874385,-169.91762,18.213186,-167.90427
0.91697705,-0.6231576,-4.2272425,-172.26923,4.7896748,-176.1189
1.2897049,-3.7228737,-3.857107,-168.26982,-6.2030096,-168.36629
1.7000464,-6.9485335,-3.5145397,-162.20232,-15.629835,-158.81421
2.412167,-10.015181,-2.8620765,-129.52608,-13.64542,-144.0422
1.870288,-11.717489,-1.7091981,-102.953636,-13.936201,-135.2275
1.4739666,-11.89575,-1.1103625,-83.46494,-16.131727,-114.035805
0.8625376,-11.209206,-0.21599755,-66.433105,-12.281298,-89.29691
0.428318,-9.769886,0.64639854,-53.304966,-14.5004225,-74.1959
0.02905427,-8.588446,1.1703144,-36.75813,-7.02211,-56.906666
-0.1497756,-7.100475,1.4939209,-28.857185,-2.6637743,-46.97924
-0.2812672,-6.2235827,1.5365353,-21.326578,1.682928,-34.866608
-0.43209153,-5.863858,1.7151905,-19.29585,4.010433,-18.428528
-0.48318994,-5.4232383,1.7842444,-22.390299,10.4198265,-8.162803
-0.4368477,-4.9561586,1.8289591,-15.146378,14.452166,8.931773
-0.58187956,-4.544347,1.8097982,-5.789507,22.725073,17.629444
-0.9739746,-4.3872766,1.7093745,6.9163237,20.776754,19.500982
0.0,0.0,0.0,0.0,0.0,0.0
