ax,ay,az,gx,gy,gz
-0.1640029,-0.04971295,-5.876117,19.416845,22.700426,-15.613226
-0.7766918,0.21170545,-6.1066995,17.47342,24.166271,-14.955998
-1.5886273,-0.7540406,-6.515411,25.371332,11.840305,-10.298193
-1.7268136,-0.5300846,-6.649473,27.169228,-6.6890774,-2.823592
-1.4274912,-0.4309871,-6.730643,21.675968,-14.717028,5.134053
-0.68496525,-0.49995792,-6.426611,13.452354,-21.445286,19.724037
-1.6058451,-1.0822966,-6.8192534,12.973591,-37.419495,28.208277
-2.110253,-1.1641812,-6.8918676,7.0272293,-51.729504,29.714563
-2.466813,-1.3371456,-7.152133,4.2213445,-67.73292,34.28627
-2.7487228,-1.341413,-7.332953,2.6790159,-79.69832,36.084698
-2.9609928,-0.37307355,-7.100258,-0.8919379,-92.12843,41.042915
-2.3955662,0.600067,-5.798485,-27.200891,-103.240326,48.474472
-1.6566025,1.4838804,-4.564014,-47.62757,-107.927185,58.5845
-1.7850922,1.4477893,-4.245377,-59.866722,-113.281845,55.955547
-1.5792661,1.2437489,-4.0234437,-64.32155,-117.164444,53.02735
-1.2710979,1.1996553,-3.3355515,-78.618706,-123.30235,50.45979
-1.2729857,0.9051086,-2.6764343,-93.958855,-136.48656,54.791233
0.14680302,1.112104,-1.1653278,-106.61433,-140.90883,52.45092
1.7630471,1.0711527,-0.032680254,-116.37384,-138.8826,47.46819
2.38861,0.6705902,0.65166867,-119.39109,-131.31892,43.474968
2.1285055,0.13452318,0.8623332,-120.02778,-128.69484,35.701786
1.7205229,-0.6568933,1.0765507,-114.95219,-132.86346,29.647963
2.0534818,-0.90227467,2.3070552,-110.0965,-142.21922,19.374617
4.1785574,-1.1753565,3.4259324,-111.23755,-140.4306,12.344609
6.211957,-2.287846,3.903065,-106.84859,-125.98187,14.699639
6.7303786,-3.5759754,4.270547,-101.484184,-108.05069,17.491482
5.782604,-4.730935,4.2649474,-71.64631,-95.09597,13.733881
4.822378,-4.940655,5.0619526,-57.665062,-90.16767,15.29002
4.775484,-4.6442156,5.501692,-40.44195,-81.73345,13.894928
5.0734854,-3.9490383,5.891578,-26.842768,-70.3579,17.380999
4.9055996,-3.2297046,5.811547,-12.191158,-61.381886,14.903936
4.816169,-2.6083412,6.0483046,-4.7686934,-48.027615,10.9612665
4.8994074,-1.9063505,6.3986444,7.0201645,-34.001026,13.833989
4.3864326,-1.1701651,6.1479216,20.500652,-22.28561,6.2585926
4.170186,-0.6087496,5.8157816,23.499802,-9.374338,6.0153246
4.007829,-0.26761323,5.690975,23.272123,3.0365868,9.205559
4.171854,-0.22816314,5.069763,26.404102,25.454084,11.803752
3.7706501,-0.52620786,4.1406426,30.106968,38.752323,8.655367
3.2923179,-0.5389206,3.7337692,33.421265,43.47768,7.475674
2.8627982,-0.64084464,3.5330534,39.59888,53.06422,7.36321
1.970335,-0.78970134,2.6465192,40.3991,59.138264,7.0639133
1.2022239,-1.0628453,2.2288275,53.4265,60.709084,1.1301059
1.0630697,-0.44471106,1.9184258,57.39729,58.943436,-3.3396807
1.4582484,0.040458005,1.8917508,52.848106,61.284397,-2.1740825
1.6759788,0.14691278,1.9345237,55.528774,66.79204,0.8658633
1.3609568,0.26150173,1.3697231,50.646706,65.895836,5.119157
0.70524365,0.074159265,1.3508152,56.411327,66.14933,2.4941952
-0.12787648,-0.53155154,2.5118258,54.09118,62.857002,0.378963
-0.6193148,-1.5485418,3.501552,60.18726,55.915237,3.5832074
0.38641694,-1.8084179,4.0759306,74.4266,48.497387,-2.4459743
2.4237876,-2.2628355,4.125427,86.447174,53.768177,-21.472801
4.7227893,-2.4633453,4.0186486,99.008514,80.77828,-32.50727
4.9706597,-2.55685,4.057935,102.18513,102.35439,-37.041824
3.3929906,-2.4518192,3.4879274,103.953636,120.95949,-30.64135
1.9335009,-1.8759581,1.7274532,99.83161,123.71386,-20.73769
0.81335455,-0.26886398,-0.21294631,81.49314,115.824905,-2.766509
0.106489986,0.5206748,-1.8870682,55.797264,104.545715,17.497206
-0.68035996,0.28033078,-3.6167402,47.629692,99.70747,12.3372965
-1.1733931,-0.5155245,-4.670442,56.522648,95.96542,-16.481611
-1.6976935,-0.87000823,-5.383426,72.40031,98.879486,-53.203876
-2.1351287,-0.5788041,-6.264212,74.711494,92.18577,-61.184692
-2.164855,0.053764384,-6.8642945,64.124084,78.54051,-40.34423
-2.059063,1.1367677,-7.174297,50.98175,65.23113,-27.956297
-2.1512392,1.9051974,-7.208013,41.04997,51.794052,-32.64595
-1.7725956,2.4037087,-7.132999,38.83824,37.162056,-35.036602
-1.2874949,2.6186671,-7.008074,26.779942,28.359125,-38.17114
-0.58020324,3.0275743,-6.7696176,22.363508,12.576909,-42.517895
0.29554096,4.117832,-6.6574397,17.450314,1.8872964,-42.963078
1.5380205,5.707098,-5.3700705,11.95075,-2.2139053,-49.30695
2.8817983,7.3210163,-4.3619847,5.029608,-2.3794367,-55.549717
3.660418,8.851908,-3.1636424,-14.111258,-1.0788834,-71.1331
4.523563,10.09801,-2.2895162,-41.11651,8.517956,-76.071655
4.4133177,10.056275,-1.7890716,-61.97367,12.143877,-87.3617
4.418866,9.28296,-1.5992085,-65.72796,28.828808,-123.91645
4.1689825,7.574714,-1.7718047,-50.46108,37.8504,-172.71451
3.0801628,7.0105233,-1.9074999,-56.274853,40.992405,-188.41235
2.1073256,6.098455,-2.1891332,-97.703545,23.546518,-157.7235
1.6955063,3.6649935,-2.499672,-127.28519,6.1935916,-137.61697
2.1773503,0.30038184,-2.1687472,-139.14017,1.5349662,-131.74388
2.2845006,-3.5038419,-1.4531102,-113.49263,10.979492,-162.12941
2.2786226,-5.737895,-0.75581455,-88.69332,14.400475,-177.1566
1.3593462,-6.7463512,-0.5888568,-97.755516,11.567018,-142.67728
-0.22557756,-9.15631,-0.9289945,-92.66298,-5.001956,-111.34386
0.29926336,-10.540696,-0.85386294,-80.45357,-5.905411,-94.08806
0.9258158,-11.232722,-0.42523995,-56.323868,0.14005911,-88.00223
0.84533846,-10.958844,-0.0032648966,-32.721817,14.965955,-75.57003
-0.10713964,-9.978186,0.056509197,-14.975255,19.03986,-58.237667
-1.5918171,-8.486791,-0.27852073,-2.8223288,16.811054,-44.546104
-2.030443,-6.8640823,-0.48721966,3.6957278,13.772745,-28.970915
-2.3096235,-5.226301,-0.727512,5.6144524,10.172888,-18.38396
-1.8480561,-3.9666166,-0.9188716,5.167743,3.322999,-8.047387
-1.894758,-3.5159764,-1.6814226,0.9983157,1.4858478,9.303913
-1.8877662,-3.1476514,-2.468776,4.210423,-3.044469,16.724777
-1.7037528,-2.7595747,-3.2122428,10.012398,-3.250603,19.428865
-1.7470405,-2.3785536,-3.512672,17.567566,-4.063184,17.090523
-1.546772,-1.5165694,-3.9888895,18.114227,-8.327245,22.495605
-2.1202583,-0.4077175,-4.5831842,10.984625,-19.404327,32.575462
-2.843002,0.5754744,-5.474791,5.783687,-27.71443,38.21501
-3.388901,1.28307,-6.44686,-5.161551,-38.32701,44.97033
-4.2433023,1.7364111,-7.058643,-13.663199,-54.77269,50.98502
-4.827651,1.6387149,-7.177322,-20.45189,-72.26429,46.242073
-4.640825,1.813934,-7.1911974,-28.01041,-93.12522,32.515877
-3.8986816,2.2111576,-6.812305,-34.27694,-103.07436,30.595955
-4.187839,2.4955645,-7.186422,-49.65523,-119.11249,36.260708
-4.513014,1.8506416,-7.2161717,-54.501755,-134.29922,36.31147
-4.3730927,1.2863758,-6.7907214,-61.586582,-155.84036,27.109465
-3.596584,1.1140287,-6.348234,-67.28195,-174.96121,13.827174
-2.5904076,0.5126229,-5.0488853,-70.09562,-196.81046,10.81435
-0.59645444,0.673243,-3.4834266,-76.52626,-209.85558,10.359972
1.9283766,0.6346903,-1.3100961,-80.7762,-207.96683,9.240889
3.499156,0.15822303,0.50294566,-85.129036,-201.29219,7.097007
4.8527336,-1.8925399,1.6346169,-81.108185,-199.05821,0.7179353
8.906599,-3.6904528,4.597537,-68.42545,-179.88303,-4.265274
11.25432,-4.175128,7.158524,-54.59085,-142.34987,-3.1942039
12.078153,-3.7995918,9.24913,-42.94297,-100.71326,1.6607721
11.661635,-2.3181634,10.356264,-34.36264,-65.592064,-1.2514963
10.678231,-1.6220026,10.56497,-32.559742,-22.088055,14.424569
8.508747,-2.2747312,9.4130745,-35.32382,1.885096,26.379328
6.4909225,-3.406779,7.866448,-32.018738,22.78615,34.99114
4.0873055,-4.1288333,6.203915,-29.294842,28.810076,40.196938
1.6787728,-5.3936005,4.70825,-21.988327,25.136562,47.446667
0.5164944,-6.8825026,3.599803,-5.8488846,14.876901,52.183144
-0.19025715,-8.594984,2.2512615,22.545721,14.658592,50.47288
-0.83905345,-9.323418,1.3897954,48.00925,12.057441,49.61207
-1.4169731,-9.029498,0.7721008,65.52441,1.5633576,59.108547
-1.3397753,-8.710678,0.21549354,82.22044,-4.9657936,74.13874
-1.5568395,-7.9572935,-0.46458367,108.66401,-11.3063345,81.24766
-0.91336435,-6.2479153,-0.61739284,122.48869,-14.867037,84.43162
-0.041848928,-4.8675885,-0.6675227,136.73611,-13.145038,93.46688
0.8321456,-3.0612683,-0.20839588,140.14934,-6.637935,104.7055
1.0529786,-1.6198735,-0.4463438,142.34546,-0.5861984,105.618744
1.2972292,-0.31947273,-0.64544225,136.71786,9.979243,107.120255
0.39894396,0.047541216,-1.258309,130.4507,12.029751,112.55464
0.11948301,1.025202,-1.299759,133.73804,6.9105363,107.876465
0.7834843,3.1191683,-0.9382269,127.31093,7.4006414,104.18422
0.6774923,4.7829456,-0.6741864,115.36339,11.444335,97.94895
0.09270979,5.82785,-1.3709661,93.78035,13.426899,88.828476
-0.32223898,5.4060564,-2.3691971,74.36227,5.581434,82.13233
-0.10755868,4.602331,-3.0228891,69.169,3.2859178,73.03906
0.27090192,4.083145,-3.4610572,63.41187,-5.8149004,57.14796
0.8025304,4.478489,-3.2781205,58.293156,-6.638462,49.543377
1.4519103,5.180278,-3.1700995,42.278847,-7.8552613,43.736404
1.5384955,5.9290333,-2.7937658,34.88398,-10.630509,37.669067
1.5077217,7.0085454,-2.7951849,22.069923,-15.24033,21.945219
2.0735502,7.280096,-2.4739528,8.433041,-22.433395,12.698024
3.0783288,7.6474776,-2.2237613,-8.637998,-19.770786,5.970786
3.8254244,7.429706,-1.6691158,-22.23392,-16.573156,-12.668966
4.8618145,7.482921,-1.2051841,-34.106792,-4.2151604,-20.560228
4.3080373,8.017313,-1.0331846,-46.372555,4.367982,-33.211723
3.964,7.968853,-0.95331115,-61.842594,6.5674067,-45.81558
3.7732828,7.812754,-1.2229606,-80.46567,10.5787325,-54.995556
3.8263445,7.6048346,-1.2773112,-98.01138,13.097756,-66.96992
4.071147,6.9173756,-1.3923029,-108.94807,17.822983,-74.752754
3.7380188,6.2182612,-1.552716,-119.87934,24.880516,-87.67569
3.3679075,5.0617433,-2.2410588,-127.19727,28.958042,-99.23172
2.8309245,3.842538,-2.4623394,-131.27893,28.682686,-110.59871
2.2633433,2.8272781,-2.7575905,-130.48578,28.74613,-125.07635
1.6639291,1.5127728,-3.0004609,-128.18738,27.956894,-130.42233
1.2701306,0.960566,-2.8144364,-129.18018,22.048576,-135.8464
0.8604309,0.31977603,-2.7691517,-131.64561,16.452137,-134.89127
0.75618285,-1.0354222,-2.7026463,-135.28506,6.3347616,-137.71802
0.80575573,-3.2413068,-2.2881417,-124.50205,3.0261672,-142.86768
1.6624686,-6.1850076,-1.7234889,-115.75487,-0.025128901,-135.22794
1.6038635,-8.185606,-1.4539231,-104.71939,3.6280062,-121.57439
0.91711366,-9.676151,-0.8538566,-88.68177,3.2993174,-104.91933
-0.5403828,-10.400214,-0.7450907,-70.891396,2.2036557,-93.860794
-1.6129911,-10.373859,-0.6127228,-47.43886,-1.7933589,-74.845
-2.5158985,-9.394074,-0.018374965,-37.2439,-7.4883227,-61.512447
-2.299725,-8.744424,0.7073029,-27.094494,-12.894121,-43.28532
-2.0404367,-8.126357,1.1957704,-12.781715,-13.664674,-31.206821
-1.8726488,-7.586555,1.7986852,-4.6893435,-11.78462,-18.857723
-1.2876662,-6.2709765,2.205757,0.10066533,-2.470514,-6.313469
-1.3985972,-5.4940705,2.345691,11.191565,1.4589821,8.404734
-1.5798233,-4.5630813,2.426497,15.634631,3.6781023,17.782053
-1.2944641,-3.6420445,2.504121,20.15448,-0.42536575,19.849268
-0.54705244,-3.1281419,2.5890641,26.262335,-1.5560335,24.103104
0.3354259,-2.8108594,2.9288547,31.088877,4.1688175,26.994585
1.4551162,-3.0293126,3.0988417,34.261536,12.93409,37.040043
1.4616402,-3.0797582,2.735126,41.777008,23.748886,42.97727
1.1980745,-2.9373574,2.414641,49.155293,29.69539,45.376263
