ax,ay,az,gx,gy,gz
0.2627427,-0.30667925,-1.7773505,44.35365,22.82861,11.033558
0.33638763,-0.14375967,-1.5375843,30.552378,25.823507,12.63368
0.028002024,-0.15531482,-1.8008575,36.42889,20.7144,4.421726
0.39303774,-0.529147,-1.4484317,27.255877,10.281576,-2.7048056
0.51830715,-0.30356902,-1.0521767,17.950123,15.473695,-8.982403
0.8249619,0.18210143,-1.2151574,-6.643282,22.43834,-1.639663
0.8570305,0.03739614,-1.0018973,-13.5659485,17.303625,-8.86597
0.73497593,0.048615754,-0.45672816,-9.145774,18.730965,-5.748634
0.20783356,0.22177714,-1.0582455,-0.016581297,15.711827,-6.856749
0.48244596,0.29853582,-0.5635446,1.0132642,16.430332,-10.970814
0.17937195,-0.42550534,-0.036745936,16.785948,19.460617,-5.893415
0.5706977,-0.17890814,-0.095081866,15.553542,9.508632,0.12561536
0.20760667,-0.27237576,-0.22117893,9.383168,21.10487,-1.2279341
0.25110742,0.03780818,0.1260892,1.1912677,21.811764,-6.4976563
0.35089403,-0.44004297,0.44327572,-1.7446606,18.686518,-3.9706783
-0.15377927,0.21588784,0.61440337,0.8184417,20.251797,-7.96856
-0.25264472,0.04950274,0.5796065,5.205074,25.48719,-7.511611
0.31497234,0.32441455,0.6496039,12.577503,32.447067,-12.066776
-0.009744525,0.209559,0.14028549,13.035906,28.994238,-9.9277935
0.17777845,-0.10081747,1.1301507,19.85867,34.278217,-11.809247
0.33942172,0.24227962,0.9818362,21.284927,37.211452,-11.681054
0.56062955,0.21229768,0.58563614,12.321873,44.674877,-15.879704
0.6945994,0.12168548,0.3232997,9.484837,48.296024,-17.413801
0.30890653,0.012316391,0.42186496,8.336015,51.97613,-10.047283
0.5359652,-0.48730934,-0.2015452,9.546281,52.998165,-6.791556
0.10136807,-0.3828412,-0.45066103,10.543989,52.15571,-9.168035
0.36029541,-0.41960734,-0.22846335,0.038403988,50.499058,-0.23489523
0.14512214,-0.41124266,-1.4443238,-1.9778491,47.781536,-1.0668938
-0.028632432,-0.81261647,-2.279346,0.06726289,43.62538,2.8903542
-0.33944193,-1.4510784,-3.0933838,4.126169,34.267296,-0.3935461
-0.3000064,-0.9540939,-3.5895946,8.297789,33.627384,2.138907
-0.76058614,-0.8386522,-4.8016915,12.5604515,24.18066,-0.18161999
-1.1719431,-1.0892786,-6.6581907,21.205263,-2.9336934,6.0604396
-1.6327381,-1.1864892,-8.586491,22.579687,-34.92919,14.756421
-0.9975426,-1.6112957,-11.766743,14.729794,-74.71601,29.345812
-0.6459069,-1.4040301,-15.152077,-12.701824,-107.07748,44.893906
-0.6880291,-2.6214898,-21.070742,-73.22914,-180.74821,54.841137
-2.2511501,-7.3424788,-28.066406,-92.804504,-264.8458,57.078842
-2.327756,-12.394535,-31.818253,-83.38922,-368.2331,88.55498
0.6365449,-13.2011175,-30.841242,-25.882715,-420.65787,108.0492
5.9641724,-8.954143,-26.879904,54.275593,-449.01318,101.68532
12.013333,-4.770337,-19.517048,115.2889,-464.45023,86.316086
19.272717,2.5658908,-5.1946955,118.272934,-455.81744,85.35432
23.35936,7.5604005,7.148041,92.04964,-427.88312,65.56791
25.422812,9.598828,18.13352,46.336052,-357.62323,59.51383
24.706139,9.347078,25.18155,3.2368047,-274.19595,57.967426
22.716682,9.81572,29.206732,-28.813848,-156.6877,50.721004
19.094856,10.733432,30.267902,-34.753143,-78.87885,35.323505
16.84927,10.294377,28.38977,-43.786915,-10.443627,20.294474
14.593384,9.595139,25.879398,-48.185146,55.98286,-0.2524035
12.715504,7.9148436,22.132063,-56.237064,105.92045,-15.359379
11.39006,4.98199,18.666561,-42.225163,161.68782,-46.945187
10.622362,0.8941288,13.838913,-21.725334,193.31088,-61.802742
9.957181,-1.2996337,10.676819,-1.092576,227.85837,-63.842594
9.330805,-3.069478,8.627428,8.701969,242.20493,-54.658485
8.411352,-4.0736265,6.729702,30.447865,270.15115,-51.079105
7.41532,-4.108134,4.6321497,65.110634,289.89462,-39.799286
7.30058,-4.3408523,1.5931871,80.32326,305.72623,-37.33567
6.6546392,-4.783608,-0.41964477,81.56378,323.96448,-35.04644
5.8374987,-5.171622,-2.79756,85.86438,337.14737,-28.819199
5.217005,-6.362484,-4.9931207,78.142975,338.80386,-22.092232
3.569257,-6.0282993,-6.6606245,73.46505,318.6762,-16.800554
1.5566068,-6.367189,-9.857007,73.38645,293.3623,10.100528
0.9813851,-6.332997,-10.9789,63.645023,262.76562,23.291105
0.97226274,-5.039899,-11.526691,48.32744,237.14806,40.038193
1.0777987,-5.208587,-12.56008,45.8316,212.56728,56.761295
-0.19261819,-6.0996943,-15.604316,80.382614,161.3627,60.654293
-2.2373266,-6.428751,-18.582968,89.07395,99.2934,80.11428
-1.1531987,-5.1814117,-18.636734,73.53384,33.472286,104.87928
0.5527494,-2.4841602,-17.678299,65.39129,-20.694107,121.80917
3.2681782,2.1555638,-16.036572,69.20105,-63.766163,126.29756
5.176079,8.622847,-14.893245,103.01421,-98.24405,71.90463
5.7735863,18.92902,-13.126194,137.04788,-134.87254,-10.143038
6.165936,26.269348,-10.911538,128.78703,-165.49922,-93.89612
7.776674,29.971577,-8.682941,72.75562,-172.6769,-161.41464
8.521802,31.728575,-6.3842096,-23.830425,-184.48662,-202.42435
10.159236,29.601368,-5.920894,-134.138,-177.1681,-287.3113
14.537066,21.308298,-3.438869,-191.84372,-179.39775,-341.8053
18.932026,12.4639,-0.26274967,-243.75621,-168.74663,-375.7695
23.242443,2.5252538,3.8697002,-299.3724,-131.45813,-360.93085
24.652863,-8.34645,5.3477583,-330.04382,-53.799767,-324.37634
21.298105,-19.975449,1.148129,-291.62363,2.4385915,-283.19064
13.019491,-31.446285,-6.5695167,-178.48065,49.904884,-218.94727
4.843262,-34.83784,-13.409586,-74.138176,31.36813,-159.1364
-2.7930844,-34.137558,-19.82013,19.86542,-29.21301,-103.64448
-6.807392,-28.296043,-24.146276,69.0756,-114.01744,-42.636967
-7.4345064,-20.314924,-26.582994,76.05434,-271.31982,-9.304445
-6.490282,-13.766198,-26.115723,88.97281,-377.39752,10.240481
-3.6944838,-8.992862,-21.88858,98.63421,-471.5648,39.76013
1.4362825,-2.7365437,-14.055459,84.80085,-508.94772,57.4197
7.169988,2.2197735,-4.6546793,69.48096,-493.51636,64.3754
13.062306,6.4890623,5.683853,34.292057,-447.53522,48.62188
19.63411,7.943511,18.665247,-2.6896236,-340.71738,21.251797
21.135921,6.1386027,24.851217,-16.750883,-241.59546,11.275977
19.75777,4.913217,25.92424,-31.520935,-123.196014,17.506207
16.65791,3.1514347,23.519184,-39.039536,-27.769413,25.092085
13.1357355,0.9602165,20.056711,-29.883438,31.707096,28.619946
8.500974,-0.83230376,14.015709,-23.96169,84.38292,18.074484
6.6626854,-1.7759699,10.869348,-8.551017,108.13528,11.478747
5.818466,-3.9682105,8.867174,3.3813303,128.73917,5.6047616
6.2547035,-5.5742526,7.268086,10.586891,151.05142,10.46582
6.725406,-7.260588,6.606318,8.935641,179.45735,34.411392
6.7462754,-8.963601,3.4648721,34.883247,210.00404,62.59788
5.453671,-9.841326,0.38003826,76.580025,226.78868,85.17013
4.624972,-9.332961,-1.8068095,87.67262,231.71202,109.06106
3.7774627,-10.238119,-3.9304743,88.509575,242.28455,148.53766
2.8171651,-10.257111,-5.946496,95.539024,217.04132,185.25917
2.5897515,-8.991458,-8.429882,92.610954,195.92653,216.86812
2.2626421,-7.6842375,-9.446039,88.967995,175.28429,242.63155
1.8378414,-6.6325808,-10.425791,114.63961,145.66833,258.97183
1.3095125,-4.4659066,-10.288551,126.46428,117.15307,267.057
1.1418515,-2.0401077,-9.850441,122.051674,89.13652,275.3592
2.0533664,0.77326685,-9.684421,108.66103,64.17869,275.46426
2.9822435,2.9425116,-8.723933,105.90773,58.55891,262.99545
3.1725466,4.675321,-8.332841,108.19417,40.664528,240.92331
3.29941,7.424368,-7.9113336,113.02258,26.610346,222.8758
3.6145794,10.636119,-8.468075,114.81096,-3.1650105,161.93011
4.7748513,16.508457,-8.286347,86.01043,-31.12963,118.05862
5.771185,20.036264,-8.4484,30.395351,-46.929554,60.02696
6.3665915,23.443674,-8.898533,-29.800146,-59.73404,26.077013
6.2251887,25.753693,-10.695118,-99.951965,-75.8015,-13.563363
5.399629,27.910952,-12.568681,-188.77089,-91.959335,-86.60725
4.9426727,28.08139,-15.775964,-214.23228,-116.63965,-179.68304
4.835769,25.664051,-18.636316,-181.25429,-147.41911,-282.91214
6.299924,22.31643,-19.730814,-146.5254,-197.66875,-385.46143
10.753392,16.761751,-17.938694,-148.14891,-255.16957,-452.54376
17.263405,9.182953,-12.828188,-217.51445,-306.26895,-453.7795
25.975258,-5.5707917,-2.3866932,-295.9404,-299.1876,-398.0228
30.58593,-17.00844,5.263028,-336.36038,-231.99347,-334.76334
30.557104,-26.883198,11.028567,-286.43176,-121.81389,-261.10056
25.408756,-32.80554,11.929722,-210.73436,-38.005066,-192.51912
18.047777,-35.06016,10.903584,-130.72084,41.46708,-88.32343
5.8258486,-29.937408,6.130908,-66.58575,73.37325,-18.63192
0.1988251,-22.531296,2.8404999,-25.480772,77.219826,22.161188
-2.7612274,-15.765757,0.8138287,-4.8705435,74.69159,45.135242
-3.385034,-10.202915,-0.88840616,3.6178641,63.506695,66.32726
-3.494393,-4.6671367,-1.504909,16.684803,41.527016,61.234295
-3.5543613,-0.7234819,-1.2020907,23.796967,40.587006,60.260715
-2.9625733,0.5251515,-0.6219135,17.729912,29.9739,61.197865
-2.8614454,1.9005088,-0.33392614,13.482886,26.278608,53.91217
-2.2013237,2.5559216,-0.49078363,13.62156,15.176107,42.529846
-1.383396,3.5982566,0.07740769,6.3402243,16.936874,34.101498
-0.7143244,3.1510026,-0.37518105,-8.259268,6.9216084,35.365013
-0.07881829,2.19765,0.009897534,-14.488336,13.957895,25.31261
-0.010608262,1.1518217,0.49470863,-14.331796,0.73703814,17.113361
0.41136473,0.60949576,-0.58087844,-7.505284,5.303066,10.840064
0.5647634,-0.24960399,-0.1432164,-8.985302,8.225555,12.631964
0.5145711,-1.059639,0.050358713,-11.531742,9.086585,19.565289
0.70955133,-1.0568461,-0.22861686,-6.828371,8.052474,16.30803
0.6186917,0.017218716,-0.27081072,-6.686691,10.520717,18.06984
0.61652774,0.36349005,0.30587915,-16.385967,11.743432,22.00787
0.44443065,0.6460919,-0.3887642,-24.17607,11.646373,24.628912
0.0,0.0,0.0,0.0,0.0,0.0
0.0,0.0,0.0,0.0,0.0,0.0
0.0,0.0,0.0,0.0,0.0,0.0
0.0,0.0,0.0,0.0,0.0,0.0
0.0,0.0,0.0,0.0,0.0,0.0
0.0,0.0,0.0,0.0,0.0,0.0
0.0,0.0,0.0,0.0,0.0,0.0
0.0,0.0,0.0,0.0,0.0,0.0
0.0,0.0,0.0,0.0,0.0,0.0
0.0,0.0,0.0,0.0,0.0,0.0
0.0,0.0,0.0,0.0,0.0,0.0
0.0,0.0,0.0,0.0,0.0,0.0
0.0,0.0,0.0,0.0,0.0,0.0
0.0,0.0,0.0,0.0,0.0,0.0
0.0,0.0,0.0,0.0,0.0,0.0
0.0,0.0,0.0,0.0,0.0,0.0
0.0,0.0,0.0,0.0,0.0,0.0
0.0,0.0,0.0,0.0,0.0,0.0
0.0,0.0,0.0,0.0,0.0,0.0
0.0,0.0,0.0,0.0,0.0,0.0
0.0,0.0,0.0,0.0,0.0,0.0
0.0,0.0,0.0,0.0,0.0,0.0
0.0,0.0,0.0,0.0,0.0,0.0
0.0,0.0,0.0,0.0,0.0,0.0
0.0,0.0,0.0,0.0,0.0,0.0
0.0,0.0,0.0,0.0,0.0,0.0
0.0,0.0,0.0,0.0,0.0,0.0
0.0,0.0,0.0,0.0,0.0,0.0
