ax,ay,az,gx,gy,gz
-0.43022925,0.3300876,-5.751561,8.859912,-0.796229,15.2128105
-0.658287,0.7570319,-6.188748,-13.8085,-30.415127,17.91776
0.22453897,0.9462943,-6.2047544,-43.504,-48.13153,30.637758
1.0132781,0.4471491,-6.285985,-57.162235,-57.857567,29.76998
2.041624,-0.22524485,-6.6584535,-65.67372,-62.956573,26.068623
2.5814507,-1.0726804,-7.1267805,-58.434315,-65.121284,15.969492
2.8070312,-1.7934474,-8.212198,-60.027622,-69.01845,11.447633
2.5173807,-2.1088195,-8.460418,-74.71219,-78.17377,15.900051
2.032979,-2.4623945,-8.666351,-84.20061,-90.298805,19.816118
1.7829188,-2.6772969,-8.064744,-89.92123,-104.56398,24.846167
1.7543006,-2.0152094,-7.460001,-75.1423,-120.20539,12.406683
2.4773486,-0.32535338,-6.6272626,-69.674255,-121.93417,9.268407
2.8811598,0.69243115,-5.7588854,-89.97344,-121.27503,7.106846
2.7939599,1.4838381,-4.69144,-119.25565,-126.032455,-0.9062227
2.2164328,1.4249221,-3.7591994,-149.79848,-129.17857,-11.167334
1.6079373,-0.21623696,-2.6010513,-154.30786,-136.33643,-17.621136
1.7752131,-1.5437834,-1.8098922,-152.55856,-149.26831,-24.195484
2.7638836,-2.0873158,-0.40704274,-151.31258,-162.53221,-25.998734
3.9589915,-2.6740558,1.685288,-154.28496,-164.414,-22.213726
5.0282917,-3.702536,4.163557,-152.10768,-154.29845,-31.743174
4.3919744,-5.1912317,6.0299783,-117.62182,-136.53944,-40.88909
3.7111158,-6.1148343,7.1153736,-83.7315,-126.53479,-43.003166
3.4267511,-5.8363695,7.862712,-49.964462,-119.35173,-35.13324
3.3835473,-4.9301834,8.408289,-23.711422,-114.31203,-23.507925
3.5251799,-3.4697351,9.14948,-8.480424,-103.77023,-14.793504
3.1813257,-2.0666027,9.67553,-0.54931235,-88.57667,-21.447289
2.3140826,-0.9645067,9.963597,-0.7504904,-72.94858,-11.617659
1.7644802,-0.64936155,10.029174,2.0256226,-63.103664,-7.087507
1.7826849,0.3742686,10.33368,2.3038626,-54.30747,2.8024344
2.295171,1.3297439,11.003056,-5.045245,-41.465683,4.848921
2.5585494,1.782968,11.550156,-13.947099,-11.543375,-1.4483342
1.881025,0.52090466,11.050994,-12.467053,13.116441,-8.370652
1.3325906,-0.44953525,9.993865,-0.65280414,26.202396,-5.5249643
1.770934,-0.89473265,9.377805,14.073045,37.724976,-6.98441
2.1808047,-1.2082988,8.576115,24.520872,53.698418,-7.2275963
2.0727777,-1.3103702,7.8230453,38.67926,67.32745,-3.6271505
2.1182618,-1.6467716,6.966391,50.97007,79.166595,-2.874599
2.050893,-1.4994559,6.172794,60.11288,89.875244,2.1010783
2.212743,-1.3715972,5.4678993,62.57161,100.985916,4.8363466
2.1595428,-1.3622465,4.450658,64.56368,112.25652,5.3532968
1.8793832,-1.5809839,3.6362169,64.70708,118.024605,7.010433
1.5809096,-1.9124329,2.5751035,67.91313,119.78582,10.457011
1.0683264,-2.4872184,1.9453611,81.78777,116.83158,1.9250271
0.57478815,-2.3228316,1.5344074,95.65965,112.708046,10.685616
0.77724767,-1.593324,1.1671302,102.65646,108.30433,2.615604
0.3787718,-1.6607388,0.7430878,115.54914,100.95409,10.260983
0.30632028,-1.375424,-0.1197627,115.14518,91.6777,5.3037853
1.1279749,-2.0388572,-0.7026684,120.65863,92.89245,1.4284956
1.5018301,-2.3509862,-1.2931763,122.00196,81.40455,7.71837
2.3434093,-1.6693089,-2.1753232,110.71908,74.80328,5.0953093
3.099762,-1.3068669,-3.0264494,75.778725,63.962387,2.1787503
3.336359,-2.005212,-3.5181756,50.357197,66.16081,-0.31177545
2.9743724,-2.889282,-4.8840876,37.284355,71.54043,6.981864
2.4030242,-3.3440933,-5.457079,25.197136,70.53034,15.770255
1.8385113,-3.3232005,-5.881644,32.65202,65.25897,17.397045
1.0684849,-3.313611,-6.5451217,61.98899,47.222916,13.903356
0.4980003,-2.1933994,-6.9784946,73.75349,27.149359,11.624746
0.83596975,-0.8507078,-6.5758796,86.46088,5.3595963,9.038813
1.8897324,0.895905,-5.750437,82.81724,-11.168854,6.3746314
2.8427458,2.3546944,-4.7815995,67.95872,-9.403413,4.3561516
3.3453906,2.7671826,-3.9350502,50.041317,-1.7725747,-1.9334557
3.5246527,3.4788423,-3.061904,41.873493,4.8848515,-11.462386
3.185345,3.956288,-3.0672584,39.616432,7.394433,-17.636988
2.5293555,4.0319157,-3.119748,42.277073,0.06164094,-27.271236
2.1092129,4.8735533,-2.829058,62.54727,-16.81722,-37.184402
2.9192421,7.0802197,-2.122681,68.426674,-36.413715,-55.15062
5.291673,10.394793,-0.71246123,38.413017,-29.604492,-75.55339
6.399262,10.905865,0.22145618,-5.030185,-7.8918824,-95.77587
6.151717,10.141191,0.28942114,-42.212093,18.79541,-105.84237
5.630092,8.854505,-0.98124415,-86.22598,46.42179,-127.98519
4.5231395,5.5919266,-2.3194802,-120.82301,61.639977,-158.50768
2.0788407,-2.7289054,-3.2375596,-55.730816,52.53166,-192.49673
0.4126917,-6.4774413,-4.2647576,15.258921,36.332417,-205.24062
-0.69001746,-7.12676,-5.2939634,38.577644,16.86524,-180.59988
-1.3380325,-7.267182,-6.202592,31.379421,-15.559706,-138.90186
-1.0066978,-7.6352687,-6.283706,27.598003,-54.1125,-94.418335
0.47392377,-7.216315,-5.900402,35.33681,-69.90228,-67.38798
2.0175273,-6.201052,-5.6123133,35.337337,-78.06431,-56.355824
3.1792207,-5.4495783,-5.3707604,28.411024,-67.152565,-47.45203
3.323431,-4.4664288,-5.608283,22.420055,-58.83695,-40.04815
2.7397664,-3.5027559,-6.2104325,-7.304651,-56.626167,-26.175686
2.2004066,-2.9742768,-6.440201,-33.239563,-57.435963,-28.05284
1.540192,-3.3671227,-6.1300597,-49.29127,-63.693924,-39.662502
0.4556259,-3.9422975,-5.9826365,-45.91593,-72.821625,-42.217937
-0.20934951,-4.084315,-5.7656436,-35.297794,-86.16428,-47.99258
-0.92229515,-2.842059,-5.265909,-53.877983,-104.16576,-35.233532
-1.157218,-0.25939107,-4.1172214,-98.32433,-118.85847,-30.470484
-1.3386333,-1.0149876,-2.2307718,-136.1528,-127.4457,-31.378592
-1.6674253,-2.7071102,0.07293976,-135.24165,-130.27953,-34.440567
-1.4552199,-4.2959123,1.7367126,-115.11019,-137.76752,-33.61013
0.19699442,-5.803584,3.9210007,-96.69265,-140.45003,-6.938098
2.3564174,-5.720273,7.591144,-85.10587,-118.07547,2.6507673
2.9366615,-5.3443127,9.228739,-75.4832,-93.17566,4.071919
2.4272883,-4.997749,9.787284,-64.76545,-68.89504,1.5333449
1.6572516,-5.157475,9.273377,-60.171375,-51.976963,5.619049
1.2326539,-5.9407854,8.790711,-55.49525,-35.232082,17.996227
0.82146734,-6.862234,7.5669513,-49.486588,-16.125446,27.398207
0.052984238,-7.8143187,6.553532,-45.048153,-6.9731207,43.769783
-0.8727055,-8.863534,5.4482784,-27.099297,-1.3361635,57.932735
-1.1079744,-8.940669,4.268273,0.79259324,-0.8944771,77.70707
-0.9345166,-8.425851,3.3077207,23.934557,0.24793306,100.17796
-0.59562206,-7.265769,1.6827239,29.06728,3.2250853,115.075806
-0.7250563,-6.7425103,0.57331294,38.29567,-0.4285611,127.45895
-0.6673521,-5.599742,0.013563706,45.033783,-5.410082,143.67802
-0.0776597,-4.353586,0.0031133571,50.83522,-5.0691977,161.05696
0.3707507,-2.9533055,0.0004644245,47.45871,1.7945702,170.32523
1.0319779,-1.9330726,-0.2860454,43.334167,9.205531,167.65567
1.1522856,-1.4394497,-0.9066476,30.059828,11.357598,159.21188
0.8867859,-1.0880202,-1.2103989,19.37202,8.160536,158.1139
0.6286331,-1.0634645,-0.7430433,27.401722,-3.5669692,161.19876
1.0016093,-0.085747436,-0.44371837,27.725538,-14.4479065,168.75826
2.819398,1.9741912,0.10596812,4.1513896,-11.725979,159.29953
3.6344576,1.9295709,-0.007440172,-19.252556,-5.7752514,155.31201
3.245492,0.88884294,-0.30698872,-22.051315,-2.5826807,150.99017
2.8283963,0.11384932,-0.6450771,-2.0623689,-12.654515,148.55876
3.2343833,0.84572494,-0.52107954,25.2363,-32.06574,141.73236
5.098675,3.3623998,0.112035684,33.579357,-36.058132,130.16862
6.451601,4.7571325,0.4572166,32.061176,-28.79621,118.07126
7.1359873,5.865063,0.61038125,19.361757,-15.837626,97.56457
6.634432,5.8039618,-0.005273018,8.353928,-4.1548123,82.40651
5.4380846,5.3641477,-0.726984,9.389442,-12.7186,74.246826
5.045038,6.191074,-0.8379643,9.719496,-27.49339,66.63818
6.0343027,7.4188385,0.12497835,11.564242,-32.9706,53.725307
6.820565,8.671355,0.6900607,5.8651896,-28.922512,36.02084
7.42269,9.361421,1.1710403,1.5428722,-15.118234,9.196351
6.9538064,9.327495,1.0475949,-13.031048,4.21891,-28.52383
5.5706077,8.473897,0.14149103,-25.493296,7.966679,-41.1846
4.9240103,7.689916,-0.23813018,-34.986324,9.106012,-56.185207
4.776423,6.8935294,-0.074784294,-45.139957,7.958805,-65.80398
4.790431,6.242847,-0.23820147,-48.27533,8.937537,-84.117455
4.5083866,4.966992,-0.27455807,-34.777832,6.998293,-108.82685
4.055818,3.9642963,-0.3142269,-22.82438,4.497676,-123.82295
3.72961,3.391505,-0.5754371,-6.4968004,-0.74692535,-138.42801
3.6779537,3.3601665,-0.72608787,-0.3758524,-7.5683255,-147.19116
3.7940946,3.5451784,-0.952571,-3.822127,-10.8609915,-156.31448
3.8099048,3.5601218,-0.8385494,-15.394472,-12.826995,-168.53578
3.6859934,3.303033,-0.8951683,-22.663033,-6.3606496,-178.80812
3.4720435,2.5736957,-1.0311975,-36.84466,-2.252006,-193.08221
3.302407,0.6827134,-0.8426945,-42.693047,-5.712735,-200.97942
3.9298205,-0.87639683,0.44818097,-40.582832,-4.592985,-195.47945
4.766258,-2.2570198,1.1827427,-49.29163,6.328502,-189.61575
5.071883,-3.4713047,1.6486586,-57.955475,20.408699,-185.90953
4.537401,-4.3261538,1.2580978,-74.9839,35.547092,-177.47618
3.7130322,-5.3812933,0.81149113,-89.702126,41.999153,-169.99577
2.834963,-7.4269004,0.65159386,-85.99039,49.198112,-157.38025
2.016366,-9.216235,0.5955226,-55.314796,50.32703,-134.61566
1.2511222,-9.698287,0.6137822,-28.87963,46.151367,-119.16728
0.81254244,-9.057008,0.23469454,-17.092613,45.354084,-104.48957
0.06637471,-8.2928095,-0.28542292,-6.5939727,47.567257,-91.00154
-1.0553812,-7.7662034,-1.5313007,-0.16453838,45.14759,-70.83712
-2.083963,-7.073256,-2.2263422,9.386322,27.562761,-50.67532
-2.2790794,-5.409371,-2.3107345,11.640845,17.242285,-38.293056
-2.0669014,-4.333204,-1.9790674,10.315191,8.555728,-27.982403
-1.6342856,-3.4043977,-1.5594324,11.900208,7.07903,-21.732744
-1.347944,-2.937742,-1.432607,5.3927093,7.8092527,-17.443312
-1.4562787,-2.6719713,-1.4782571,2.7361546,8.557971,-12.38353
-1.3991834,-2.403953,-1.1358126,5.3801312,2.1391644,-7.6343083
-1.0351055,-1.693019,-0.5120847,4.9321074,-2.7640877,-6.303087
-0.5416995,-1.3440021,-0.36716357,0.81461924,1.5207973,-5.3060093
-0.29883757,-0.89318365,-0.28104004,-6.8895493,5.7216063,-6.467473
-0.33273417,-0.9116687,-0.27765393,-7.7978153,9.721051,-1.7392142
-0.76822513,-0.7676784,-0.069014,-5.733907,9.275325,-2.4070287
-0.88722074,-0.64309394,-0.22623688,-3.6881924,8.0411,1.2185302
-0.4919361,-0.34475178,0.18768238,-2.7350488,5.7820272,-0.19221461
-0.07977973,-0.48185307,0.15056968,-5.339733,6.834361,-0.99968195
0.13854574,-0.89475065,0.79793566,-16.843914,14.479166,11.284406
0.38433552,-0.89742774,0.28104508,-26.313805,17.165659,14.683303
0.0,0.0,0.0,0.0,0.0,0.0
0.0,0.0,0.0,0.0,0.0,0.0
0.0,0.0,0.0,0.0,0.0,0.0
0.0,0.0,0.0,0.0,0.0,0.0
0.0,0.0,0.0,0.0,0.0,0.0
0.0,0.0,0.0,0.0,0.0,0.0
0.0,0.0,0.0,0.0,0.0,0.0
0.0,0.0,0.0,0.0,0.0,0.0
0.0,0.0,0.0,0.0,0.0,0.0
0.0,0.0,0.0,0.0,0.0,0.0
0.0,0.0,0.0,0.0,0.0,0.0
0.0,0.0,0.0,0.0,0.0,0.0
0.0,0.0,0.0,0.0,0.0,0.0
