ax,ay,az,gx,gy,gz
-0.5951734,2.5378363,-2.0609934,38.571728,-12.145337,-43.157665
0.119586855,2.916181,-1.8550917,-9.748212,15.00186,-31.90535
0.28223887,1.381901,-2.312085,-21.669374,34.238197,-39.11764
-0.53739995,0.7801564,-3.1281276,-4.4983416,31.317621,-50.41744
-0.75690866,0.4454907,-3.6230676,4.0603094,28.131956,-59.860863
-1.1551,0.13613942,-4.2193046,4.634612,12.35688,-44.349735
-1.6395227,-0.5632195,-4.6428065,3.0829852,-5.8243546,-16.220469
-1.586833,-1.7887999,-4.9402776,0.046731353,-16.435644,-0.03699547
-1.1240565,-1.8119761,-4.592089,8.401756,-24.942791,-4.6557045
-0.089001276,-0.8042098,-4.031802,14.176659,-12.264508,-2.7154746
0.38913494,0.19156377,-4.107548,9.163306,-4.596258,5.221566
-0.21717396,0.16304931,-4.032377,1.2600882,-3.0648315,20.294958
-1.0959605,0.036575228,-4.4910192,-6.312305,-4.9511576,26.186789
-2.0138302,-0.5530731,-5.0301466,-12.543956,-9.463455,35.437775
-2.9637477,-1.5143224,-5.158051,-7.6593866,-19.927591,27.199589
-3.3520584,-1.2445797,-5.088083,-3.4507284,-28.957294,18.97141
-3.1968703,-0.37539187,-4.816685,-7.5239,-41.55685,28.628166
-2.5323124,0.5429908,-4.484207,-17.559849,-47.4482,35.53939
-2.514272,1.2265109,-4.301911,-23.277527,-53.978596,34.642574
-2.315647,1.2570298,-4.1046352,-31.44316,-60.37363,31.464722
-3.2991192,0.8765323,-3.8877854,-38.73836,-67.10597,23.339098
-3.1866164,-0.695438,-3.4842243,-45.25565,-83.17884,33.9397
-3.2166767,-0.7358366,-2.8809557,-49.383266,-92.97493,41.66577
-2.4875753,-0.47429386,-2.5134125,-54.282,-106.325,49.734463
-1.766997,0.23350775,-2.097991,-59.55623,-117.85112,56.179176
-1.2628359,1.2919106,-1.4081464,-78.77145,-123.925,54.200825
-1.3957961,0.14640187,-1.0411863,-88.58774,-134.614,51.64397
-1.0949392,-0.8174961,-0.3823966,-85.66697,-145.3732,44.010517
0.36291152,-0.7793579,0.56478417,-87.35607,-157.4281,40.130676
2.650661,-1.1658618,1.1777508,-90.37046,-152.49184,49.80522
4.257799,-1.8702989,2.065693,-88.53615,-146.74728,56.292908
4.3771634,-3.1018252,2.5914662,-52.467693,-121.064476,34.16123
3.0169384,-2.84049,3.3540812,-13.576912,-118.0191,13.519424
2.1517835,-1.31727,3.7733588,5.8222723,-114.88913,1.1539679
2.4335725,0.5279703,3.68537,2.8201687,-128.1736,-0.6217245
4.313079,0.69637835,3.694546,-13.96682,-131.14972,9.564594
6.481361,-0.8643993,3.9210086,-21.511642,-120.02731,24.284182
9.402387,-2.282637,5.0753345,-11.686526,-93.76151,25.270876
9.396891,-2.2595692,5.4168863,-1.5636709,-62.612766,17.007217
7.8438325,-2.0771117,5.6936607,10.608138,-41.52765,12.318894
6.562321,-0.92811006,5.8965273,20.393406,-26.997698,14.029961
5.8443007,0.6821013,6.0966997,15.937897,-7.9517307,13.483412
6.3028655,1.108202,6.1151733,7.33747,10.418153,16.656326
7.032453,0.6492801,6.02916,0.27644312,32.480103,19.914543
6.9186926,-0.0745818,5.4272027,-3.0268762,56.138626,22.315704
6.4165616,-0.74309814,4.795821,-0.061511874,70.1961,14.930446
5.784671,-1.4175586,4.3178368,9.682816,78.84578,16.113213
5.1500797,-1.2075499,3.644043,14.072172,88.68414,20.852154
5.39958,-1.2770065,3.6802866,16.035332,96.64186,25.962336
5.5150614,-0.9436797,4.108189,21.79957,110.95098,23.823847
5.341265,-0.038077965,4.209976,30.611006,126.40286,19.318964
4.5511703,0.20966187,4.100332,31.110735,148.47603,-0.38202673
3.8301234,-0.7164814,3.42016,43.55337,152.70299,-2.632868
3.483264,-1.1240141,2.603044,57.44351,156.20805,-11.498864
3.115949,-1.3466954,1.9809501,64.19778,156.45634,-11.346252
2.2619717,-1.6481034,0.79216474,69.317986,162.38718,-6.657998
1.065501,-2.674495,-0.56519777,68.69373,164.29027,0.83486384
-0.81851506,-3.2987673,-1.6846775,84.238365,164.70143,-6.137008
-2.2532718,-2.483073,-2.820885,91.33096,156.12845,-12.22848
-3.6790633,-2.224379,-4.021146,90.67296,140.83182,-14.754275
-4.6389556,-2.2028716,-5.0563364,90.3052,117.72723,-6.860688
-4.3427796,-1.27093,-5.371715,96.40836,76.663376,-18.161077
-1.9057075,0.028185014,-5.283956,86.17785,72.55809,-21.41001
-0.43309557,0.22259334,-5.5853586,79.63477,80.182945,-20.843447
-0.221779,0.12671146,-5.7052493,90.24678,89.07211,-45.973473
-0.5545346,0.65323055,-5.8755,121.582855,80.07354,-89.53737
0.29464838,3.3553977,-5.1118073,111.6044,77.33716,-107.39144
0.5397021,5.2945147,-5.2046347,80.852905,68.09925,-85.11063
-0.73353726,4.7736635,-6.0076985,54.646248,47.85237,-67.37863
-1.6736838,3.2952034,-6.5885115,37.779175,34.653534,-54.69034
-1.6589557,2.3618686,-6.9485917,32.43243,13.098043,-50.7158
-0.82196075,2.771533,-6.4480214,29.206978,-3.5104098,-71.34613
1.5022815,4.9189825,-4.9805884,26.120647,-8.750761,-83.85143
3.1912847,7.961481,-3.5022185,5.789412,-1.1171069,-86.65962
3.8536088,9.554877,-2.350112,-29.496178,3.5968568,-88.66075
3.5427246,9.567475,-1.9589127,-60.342285,9.724767,-87.40239
3.3109467,8.930152,-1.6014878,-82.18988,16.01366,-116.904915
3.3721294,6.9020534,-1.5764568,-94.995605,24.658115,-123.29123
2.1394958,5.0370483,-1.7121418,-109.63111,29.010664,-132.8859
0.5649115,2.9093428,-1.3980486,-108.65354,29.736729,-158.69148
-0.056448072,2.359206,0.1422049,-95.574814,29.531645,-212.07745
0.49732313,2.7534404,0.8946201,-109.3358,28.793478,-211.76094
-0.8380121,-0.3263431,-0.8378334,-144.22871,9.782097,-138.76474
-2.539287,-5.4938817,-2.0130444,-153.85762,-7.5652266,-93.074326
-2.4694273,-9.927083,-2.907571,-115.94337,-16.17376,-112.9691
-1.0605582,-12.527076,-2.5342662,-71.13121,-19.115625,-128.87514
0.9846407,-12.290689,-0.8562334,-41.216072,-17.310143,-93.58483
2.1990604,-10.657431,-0.36462793,-22.771996,1.8521544,-62.794857
0.77194273,-9.815351,-0.92597306,-6.462166,2.855406,-37.20498
-0.75417,-8.394583,-1.973533,4.9203577,2.540606,-22.675804
-1.9247526,-6.962078,-2.098046,15.179569,-3.6388283,-7.533456
-2.464956,-4.9843183,-2.4632418,19.796206,-16.724377,9.065025
-2.496679,-2.7779787,-2.59601,16.10793,-24.256985,21.192122
-2.1995149,-1.6367631,-2.6988695,13.677902,-26.351566,24.782969
-2.0097008,-0.6905597,-3.1422641,10.472314,-29.586893,23.413109
-2.268137,-0.30332837,-3.593848,9.286642,-30.92583,22.352087
-2.665377,0.052790932,-4.262675,7.0702844,-39.757366,26.765425
-3.2563994,-0.08442348,-5.5333533,3.874265,-54.773285,30.89837
-3.3080156,0.42585397,-5.838992,1.9980052,-68.75528,21.592491
-2.5063612,1.0855969,-5.7487483,5.0130315,-79.4097,-0.7536548
-1.3850108,1.8402238,-5.3132563,2.8357577,-89.566086,-13.240653
-0.80268574,1.7401313,-4.7696853,-11.773017,-90.91599,-0.8101263
-1.8949795,0.6424164,-4.882693,-16.875181,-90.199905,-1.5461754
-2.7861183,-0.1309897,-4.922988,-16.464445,-102.08276,-7.113351
-3.3701077,-0.39263,-5.1199117,-14.684744,-123.93936,-3.7668629
-3.0030851,0.6006868,-4.527756,-14.497443,-148.238,6.223368
-2.0183632,1.378754,-3.80334,-25.216825,-168.6842,11.067929
0.18337007,1.508113,-2.375475,-39.53282,-179.21924,26.758013
0.74273455,0.8307102,-1.2812505,-49.874283,-174.36891,34.919174
0.47850955,0.46862215,-0.45020184,-59.66855,-177.92287,42.010994
0.8449153,0.69502354,0.7243506,-63.84941,-186.95546,40.38412
2.0384417,-0.011855446,1.4722372,-66.68081,-181.6085,38.098267
3.7059455,-1.0681986,2.4644468,-69.48564,-177.07555,24.534615
7.200398,-1.295286,4.404624,-69.717766,-148.2311,25.770487
9.345671,-1.4741646,6.1959867,-72.70611,-117.55196,32.108562
9.389959,-2.7373292,7.161537,-60.397743,-80.340775,27.826717
8.166076,-3.308556,7.1885314,-34.303074,-56.0602,17.292768
7.323106,-3.926444,7.4231305,-25.296808,-46.192657,26.247374
6.876228,-4.16118,7.3599153,-13.477632,-22.107964,31.798574
5.7492633,-4.877099,6.8758755,-0.25800085,-2.8764496,40.871338
4.657855,-5.2960696,6.3607073,13.249417,9.340807,45.08332
3.596968,-5.5905156,5.311168,37.841106,22.155096,45.663834
2.9779246,-6.603674,3.9155877,57.80475,29.256054,45.388493
2.2804415,-6.527508,2.5382924,73.75684,32.647953,58.542797
1.4830338,-6.812017,1.434145,82.925606,30.174747,79.523705
0.73395777,-6.179907,0.6417644,90.28602,32.04506,96.70905
0.0018501114,-5.579206,0.06441632,99.24502,29.998358,111.275696
-0.57779753,-4.5348415,-0.9720431,100.128044,29.097359,123.49659
-1.6509053,-4.0684776,-1.624101,100.43953,23.167559,135.83424
-2.379737,-3.9851785,-1.7207844,109.54657,11.469957,142.83768
-1.8863611,-3.6819394,-2.143793,121.91816,5.3642936,136.06166
-0.70558655,-2.2828393,-2.1374454,136.65005,14.289679,125.66196
-0.057478547,0.5721575,-1.864912,140.36343,16.89003,122.06421
-0.5430645,1.9905504,-1.7451179,126.83517,20.881882,124.50816
-1.0211236,2.6083372,-1.7005343,114.25539,14.551246,120.04073
-0.8776871,2.8616488,-2.0599074,108.997894,7.812626,112.580246
-0.020116549,3.225229,-2.3463442,105.69662,0.15256435,96.79174
1.6772902,2.8348808,-2.6964538,95.9965,2.96321,88.846405
2.2613487,3.3068562,-2.8365707,91.22244,7.3794203,80.34923
2.3480022,4.992197,-2.876187,84.61713,14.15847,69.590195
1.7248273,6.849724,-2.5620313,69.21284,16.210287,62.54234
0.8390546,8.557516,-2.7147145,39.513985,9.712225,44.550865
0.9350151,9.101207,-2.9731388,18.724043,-1.8187416,30.737514
1.9305547,9.488485,-2.7515345,0.67792743,-6.7102404,19.656109
2.7276921,9.419812,-2.6496067,-19.673508,-5.4926553,7.1178694
3.1989086,9.156498,-2.4006176,-33.230686,-4.045415,-4.118538
3.6617427,8.945954,-2.072048,-48.536263,0.52478373,-31.832657
3.532561,9.035231,-1.4855294,-62.46093,-3.6128016,-46.34528
3.6037304,9.067209,-1.3506206,-81.96983,-0.6309395,-55.439335
3.365595,8.232121,-1.4510651,-98.842064,1.6327245,-65.519066
2.990942,7.425607,-1.8398405,-109.114624,3.6924431,-80.328606
2.8578036,6.2815037,-2.3913982,-122.62966,6.823144,-91.264626
2.2105389,4.59132,-2.5222557,-129.66197,4.128496,-108.35522
2.1199238,3.7620268,-2.3845308,-132.62474,4.281762,-116.53474
2.3739338,3.193468,-2.3483834,-140.70197,3.42515,-120.91145
2.1711924,2.2339256,-2.0795434,-143.20602,6.3824053,-122.196594
1.6000695,1.1039202,-2.5566518,-144.88783,5.141388,-130.89168
0.7998447,-0.54909676,-2.7604537,-145.3541,3.1419897,-137.12915
0.25152093,-2.0777955,-2.6034615,-145.12427,-0.54949194,-134.02394
0.2382852,-2.9855862,-2.3537967,-137.88435,-11.958369,-130.78049
1.1148872,-3.5486732,-1.6344115,-138.9039,-17.195333,-121.47554
2.069747,-4.3554792,-0.85953146,-135.83371,-8.200703,-109.68278
2.2986517,-6.5366187,-0.44413465,-130.33818,3.4313111,-98.65069
1.8292214,-7.5844655,0.12055254,-119.62845,11.237922,-84.75212
0.9680324,-8.625048,0.5384763,-101.15202,13.524021,-72.218666
0.083870724,-8.933547,0.90023226,-85.51127,19.244001,-62.509834
-0.98164606,-9.1383505,1.2984492,-57.860184,17.4703,-48.86911
-1.2291903,-8.688241,1.4504557,-40.855934,14.3021965,-35.618095
-0.92394614,-8.184255,1.6247104,-30.0019,19.101023,-17.4022
-0.83103997,-7.4590344,1.4035981,-22.048744,22.133257,-4.370053
-0.99241227,-7.0073066,1.1081672,-7.131604,21.480593,1.7826004
0.0,0.0,0.0,0.0,0.0,0.0
0.0,0.0,0.0,0.0,0.0,0.0
0.0,0.0,0.0,0.0,0.0,0.0
0.0,0.0,0.0,0.0,0.0,0.0
0.0,0.0,0.0,0.0,0.0,0.0
0.0,0.0,0.0,0.0,0.0,0.0
0.0,0.0,0.0,0.0,0.0,0.0
0.0,0.0,0.0,0.0,0.0,0.0
0.0,0.0,0.0,0.0,0.0,0.0
