ax,ay,az,gx,gy,gz
-1.637617,0.66112405,-5.6210093,-19.108414,-55.234875,2.9724662
-1.9632992,0.97109616,-6.318097,-18.724838,-61.725124,1.3435322
-2.7043355,1.189601,-7.770668,-14.00608,-71.29378,-6.992371
-3.885642,0.7227908,-9.379664,1.7487988,-102.90233,-26.055393
-4.637675,0.46644327,-10.143553,-5.5222406,-132.4796,-33.986217
-5.112184,0.12229434,-10.349525,-20.380407,-167.20036,-34.53722
-5.0331483,-0.48007482,-9.801354,-18.445076,-182.85081,-22.975407
-3.9594727,-0.019774728,-9.166296,-22.434397,-202.43622,-11.60461
-3.378704,1.3362379,-8.873088,-18.51644,-224.73718,-24.450914
-2.186921,1.3065158,-8.452249,-11.813167,-245.56163,-39.33753
-1.1804427,0.01849686,-7.0926337,-2.496,-255.95213,-52.8543
-0.7371076,-0.69285935,-6.2216654,-5.2144,-266.94418,-55.417107
1.0968115,-0.9128016,-4.772621,-1.393004,-275.18387,-46.55657
4.28987,-1.9023514,-2.5414288,2.3992376,-275.34647,-23.849472
9.779066,-2.1503165,1.8884568,10.04173,-261.16122,-16.760633
13.542359,0.005703766,5.4586926,10.734946,-231.12039,-26.448067
17.439085,0.05811745,9.009913,15.071534,-189.58339,-32.72047
19.825691,-0.7374112,12.216404,15.877672,-126.139946,-28.448502
20.608034,-1.236424,14.025496,4.971984,-37.62036,-19.368326
19.155746,-1.0344973,13.921526,0.93412983,13.854205,-15.914557
17.496105,-0.57441986,13.50027,-16.68056,55.650585,-9.677439
16.34898,-0.6429171,12.628749,-22.226938,103.02409,-5.7502046
13.489908,-0.9432636,9.514589,0.49910432,129.69417,-2.611899
9.69709,-1.1011133,6.707069,23.94543,139.37495,-3.9108803
6.9820366,-1.3243957,4.504172,23.224283,142.95114,0.23817444
5.56349,-1.2262301,3.571954,18.764183,148.7826,3.4821997
4.226139,-1.3484616,2.2231107,16.733152,159.91237,1.8018982
3.1558213,-1.2941825,1.3357248,15.076668,170.27658,-5.3579035
1.4666902,-1.5201353,-0.4905936,54.458824,169.09604,-16.063923
-0.32371897,-1.4311595,-1.526349,63.25223,150.17862,-18.710054
-0.5142438,-1.3612375,-1.7403991,63.970367,139.6678,-15.164333
-0.1069873,-0.8304488,-1.941449,55.882385,125.675064,-8.547514
0.12817115,-0.8111011,-1.7127683,49.95637,134.49336,-3.2002807
-0.41594923,-0.5157314,-2.2547774,41.57362,132.07191,-5.8291454
-1.568079,-0.64492565,-3.4698966,55.147892,133.35985,-19.627941
-2.1375976,-0.5666201,-4.729801,70.564354,130.6269,-33.299343
-2.5491266,0.05002404,-4.9728894,63.45482,114.61235,-30.063463
-2.6803424,0.38784042,-4.907745,51.348404,106.31289,-21.452303
-2.620449,0.61599034,-5.0524445,35.15521,82.89472,-5.362709
-2.8586574,0.8768896,-5.347505,29.064974,66.30257,-3.5484452
-2.1871872,1.5948806,-5.2140794,33.09175,60.38023,-13.189679
-1.5394845,1.947632,-4.9860587,38.23346,52.47436,-30.444746
-1.4906825,2.986031,-5.0046163,45.15679,46.274933,-44.481686
-1.2313329,3.535967,-5.08714,34.921165,33.410744,-49.651356
-1.0767171,4.366583,-4.90529,23.72079,17.093506,-45.892365
-0.28828725,5.6079154,-4.351599,5.5703735,2.2556589,-46.385468
0.34860846,7.3554945,-3.5924459,-10.475704,-3.0021365,-51.564392
1.2855781,8.727328,-2.9243643,-32.887238,1.7932698,-66.666145
1.494449,8.532775,-2.150972,-51.55837,19.650787,-85.15072
0.42466226,7.8405347,-2.7356439,-68.42271,28.730103,-99.68543
-0.44689438,7.064117,-3.1724129,-85.411766,26.290073,-102.96158
-1.1465286,6.1538982,-3.7273655,-105.204636,14.751152,-101.74915
-1.2840655,4.384478,-4.1131225,-127.70894,-4.6442904,-95.71142
-0.5936592,1.504946,-4.150583,-140.41742,-18.265343,-81.41503
0.40309444,-2.154857,-3.979754,-139.05467,-29.235346,-66.35032
1.3716118,-4.439946,-3.1334307,-133.39354,-33.87635,-52.338398
2.349191,-5.966201,-2.4688764,-110.1964,-25.213953,-47.24286
2.5415704,-6.802785,-1.9308891,-86.00538,-14.536145,-45.806847
2.371516,-7.2298803,-1.9869394,-68.00977,-6.268261,-34.626186
1.0056974,-6.734913,-2.2476413,-57.17984,-7.15805,-25.042938
-0.041206345,-6.758917,-2.6836548,-44.185097,-10.442197,-18.400862
-1.2138755,-6.54688,-3.1532118,-28.891174,-20.639788,-9.645409
-2.2254174,-5.624684,-3.6517808,-12.88192,-23.238367,-6.3362722
-2.5640695,-4.811163,-4.0737696,1.8434243,-37.19574,-4.1530237
-2.911909,-3.4759533,-4.6345162,8.418644,-47.341026,-7.4709396
-2.9114945,-2.0859625,-4.8051586,7.644241,-59.21432,-2.9058704
-2.9865985,-1.733154,-4.937883,6.5872445,-72.082596,-3.7941248
-3.3886533,-1.382751,-5.430805,3.9264047,-87.35849,1.1664927
-3.252635,-1.4959435,-6.36363,-5.347696,-112.9681,7.614213
-3.3139853,-2.6876318,-6.4364896,-6.05561,-138.11026,14.718751
-3.6078076,-3.3688629,-6.201001,1.0066226,-154.99324,14.67154
-4.263544,-3.4260674,-5.8333526,14.008917,-174.69177,12.847417
-4.278218,-2.5978892,-5.375004,23.260056,-197.0859,14.479279
-3.3065283,-1.4333217,-3.813451,19.335516,-232.79564,15.036075
1.2390977,1.3555201,1.0160918,10.216947,-228.43805,13.162093
5.092554,3.316535,4.666451,-4.181716,-202.8902,10.177011
9.090761,3.9242513,8.0512085,-30.661308,-163.49129,11.421493
15.335119,2.0458765,12.443223,-46.238323,-93.29409,21.05478
20.138159,-0.08599008,14.677081,-37.797855,73.928986,28.758373
16.87159,-3.6570787,10.898494,-19.411186,136.43878,18.970839
11.339219,-6.327346,7.346077,-19.248535,145.2345,36.961292
7.045479,-7.164207,4.87587,-23.959078,131.72781,62.94771
4.445666,-7.762733,3.670268,-20.911318,123.68142,70.03121
2.8989115,-8.035392,2.761726,11.340056,125.13392,63.506176
1.8240911,-7.7167525,0.9088053,63.43788,118.743225,55.321136
0.93992156,-6.823185,-0.42095825,99.21769,100.82929,66.135574
0.053901725,-6.1714826,-1.2739217,131.80919,81.07881,83.836945
-1.0741707,-3.937971,-2.2523391,153.01405,68.053055,89.433395
-1.5511793,-0.6255159,-2.9454997,142.18045,47.67112,71.541824
-2.2058787,-0.7048582,-3.651904,130.04906,37.32687,67.041405
-2.7766478,-0.8279204,-4.3469214,133.87076,16.474258,58.75343
-2.2845454,-0.34692824,-4.1215825,136.21245,5.786022,52.692043
-1.8103788,-0.18958965,-3.7512045,134.47375,-5.121965,61.583298
-1.4580841,0.33219907,-3.6017208,132.23259,-8.860327,85.144325
-1.5388952,1.7269496,-3.6285331,132.68933,-15.865654,90.520004
-1.5911274,3.5213404,-3.607011,130.15726,-17.276089,74.200066
-1.830322,4.30047,-3.1710882,128.10094,-19.919588,59.951813
-2.1310444,4.598936,-3.4270833,124.33073,-17.612247,54.832115
-2.3985865,5.3804207,-3.6696432,98.33841,-36.144276,62.94039
-2.4217153,6.785604,-3.3302443,79.216576,-54.759514,64.91277
-1.1308571,7.9465146,-2.9665897,61.114185,-62.175827,49.466827
-0.42951337,8.66266,-2.2902539,56.179043,-55.996716,24.069971
0.27935487,8.931008,-1.4460391,50.98303,-45.86085,0.98546207
0.36460683,9.308943,-1.9241837,29.189886,-45.7476,-6.148656
0.36532027,10.333898,-2.0447624,-9.2668295,-44.581474,-3.5757668
0.8080685,10.812706,-2.0352578,-45.9109,-49.584476,-11.837368
1.5864199,10.623501,-1.7771319,-78.45481,-46.527428,-23.415104
2.0555646,10.1690645,-1.3489748,-95.224144,-43.349003,-44.42629
2.4835598,9.3106575,-1.3790954,-115.31486,-22.338526,-70.545364
2.1442332,7.6177645,-2.0386283,-134.21031,-16.13426,-74.21105
2.0564232,6.714993,-2.5643976,-148.2299,-22.405355,-73.20531
1.775082,6.0946,-2.907722,-162.11682,-24.001148,-72.36962
1.8271215,5.474999,-2.9564514,-174.46748,-28.709255,-79.43803
2.4549134,4.449822,-2.5386014,-179.8658,-24.354116,-95.515274
3.1553586,3.2758832,-2.4456851,-187.55064,-12.557825,-103.475006
3.2918558,1.3355293,-2.624722,-192.7579,-9.226579,-105.2649
3.554518,-1.1245154,-2.6041322,-198.1081,-13.194704,-98.98969
3.8252544,-3.5088997,-2.4062204,-189.97165,-11.533583,-85.231415
4.1987123,-4.5185175,-1.7137431,-180.48663,-1.0233397,-72.12847
4.333113,-5.9950604,-1.2262549,-163.66127,9.449757,-71.09389
3.6787226,-7.652259,-1.3841803,-147.4487,19.194162,-71.601845
2.4581795,-9.018823,-1.2615728,-121.09713,23.864326,-62.947124
1.5475763,-9.601804,-1.3290149,-102.21122,31.503044,-47.255653
0.5237722,-9.428201,-1.616822,-69.21936,19.113,-28.011616
-0.4853061,-8.223032,-1.3401146,-50.18632,13.079026,-19.526081
-0.31125748,-7.1540446,-0.8506175,-32.390396,6.5295286,-15.444791
-0.5238324,-6.019392,-0.46273866,-21.194614,8.639644,-12.527236
-0.71989596,-5.34405,-0.5322385,-9.754822,9.359834,-10.1772175
-1.386371,-4.6419253,-0.7248136,-0.6437959,5.385581,-3.2234507
-1.7236884,-3.5730011,-0.7623692,8.510235,-2.491734,4.6197205
-1.6416651,-3.051319,-0.52604735,9.677771,-7.5271177,9.018966
-1.7278218,-2.252614,-0.28782448,13.328859,-10.660317,10.69477
-1.3615757,-1.1362536,0.040743716,9.374518,-13.026728,11.2584715
-0.8610955,-0.3507719,0.35318014,16.297714,-7.277157,9.169826
-0.35467175,-0.028929863,0.65321934,15.921781,-5.5381846,6.9111943
-0.5062336,0.28551924,0.3729612,9.006617,-5.4696107,7.965184
-0.4209994,0.08938587,0.2723919,9.916998,-4.8048396,11.486193
-0.43283737,0.23112135,0.2905265,3.8963356,-7.794372,14.946815
0.07125511,0.389172,0.47553423,5.1528645,-5.679815,14.310554
-0.047098435,0.590471,0.501164,0.8751136,-0.563514,11.4675455
-0.11712787,0.35434765,0.40033123,2.9419909,-4.323888,10.089296
-0.04646101,0.538075,0.45889175,2.9275753,-0.7646704,9.503944
-0.007269986,0.3451457,0.46653792,2.4598145,0.5786284,11.302302
0.21577612,0.40933305,0.21393658,0.58379936,-2.1836066,14.219251
0.28682998,0.25476688,0.21408324,2.1179605,-0.8170892,14.955149
0.7498418,-0.18680918,0.42966092,11.205818,-0.02440381,19.601696
1.0674499,-0.7283126,0.75866777,14.919756,12.316862,30.27141
0.0,0.0,0.0,0.0,0.0,0.0
0.0,0.0,0.0,0.0,0.0,0.0
0.0,0.0,0.0,0.0,0.0,0.0
0.0,0.0,0.0,0.0,0.0,0.0
0.0,0.0,0.0,0.0,0.0,0.0
0.0,0.0,0.0,0.0,0.0,0.0
0.0,0.0,0.0,0.0,0.0,0.0
0.0,0.0,0.0,0.0,0.0,0.0
0.0,0.0,0.0,0.0,0.0,0.0
0.0,0.0,0.0,0.0,0.0,0.0
0.0,0.0,0.0,0.0,0.0,0.0
0.0,0.0,0.0,0.0,0.0,0.0
0.0,0.0,0.0,0.0,0.0,0.0
0.0,0.0,0.0,0.0,0.0,0.0
0.0,0.0,0.0,0.0,0.0,0.0
0.0,0.0,0.0,0.0,0.0,0.0
0.0,0.0,0.0,0.0,0.0,0.0
0.0,0.0,0.0,0.0,0.0,0.0
0.0,0.0,0.0,0.0,0.0,0.0
0.0,0.0,0.0,0.0,0.0,0.0
0.0,0.0,0.0,0.0,0.0,0.0
0.0,0.0,0.0,0.0,0.0,0.0
0.0,0.0,0.0,0.0,0.0,0.0
0.0,0.0,0.0,0.0,0.0,0.0
0.0,0.0,0.0,0.0,0.0,0.0
0.0,0.0,0.0,0.0,0.0,0.0
0.0,0.0,0.0,0.0,0.0,0.0
0.0,0.0,0.0,0.0,0.0,0.0
0.0,0.0,0.0,0.0,0.0,0.0
0.0,0.0,0.0,0.0,0.0,0.0
0.0,0.0,0.0,0.0,0.0,0.0
0.0,0.0,0.0,0.0,0.0,0.0
0.0,0.0,0.0,0.0,0.0,0.0
