ax,ay,az,gx,gy,gz
2.1343503,0.5007177,-1.1848991,14.17091,-23.393728,-8.664731
3.1075108,-0.18658485,-0.340784,-18.849554,-7.7880545,11.168991
2.6479943,-0.73797214,-0.4363429,-21.16518,-7.6593843,9.186994
2.157695,-2.3704734,-0.096681416,0.023132205,8.890205,-13.806094
1.7968436,-1.7866027,-0.114120424,4.244494,14.736458,-15.919169
0.891322,-1.4064869,-0.49290875,3.3237698,8.489413,-12.517849
0.41369486,-1.2344333,-1.15588,5.4565916,3.201291,-5.587259
0.044509277,-0.42283332,-0.49919337,2.8619275,-1.9446769,2.5135353
-0.4439771,-0.21085379,-1.069391,-2.2015498,5.045125,5.1261573
-0.6850283,0.54727995,-0.5720028,-0.8012456,-2.388589,2.4073963
-0.6076755,0.5531795,-0.57733434,3.7541618,1.6602443,-0.64718026
-0.72966415,0.64172775,-0.22275008,5.6643205,0.31863415,-4.503905
-0.27717412,0.8236688,-0.21471909,1.6492643,1.2385161,-3.4240706
-0.5049584,1.0196848,-0.8635104,-1.9103229,-3.7481008,-4.648988
-0.36121172,0.3426336,0.18681157,-8.975525,-2.872731,-9.022181
0.15096024,-0.07835287,-0.61801404,-15.08843,1.9618634,-4.100001
0.15209177,-0.46231595,-0.4419085,-9.165228,-1.0031711,-11.011387
0.6220874,-0.73387086,-1.2696956,-5.4373875,12.273214,-11.888948
1.4048631,-1.2368817,-2.5585067,-7.117824,6.7696614,-6.505739
1.4849389,-0.71089566,-3.8503034,-14.068022,0.52687263,-1.8430884
3.2294743,-0.9628919,-8.363345,-47.600235,-0.41693187,8.269481
2.4512484,-2.4138885,-15.258586,-96.02696,-13.051813,30.11657
-1.3682029,-8.790518,-25.004215,-105.40825,-116.474396,22.600554
-7.904544,-21.27662,-35.39826,-27.975258,-231.04213,37.354546
-7.956924,-22.834564,-36.115795,20.271893,-332.48135,80.29611
-4.9803505,-17.86396,-32.415142,50.03888,-397.43112,139.30853
-0.39636126,-9.381456,-27.519238,62.712677,-446.06384,172.17992
4.719802,0.11348587,-20.009077,75.459076,-496.3603,187.8857
16.535772,9.223434,-7.5456696,49.284286,-517.09753,165.42297
26.601572,12.232768,6.08242,-13.945051,-485.0976,151.42734
31.782148,10.952342,18.12853,-64.06509,-401.28732,133.4747
32.494156,8.91246,25.613176,-79.223656,-287.09586,107.0926
30.38955,6.584068,28.499456,-76.13617,-174.96564,78.698364
26.348614,4.769248,28.536018,-55.16228,-33.491894,52.815964
20.558884,5.2111645,25.167992,-52.97787,27.793257,48.875965
15.8289385,6.294284,21.73793,-51.056828,69.13093,46.093323
12.511349,6.4036922,18.339098,-33.769688,102.22432,21.044472
10.966536,4.9252973,15.965643,3.773301,146.41667,-16.983532
11.487535,2.7078574,13.272935,27.224815,171.63264,-39.343784
10.890761,0.29303688,11.271272,39.091583,214.52515,-45.554214
10.105455,-1.4177805,9.439104,47.313667,245.28639,-46.13743
9.615465,-2.399614,6.921941,51.575924,265.52463,-48.29448
9.123429,-2.371247,4.998856,69.62639,301.2408,-43.572353
7.918361,-3.70813,1.6805751,85.595856,331.96225,-42.355484
5.889323,-3.9332561,-1.2647201,110.06142,339.46094,-34.340225
3.7724018,-4.5875053,-3.5195796,112.584885,340.93234,-33.14277
2.1699772,-5.1700935,-5.9244623,105.13946,344.5432,-29.253214
0.24399276,-6.274147,-8.226114,106.64207,319.46893,-20.387442
-1.4967691,-7.029985,-9.990056,99.13012,279.1571,-9.979932
-2.255618,-6.6238985,-11.632803,76.695435,248.98671,3.179711
-2.8666763,-5.8627167,-11.67571,60.109222,215.18436,28.264193
-2.615994,-6.1176395,-12.446871,53.870075,176.32115,51.390236
-2.811082,-5.793692,-12.713314,71.82731,127.50998,71.24313
-2.6796815,-4.2039075,-13.077384,92.641304,79.19865,74.59713
-0.96009743,-2.0136292,-12.368825,110.30995,41.979965,74.75306
0.3737789,0.94184756,-10.6686945,114.54507,13.064397,63.486565
2.5166771,4.5869074,-9.807337,114.99989,-2.071218,52.29806
3.5380988,9.702411,-9.201621,99.23318,-24.349953,4.208709
4.0639634,18.234463,-10.375762,78.56749,-46.90142,-38.911476
3.2925978,22.888285,-11.395743,53.800327,-67.307495,-97.59689
2.9294784,25.360191,-12.513122,4.8715625,-106.21313,-139.99005
4.4521646,26.671803,-12.172365,-34.053833,-138.49135,-195.06915
6.8666053,25.947939,-10.448078,-78.33695,-154.27606,-247.40071
9.399848,18.831001,-8.611172,-133.50026,-169.66847,-311.70755
11.552315,9.728309,-5.932012,-156.52518,-186.47916,-344.9766
15.718871,-0.26663473,-1.2908204,-186.33792,-196.58894,-334.80215
18.872765,-11.132407,3.9541707,-202.90546,-157.32535,-301.73764
17.878544,-19.832779,6.6619124,-166.1176,-65.12369,-226.45638
13.144007,-25.8463,5.42526,-135.46553,-13.576816,-166.76253
8.41794,-26.797178,2.2820404,-72.33218,13.950935,-117.54968
2.94193,-23.993675,-2.3402088,-7.3506002,17.965609,-87.35694
-0.6576775,-18.523094,-7.466071,28.325912,5.771737,-49.846863
-3.941565,-13.964137,-14.880324,40.680267,-45.84027,-8.81644
-6.4546294,-10.609679,-24.152376,45.282448,-130.82153,-11.193753
-7.0075736,-9.168967,-28.592731,41.16117,-215.07019,0.08776845
-6.22513,-7.285931,-30.24318,45.359634,-303.6874,10.646403
-3.9910824,-5.649948,-28.21159,32.549423,-394.98044,26.594229
0.15113676,-3.2944577,-22.828499,4.6667337,-428.32016,48.974117
5.3644156,-0.8999488,-15.461986,-23.634863,-444.0902,53.912266
11.952811,0.7697004,-1.5881553,-55.659084,-435.87677,54.022285
16.657003,-0.03537211,7.4405556,-73.78249,-386.43097,66.05242
20.277618,-0.41123718,15.25928,-82.690956,-329.2873,65.18959
21.918167,-1.0135617,21.001223,-61.6693,-229.36354,39.83674
20.112965,-1.2952796,24.627592,-32.208195,-138.215,19.583218
16.473953,0.38008517,23.487574,-35.94901,-66.08137,22.974932
12.787814,0.26552862,21.125902,-43.44923,-18.854298,28.436619
9.41892,-0.6741418,18.401665,-39.328323,13.049059,23.729391
8.115524,-1.2698538,16.403955,-11.040382,47.359673,18.323696
6.8838797,-1.3065947,13.52921,-10.895191,87.16465,22.049385
6.237249,-2.3209257,10.986945,-11.144189,106.3948,18.196053
5.7772765,-3.0842955,8.87373,0.8354322,122.17007,20.941383
5.757707,-4.1858563,6.723311,8.751733,142.67955,27.668888
5.3909736,-6.124924,5.59344,17.378637,156.5965,27.784782
4.6471596,-7.9446945,3.1267514,32.49649,184.75958,51.649944
4.225534,-8.846801,0.6710059,44.07572,198.07727,73.26356
3.8966174,-8.815324,-0.87314826,68.72171,208.50183,110.91393
3.2104096,-8.323071,-2.9356887,89.60546,205.62648,130.3133
1.9939592,-7.1987257,-4.4715557,98.1297,199.5149,166.79097
1.3010392,-5.8978415,-6.625641,98.49513,178.30544,183.01698
1.1875091,-4.594496,-6.6698527,100.474236,160.96733,204.27396
1.4229087,-3.661976,-6.3547087,89.65842,142.37407,217.87329
1.2300963,-2.9461453,-6.39151,83.537224,130.02487,232.60165
1.4423732,-0.7681897,-6.566804,77.22467,115.308136,245.7485
0.72878206,-0.0825271,-7.1294312,79.27935,92.01187,242.39624
0.78857195,1.649382,-7.1044044,85.69112,68.93799,238.4383
0.97123337,2.6191227,-6.774738,79.101105,43.838127,227.15048
0.7441083,3.6915922,-6.4348316,68.614815,33.119938,217.33078
1.4258275,4.471761,-5.4822307,66.47178,26.912615,205.28249
1.7895325,5.827882,-4.8081985,58.190865,31.489717,194.0826
2.4046412,6.337423,-5.5257716,67.18793,23.919785,175.12259
2.4815342,7.214539,-5.7701263,89.08023,16.44998,153.60945
2.966144,9.196548,-6.3968916,98.84741,6.0422735,127.87545
3.5601609,11.564312,-6.309567,91.797226,-11.219269,84.094086
4.081051,14.42118,-7.473199,65.18775,-25.188274,53.398994
4.134752,19.0626,-9.53294,17.615486,-47.251965,14.95869
3.9366171,23.939323,-12.237566,-51.880413,-81.93232,-42.52455
2.659741,27.06862,-15.336294,-112.14495,-109.70805,-106.67269
1.6818439,27.44109,-18.748266,-154.27477,-186.71481,-189.77985
3.275061,25.003435,-22.070019,-150.37474,-236.13481,-259.35748
7.931786,21.925406,-20.601126,-157.85599,-272.18298,-325.0693
12.986781,15.136558,-16.46951,-149.99182,-312.35373,-371.31418
18.9312,6.723704,-9.903716,-141.9369,-337.7955,-395.85742
26.75453,-1.246142,-0.23078138,-199.56091,-307.8807,-371.39722
34.26638,-10.3427,11.597722,-236.16815,-222.97684,-315.80447
31.372318,-21.987625,18.75074,-238.674,-94.79383,-255.2824
22.347084,-25.953823,15.481508,-221.13301,-13.712935,-203.31268
11.48221,-26.160416,8.524341,-183.01866,19.857777,-148.46631
4.01863,-24.56428,3.9598892,-96.39276,20.775667,-94.011635
-1.373849,-18.409845,1.255052,-43.88027,14.232477,-71.370384
-3.441086,-13.379811,0.2701599,-19.727842,3.9482875,-57.750782
-3.5258255,-10.310284,0.42715544,-1.8898132,-0.95466995,-45.03384
-2.549882,-6.4092913,1.0457493,-8.326241,-6.5807486,-23.755789
-2.3353226,-4.5220666,1.6241368,-27.250044,6.9236956,4.5244064
-1.6039035,-3.6893957,0.89912605,-14.188264,5.7254333,9.157517
-1.999012,-2.4351184,0.5328082,-7.441644,10.0265465,15.0477
-1.531713,-1.4837797,0.7175746,-7.7957,3.9941244,13.450122
-1.0981891,-1.1240424,0.45794415,-9.321789,5.877055,9.161603
-0.67614275,-0.9204404,0.35824633,-7.1534386,8.781365,14.850288
-0.59646916,-1.0913724,0.45630896,-17.124323,13.905845,13.2513685
-0.81335163,-1.206592,0.19132467,-8.37401,13.389996,15.049967
-0.5780134,-1.3286893,-0.3927046,-2.505491,16.364132,12.077865
-0.66674244,-0.95791733,0.040658176,2.8313076,9.305194,13.455272
-0.5131979,-0.25065225,-0.57801896,1.5039908,6.0491867,14.167198
-0.031976044,-0.5522694,0.11912085,3.4812434,9.81952,14.707302
0.045438223,0.5944988,0.15911867,5.465699,6.2532167,21.388054
0.18441807,-0.11109969,0.87881434,2.0704954,14.67103,15.736574
0.12736878,0.7129128,0.5597268,-2.0082648,10.711839,15.197854
0.38094574,0.77413905,0.32773852,-5.267635,9.667346,16.8888
-0.28687367,0.6082399,0.3812575,-9.166723,16.723228,15.983929
-0.20038597,0.49872708,0.35737395,-11.0441265,22.044874,10.060979
0.21683913,0.14654405,-0.30826798,-15.582349,17.466118,14.125584
-0.18387423,0.05638145,-0.15176757,-22.858173,19.397165,12.856388
0.0,0.0,0.0,0.0,0.0,0.0
0.0,0.0,0.0,0.0,0.0,0.0
0.0,0.0,0.0,0.0,0.0,0.0
0.0,0.0,0.0,0.0,0.0,0.0
0.0,0.0,0.0,0.0,0.0,0.0
0.0,0.0,0.0,0.0,0.0,0.0
0.0,0.0,0.0,0.0,0.0,0.0
0.0,0.0,0.0,0.0,0.0,0.0
0.0,0.0,0.0,0.0,0.0,0.0
0.0,0.0,0.0,0.0,0.0,0.0
0.0,0.0,0.0,0.0,0.0,0.0
0.0,0.0,0.0,0.0,0.0,0.0
0.0,0.0,0.0,0.0,0.0,0.0
0.0,0.0,0.0,0.0,0.0,0.0
0.0,0.0,0.0,0.0,0.0,0.0
0.0,0.0,0.0,0.0,0.0,0.0
0.0,0.0,0.0,0.0,0.0,0.0
0.0,0.0,0.0,0.0,0.0,0.0
0.0,0.0,0.0,0.0,0.0,0.0
0.0,0.0,0.0,0.0,0.0,0.0
0.0,0.0,0.0,0.0,0.0,0.0
0.0,0.0,0.0,0.0,0.0,0.0
0.0,0.0,0.0,0.0,0.0,0.0
0.0,0.0,0.0,0.0,0.0,0.0
0.0,0.0,0.0,0.0,0.0,0.0
0.0,0.0,0.0,0.0,0.0,0.0
0.0,0.0,0.0,0.0,0.0,0.0
0.0,0.0,0.0,0.0,0.0,0.0
