ax,ay,az,gx,gy,gz
-2.88435,2.5884926,-6.9956393,-22.567223,-81.47345,-43.97844
-3.9546726,2.7940872,-8.224409,-18.16151,-102.501274,-44.516167
-4.770631,2.3999999,-9.071754,-15.874993,-119.73011,-43.207397
-5.3213444,2.3369823,-10.07872,-17.634277,-135.07283,-35.184208
-7.003326,1.3063455,-11.601989,-6.202963,-163.14929,-31.046204
-6.908094,1.026604,-12.251816,9.870508,-181.1637,-39.829895
-6.449965,0.8831956,-11.920729,37.293255,-192.34857,-55.69351
-5.7979364,1.6245866,-10.244278,46.035698,-208.42868,-58.496758
-5.237383,2.5126822,-8.265152,32.378265,-238.30473,-52.48402
-3.9348657,2.4211385,-6.3202505,26.60084,-263.79605,-50.94514
-1.7790854,1.5732313,-3.855362,24.89368,-276.49722,-59.563282
2.3453584,1.3962762,-1.575281,31.04501,-269.89938,-74.08841
8.848093,1.6034676,1.0268568,13.509645,-256.59998,-63.955757
12.660699,-0.02347438,2.5542123,7.764433,-231.09692,-40.49675
14.37259,-0.96957445,3.4094803,9.844275,-199.54605,-31.599413
14.774187,-0.9265766,4.3687086,18.522627,-157.8256,-27.77456
14.398336,-0.04558876,5.3213863,20.18971,-115.61957,-12.968266
13.126529,0.17683104,5.9670067,18.64461,-81.05289,-8.607449
11.977858,0.24436805,5.956466,21.100084,-56.419064,-7.3900046
10.726949,0.30091804,5.90472,21.380209,-34.66456,-0.9475068
9.723317,0.4856993,5.920445,18.20451,-24.978281,1.8599792
9.297089,0.73215544,5.659034,8.109151,8.89876,10.714045
8.154287,0.95813143,4.7795563,2.0403433,27.815025,16.255405
7.2655573,0.60754585,4.177754,-3.8333306,51.438744,19.992111
6.1618943,0.26130432,3.2277298,-5.4290843,72.74856,31.628532
5.1795716,-0.22326764,2.131008,-5.325507,88.26906,36.648735
4.772512,-0.4470862,1.7391639,-5.59061,114.12741,41.97134
4.062943,-0.8565875,0.5267209,5.5204773,116.038635,46.579422
2.5190635,-0.74677837,-0.032283336,13.7873955,119.982895,43.36504
2.0041208,-0.24496555,-0.040609654,10.332466,111.514244,40.96847
2.1711845,-0.49279025,0.27254656,11.012318,115.971634,34.013954
2.296151,-0.79913855,0.19629835,17.28664,125.30863,32.317047
2.0724082,-1.1225036,-0.34936097,21.51828,131.16486,27.73322
1.6370653,-1.0560637,-0.38350326,27.636269,136.82938,33.92485
0.38039315,-0.806486,-0.551921,30.44706,126.51724,32.11337
0.17039919,-0.5412332,-0.693935,29.85236,124.31592,30.224585
0.329359,-0.18342504,-0.7535002,28.90604,124.40672,24.845709
0.04515955,-0.5101353,-1.3935041,25.602055,121.4639,30.234415
-0.92355067,-0.50055057,-1.8614576,22.779816,118.270515,32.254375
-1.0422606,-0.05842957,-2.101404,22.608213,112.04088,27.449463
-1.2077,0.0030286908,-1.9617357,26.463924,108.186226,24.775784
-1.4183533,0.21975029,-1.9306499,28.108698,114.47926,31.300503
-1.9522804,1.3858235,-2.395581,26.473404,100.84698,27.955778
-2.4907427,1.7575525,-2.36063,29.728191,84.810295,20.211367
-2.9429417,2.158557,-2.5268166,34.858727,79.5688,5.3933377
-2.6929717,2.7983685,-2.2820082,33.791,73.25598,-0.759464
-1.9906435,4.31785,-1.6216812,31.663954,57.60653,-3.8797822
-0.2808687,8.709273,0.85572326,8.701875,53.460445,-12.332116
1.5009947,12.407616,2.6983323,-42.323914,39.91212,-35.887684
2.9120884,13.391344,3.2441604,-83.28519,46.56209,-50.507805
3.370543,14.351039,3.2478046,-124.09918,54.154366,-65.77282
3.539326,14.864941,2.6685262,-184.0266,71.06142,-87.77991
2.2907865,10.871571,-0.076143295,-212.82068,84.9381,-90.44055
0.61829096,7.7543335,-2.5372994,-213.5462,92.32993,-92.56572
-0.77193505,4.3055935,-4.4990277,-213.06807,78.0214,-84.64934
-1.1154358,1.6180204,-5.795522,-198.94217,68.89829,-90.45922
-0.9293515,-1.5572835,-6.744862,-161.77397,48.665047,-89.27452
-0.5707767,-4.19946,-7.058238,-131.83504,29.08235,-75.66637
-0.15657188,-5.2225494,-7.0446334,-103.14733,23.966263,-66.47635
-0.011819437,-5.6135893,-6.75268,-77.679665,21.868732,-65.07791
-0.18723008,-5.45346,-6.4327126,-50.79323,15.383363,-61.20839
-0.39397582,-5.5629563,-5.9605947,-26.109663,9.980538,-51.662556
-0.7851085,-4.725029,-4.5085487,-12.272841,9.21476,-43.908497
-1.2860601,-3.435815,-4.1540346,0.7356334,3.4998033,-37.261208
-2.3567622,-2.4969118,-4.059589,11.22171,-2.7637382,-34.305367
-3.3554437,-1.1873956,-3.9037175,15.817703,-13.947884,-31.696484
-4.01656,-0.33528215,-3.999798,26.016577,-23.00607,-46.17851
-4.980666,0.17914419,-4.671108,37.4266,-34.252266,-58.43307
-6.175957,0.52741957,-5.428654,40.694435,-55.89789,-60.62723
-7.141179,0.53935754,-5.829541,44.647163,-86.38968,-69.82185
-7.36562,0.6544348,-6.3173146,57.271526,-108.89015,-79.36067
-7.541605,0.330865,-6.9991183,68.83082,-143.37373,-94.929825
-7.1202307,-0.09213987,-6.9319296,64.29895,-173.4924,-107.293205
-5.124926,-0.33239233,-6.2195854,67.565445,-192.10245,-110.17794
-2.0620422,-0.69042754,-5.3967953,71.33591,-198.57613,-115.71311
0.114921845,-1.0480614,-4.4803114,81.27061,-193.36208,-103.27042
2.2878807,-0.59213275,-2.7242746,83.45052,-186.13507,-90.41069
6.719583,2.2151172,1.336085,60.197144,-182.2586,-70.13068
9.027402,2.677346,3.727188,34.82939,-163.96628,-45.407738
10.17976,2.0714793,5.1637306,11.470941,-140.81068,-17.172058
9.937277,1.0030203,5.5281296,-0.9104092,-107.91631,-1.9033344
8.877358,0.23022723,5.1168947,-5.786565,-77.4003,7.388894
7.388472,-0.17605704,4.9361243,-1.5696194,-65.83329,6.7147465
7.1981716,-0.00011477247,4.9587517,2.4839048,-47.821774,8.754763
7.263162,-0.10855973,5.059686,1.4287775,-30.849539,10.381916
7.1082845,-0.037771553,5.1080117,3.7076817,-8.278167,11.589977
6.7903605,-0.3226618,4.8994503,6.047223,15.080217,17.487444
6.1999774,-1.3497685,3.6720057,9.299732,31.522821,21.925926
5.8557043,-1.6815541,3.1913345,14.558677,40.45952,31.35637
6.074816,-1.7720169,2.6261673,11.574182,59.42947,41.430042
6.2813025,-2.4267411,2.2869139,6.91197,73.03533,58.833042
6.052778,-2.9376032,1.5002928,11.47425,104.86397,83.31488
4.687713,-4.073129,-0.19376059,40.933243,104.799324,99.03123
3.372995,-3.7476132,-0.54550093,67.49754,108.846405,117.40123
2.155347,-2.8377779,-1.0288386,74.76536,111.92867,125.15971
1.4495891,-1.9466575,-0.97023714,68.55721,111.62909,126.88325
0.94146544,-1.6549675,-1.2394856,63.548065,111.47465,127.61862
0.2660601,-1.1204896,-1.4576216,49.64837,103.745514,118.716934
-0.06635231,-1.4773315,-1.6589946,46.08463,96.47682,113.797195
0.13009277,-2.0035682,-1.8974047,45.755745,87.00526,119.237366
-0.12524056,-2.086574,-2.2631662,56.514793,88.386055,122.69098
-0.9478988,-2.1239576,-2.660051,64.58928,79.45751,125.247154
-1.7056154,-1.189839,-2.7439637,65.81964,65.084236,122.25997
-2.067938,-0.49206266,-2.824114,67.946686,41.444252,122.55645
-2.3126106,0.19318321,-2.8641124,69.119194,32.040745,122.34819
-2.7157962,0.7878688,-2.9612792,55.446068,19.451147,121.14586
-2.9978929,0.5703704,-3.3949344,58.189285,4.892729,110.30448
-2.9901023,0.7083028,-4.169135,68.22075,3.1712334,103.56931
-2.928633,1.7882402,-3.6554976,82.82763,-7.6745787,101.086845
-2.8216722,3.5119884,-3.2783246,85.88345,-15.56562,95.88618
-3.22661,4.7519464,-2.9874957,79.47146,-33.74824,80.2626
-3.3011868,5.0008698,-2.7572262,70.966576,-55.8674,60.379463
-1.9797577,5.044053,-2.9527726,72.30715,-65.912766,48.229584
0.13505736,5.571419,-2.0974562,74.20378,-66.59024,44.29031
0.83638954,6.4591804,-1.4160376,67.258316,-58.707813,49.30452
0.6168233,7.6599836,-0.82441497,54.461742,-63.018925,43.85248
0.38373172,8.950141,-0.049411323,24.85655,-59.378803,15.801381
1.1607068,9.164558,0.30117735,10.606069,-59.002697,-2.840821
2.197456,10.590946,1.4055548,-11.360629,-57.911106,-30.427164
2.9893606,11.96743,2.6718938,-32.693523,-48.28406,-59.90706
4.310738,13.846003,4.165102,-78.2957,-31.285011,-109.91187
5.821563,14.5480385,5.087303,-135.23322,-7.799692,-146.59561
5.3907266,14.370907,4.7727547,-170.20467,-9.798919,-158.38025
5.2507615,13.06164,4.4152293,-195.19452,-4.970814,-164.28296
5.766135,12.549618,3.9228542,-220.90627,4.045609,-173.87851
6.0771585,10.136176,2.6103892,-236.81993,22.72634,-184.23795
5.9105687,6.2985024,0.44070336,-234.24274,47.43593,-170.09164
4.5976043,2.9648914,-1.7264264,-222.82616,43.472137,-149.19257
3.1499727,0.9163585,-2.9828155,-212.37257,36.55005,-135.04094
2.8984118,-1.0701689,-4.093071,-196.7707,26.065645,-136.40215
3.204947,-2.977652,-4.7541,-179.2047,25.555431,-125.24887
3.101478,-4.5116034,-5.1411767,-165.59303,18.43398,-94.564674
3.6356394,-5.8845134,-6.038013,-145.18016,18.492584,-71.58683
2.884526,-6.5960107,-6.055379,-122.564026,20.80034,-51.833908
1.5680594,-6.698963,-5.6880593,-99.08924,15.835831,-34.217033
-0.0141094215,-6.0165844,-5.2618666,-86.41852,-0.052646875,-25.634378
-0.68900543,-5.7678046,-4.782981,-68.249176,-5.424987,-21.571623
-0.9284516,-5.6660132,-4.234526,-49.42575,-9.217713,-20.455698
-0.57201415,-5.189314,-3.5278425,-32.6623,-4.653692,-20.887798
-0.72756815,-4.5214534,-2.8827229,-26.351948,4.3620167,-14.494811
-2.0598855,-3.8195355,-2.6580105,-19.49966,-4.134401,-8.499543
-2.7958589,-3.1680398,-2.6471198,-11.730404,-17.62438,-14.055691
-1.2393891,-3.1089373,-1.9849777,-6.6319013,-25.269981,-8.844904
-0.28450263,-2.3535712,-1.5129361,-0.46746802,-19.156425,-3.9937344
0.045533117,-2.0380259,-1.0837243,7.381481,-12.710436,-0.073418856
-0.46371126,-1.7526032,-1.1426337,14.7292385,-6.8017826,2.3390052
-1.0659509,-1.0967952,-0.90316874,14.42403,-13.819075,5.362622
-1.0588537,-0.49095154,-0.5663433,16.59883,-19.201366,9.129526
-0.37446785,-0.33298364,-0.020772949,18.268261,-20.310406,9.184761
0.22034734,-0.30955195,0.12590243,22.510756,-12.132942,17.839046
0.867075,-0.6044492,0.014274828,31.125494,1.2797968,20.24732
1.091033,-0.59859586,0.11053775,37.8244,6.5531445,27.324036
0.54128945,-0.105847046,0.33394414,58.54606,15.408486,38.80465
0.0,0.0,0.0,0.0,0.0,0.0
0.0,0.0,0.0,0.0,0.0,0.0
0.0,0.0,0.0,0.0,0.0,0.0
0.0,0.0,0.0,0.0,0.0,0.0
0.0,0.0,0.0,0.0,0.0,0.0
0.0,0.0,0.0,0.0,0.0,0.0
0.0,0.0,0.0,0.0,0.0,0.0
0.0,0.0,0.0,0.0,0.0,0.0
0.0,0.0,0.0,0.0,0.0,0.0
0.0,0.0,0.0,0.0,0.0,0.0
0.0,0.0,0.0,0.0,0.0,0.0
0.0,0.0,0.0,0.0,0.0,0.0
0.0,0.0,0.0,0.0,0.0,0.0
0.0,0.0,0.0,0.0,0.0,0.0
0.0,0.0,0.0,0.0,0.0,0.0
0.0,0.0,0.0,0.0,0.0,0.0
0.0,0.0,0.0,0.0,0.0,0.0
0.0,0.0,0.0,0.0,0.0,0.0
0.0,0.0,0.0,0.0,0.0,0.0
0.0,0.0,0.0,0.0,0.0,0.0
0.0,0.0,0.0,0.0,0.0,0.0
0.0,0.0,0.0,0.0,0.0,0.0
0.0,0.0,0.0,0.0,0.0,0.0
0.0,0.0,0.0,0.0,0.0,0.0
0.0,0.0,0.0,0.0,0.0,0.0
0.0,0.0,0.0,0.0,0.0,0.0
0.0,0.0,0.0,0.0,0.0,0.0
