ax,ay,az,gx,gy,gz
0.9924413,0.8117982,-0.89292425,12.660757,19.525927,-1.2361697
1.0776101,0.19482177,-0.5287055,-2.022194,14.738928,-5.940776
0.6886812,0.20476598,-1.0977839,-8.589783,29.761368,-17.113325
0.17746441,0.35203424,-1.1500124,-6.966404,16.548084,-9.622522
0.12345557,0.60231483,-1.1415862,-10.241541,7.535204,-11.399203
-0.2058982,0.47231317,-1.2937858,-15.183216,0.81932545,-4.5989504
-0.36464775,-0.29980385,-1.1904172,-12.662246,-5.8806467,1.9293675
-0.3666766,-0.2880845,-1.0152082,-11.601965,-15.516486,2.4641232
-0.4961191,-0.6684056,-0.69601583,-3.403608,-9.460678,-0.8937943
-0.4318083,-0.38788956,-0.284727,-2.5460165,-9.459449,1.5820546
-0.13672374,-0.30128127,0.5560497,2.2254364,-4.6641765,2.7285066
0.16381858,0.3436255,0.9853677,5.447738,6.233471,2.04561
0.13440415,0.52995163,1.0957379,10.009828,1.862225,2.3088546
0.29342604,1.3451635,1.0172839,7.296747,6.6749697,1.7074976
0.44126543,1.4859747,0.5352361,-1.8736193,16.021677,-5.1205187
0.2551402,1.1085703,0.51025796,-10.090732,9.735474,-2.2855003
0.3790316,0.58955526,0.62022364,-9.254692,11.388965,-6.1156855
0.08063934,0.3171039,-0.106055096,-11.703255,15.132839,-10.101149
-0.16976969,-0.55238783,-0.23448054,-10.430063,11.371729,-6.2548723
-0.40146634,-0.7127039,-0.6223113,-6.0714974,7.785299,-6.4076786
-0.37139368,-0.66352916,-0.679998,-7.534227,5.2834196,-5.1340456
-0.63053864,-0.7886828,-0.47792286,1.3861675,-3.20036,-0.7818698
-0.501622,-0.3686613,-0.1291975,6.0032616,-3.1306105,2.2462542
-0.34977537,-0.23123911,0.029931992,11.078834,-2.0108886,1.194968
0.22892065,0.14587198,-0.0030837655,13.990908,1.5179988,0.4848943
0.46942937,0.74278647,-0.04439986,17.85083,2.8533711,-3.8789072
0.8996284,1.2154295,-0.24574812,9.234119,6.6394124,-6.689534
1.1969641,0.84408754,-0.82226473,-2.1691165,15.661768,-4.0902734
1.1616273,0.28226906,-2.243536,-9.841132,11.742093,-1.034503
1.6246922,-0.5154288,-4.065116,-13.42696,8.318636,0.35618642
2.056821,-0.82768583,-6.8425584,-23.474468,3.828753,5.3285093
1.9993646,-1.8821098,-10.008881,-35.50327,-15.389594,18.958237
1.3400543,-3.5726428,-12.714939,-51.3933,-40.207695,39.125538
0.405161,-5.078639,-15.173282,-71.550316,-82.22468,55.949604
-1.6202465,-6.7795415,-16.670979,-69.524536,-120.251015,63.22329
-2.4233391,-7.5115237,-16.881037,-49.839817,-166.47818,49.27871
-2.2353013,-7.145779,-16.11999,-19.130138,-199.28438,45.534527
-1.3250732,-5.302338,-14.695796,-9.06211,-236.5501,61.857975
-0.41890568,-3.3188725,-12.045868,-12.05711,-285.20712,74.251495
1.8603095,-1.0179478,-6.500381,-16.542006,-322.44376,83.92608
7.0442457,-0.13606583,0.61071676,-26.88003,-341.05466,87.05697
13.1378,1.1683455,9.599864,-56.188496,-321.1933,90.51165
16.014494,2.031764,16.671041,-54.752888,-253.46376,80.2136
15.250104,3.1648142,21.433441,-24.121517,-146.18869,49.29156
12.840628,5.5078287,23.78377,-22.18013,-90.89959,30.174469
10.878376,6.5855055,23.594055,-22.45937,-28.984442,19.068247
8.71194,6.880572,22.431293,-24.462183,13.247932,10.428176
6.227728,6.855712,20.044357,-14.836463,49.253662,-0.4931177
5.190173,6.4297943,17.337885,10.572378,88.89668,-24.551134
5.209022,5.05232,14.249855,22.354322,113.21748,-45.89112
5.7545943,4.2340803,12.240954,23.463547,142.12773,-48.36227
5.918839,3.3118763,9.443207,24.0692,170.45325,-56.166794
5.4740667,1.3391466,6.6767745,24.435102,189.68828,-62.05315
4.7093945,-0.5005668,4.4324155,30.304646,213.25644,-61.590622
3.7910864,-2.2166448,2.1180773,27.222984,225.83397,-55.912796
3.1020958,-2.7902048,-0.10955341,23.360933,231.85521,-48.221497
2.6790395,-3.216148,-2.3472908,24.324152,230.6197,-41.85667
2.1465812,-3.9764044,-3.241265,17.412155,234.43092,-27.076565
1.140723,-4.5290785,-4.9812055,39.062428,236.88486,-6.013902
0.1518683,-4.922641,-6.6468916,49.43975,222.09813,-0.9240909
-0.45067364,-4.944232,-7.378124,53.82623,213.28607,20.192005
-0.9522274,-4.680981,-8.309627,62.154797,205.37689,33.35413
-1.9244205,-4.53394,-8.823476,74.02615,186.44363,48.081474
-2.186872,-3.8831167,-8.985135,74.87025,140.21725,60.75362
-1.7306178,-3.047123,-7.9832454,75.08799,104.99023,58.638565
-0.89317036,-3.0389054,-7.2479935,80.334885,73.09788,56.697887
0.14837958,-2.3306594,-5.731699,75.17495,40.54941,60.341503
0.942534,-1.8041178,-5.002356,78.32234,20.05118,56.71176
1.967302,-0.92194885,-4.427144,74.344635,0.9768276,70.82801
2.6857026,1.1588268,-3.6934247,71.70552,15.152136,74.86061
2.4494734,2.8306859,-4.45613,104.800865,2.7063677,67.79846
2.1011856,6.476344,-5.6024785,144.17017,-5.2628675,31.385885
1.833105,9.909536,-6.379709,170.69414,-43.408672,-29.97132
2.7451336,13.830664,-6.3639474,153.8887,-69.6539,-101.66903
4.006397,16.885107,-6.3198915,81.46571,-75.446754,-129.65797
3.624049,17.991873,-6.531144,16.713352,-85.40706,-168.40797
3.7643545,17.196907,-6.593468,-55.0654,-88.86305,-195.91199
3.8005686,14.524145,-6.6165395,-105.13564,-105.44389,-215.69585
4.1138406,11.101817,-6.087849,-157.30069,-121.19324,-237.6638
5.8817625,5.608749,-4.1582346,-181.81265,-125.79346,-247.77155
7.849996,-0.23199454,-2.1860394,-204.57384,-126.622925,-242.62976
9.627679,-6.2919335,-0.48096904,-198.0272,-103.446915,-231.70537
9.043172,-12.463508,0.17736351,-161.30235,-81.400246,-195.82462
6.91241,-16.829247,-0.47498953,-80.153076,-62.349728,-145.68513
4.5494194,-18.121683,-1.8744127,-14.077882,-67.45068,-104.77704
3.1956062,-16.325962,-2.9083328,49.173447,-75.34796,-65.307106
1.8829358,-12.825789,-4.7612834,84.19803,-85.03685,-42.965855
0.18869257,-9.667954,-7.0806055,97.49379,-112.407585,-20.281176
-1.4525859,-7.2248163,-10.03685,82.16413,-196.60172,15.445761
-2.7021956,-6.735572,-12.24007,69.52988,-282.68155,39.689896
-3.1579192,-6.308566,-14.394451,52.039173,-368.1422,69.573586
-2.3336425,-5.5070047,-14.078331,38.69042,-441.72034,95.69908
-0.40429345,-3.4575062,-12.756021,13.934178,-493.51233,119.52929
1.8848505,-0.9159032,-10.11635,-11.74787,-527.515,116.58317
7.8431573,0.34353164,-2.6154642,-21.204285,-512.6397,106.90094
12.767364,0.4462887,4.891093,-7.512763,-427.08585,100.74498
15.54,1.2218308,10.684385,25.375544,-271.7218,81.78634
14.059595,1.0099467,11.255992,48.438515,-155.15584,48.415077
10.798009,0.4044943,9.272693,39.70064,-112.623344,29.846674
8.592664,0.93925536,9.701497,8.768438,-90.31097,41.576168
8.099458,2.1144164,10.588126,-31.60123,-52.592278,47.607952
7.817444,2.651774,11.298259,-73.90756,-9.292469,34.928017
7.44529,2.5805843,11.331142,-100.61644,35.85345,6.655234
7.3068557,2.2507296,10.203397,-102.94835,92.048935,-17.163643
5.928899,-0.33293527,6.5960937,-65.50592,104.01184,-25.943506
5.656329,-2.6828291,6.031966,-13.813797,106.371155,-15.2475815
5.856108,-3.2575338,6.322531,-3.7782173,133.5705,-8.470945
5.748025,-3.685672,5.5347157,-2.5645835,158.58736,9.438923
5.1272526,-4.932682,4.3599343,0.57374823,195.42728,20.694826
3.9276998,-5.566624,1.6084585,27.78457,216.48274,29.034365
3.299668,-5.7321997,0.10698416,59.292282,214.09424,37.372517
3.1933613,-4.6486435,-0.2575634,60.768215,223.1769,53.16564
3.2986524,-3.8335037,-1.1265483,55.125076,227.07089,79.356255
3.0115442,-3.8362532,-1.7361025,54.573353,247.75427,107.22985
1.3031925,-3.887628,-4.2155294,68.91528,242.53662,128.50511
-0.04896023,-3.2056646,-5.1861596,63.996143,221.03206,147.68288
-0.8854386,-2.4343758,-5.778284,51.509396,199.73961,159.20706
-1.1803998,-1.4752738,-5.7696624,30.521708,178.60684,177.00182
-1.4068216,-1.4941121,-6.582278,41.89914,151.59157,191.759
-1.6038176,-0.9306581,-6.328335,38.87521,119.53506,210.65265
-1.2354147,0.09274952,-6.07531,37.22712,92.92347,219.8238
-0.7115559,0.8613813,-5.551412,48.084877,79.98484,218.37463
-0.44903785,1.9219418,-5.8431005,62.845356,62.053856,211.65182
-0.34438062,3.2346606,-5.8532686,79.755104,52.78075,196.95901
-0.69651073,5.8940606,-6.5346527,82.76391,27.452124,168.44841
-0.5395091,7.259243,-6.852646,81.57737,-0.6547611,144.9246
-0.06587631,8.633695,-6.4788046,85.22829,-22.922033,116.27925
1.7706997,10.299288,-5.952541,92.867485,-46.62827,76.614
3.274689,12.794027,-5.2646027,82.031,-54.12194,16.045895
3.6311417,16.989613,-6.272627,57.822384,-57.982445,-31.323454
2.979477,19.524555,-7.868401,12.145259,-71.305046,-84.35134
2.1460094,20.90839,-9.419779,-41.575527,-108.347755,-128.35876
2.2389777,21.050058,-11.092702,-80.19426,-128.19003,-195.76688
3.706561,18.526962,-10.900276,-119.9463,-171.25708,-276.0515
8.176117,13.432847,-8.252843,-159.67177,-182.05064,-312.66226
10.2341,9.304341,-6.2167583,-219.06795,-194.94984,-324.86838
11.719588,4.785069,-4.0128355,-255.92249,-209.34473,-319.12686
13.8949375,-1.2819746,-1.0243362,-266.16565,-197.19112,-316.8977
15.377921,-8.010105,2.3445928,-258.18304,-155.94589,-286.15546
15.117072,-15.34303,6.1644254,-242.98398,-111.91687,-244.8835
12.317972,-18.494291,6.7444396,-181.49744,-51.728607,-189.6349
8.189389,-20.189428,6.0486975,-101.870605,-1.2406955,-143.1412
4.5366254,-18.707243,4.5601573,-33.74916,17.66456,-86.583626
2.367328,-14.6961775,3.0715573,6.756906,33.9919,-46.43495
0.33431807,-10.352521,1.4461871,14.5386095,29.945835,-19.379368
-0.9718549,-7.66996,0.38068277,-1.9187384,32.699226,14.375307
-1.5055301,-5.6368046,-0.45843506,-7.0355687,22.903875,35.096962
-1.8784201,-4.271949,-0.70065475,0.7613239,12.863085,43.981693
-1.9276437,-2.9558582,-0.91554534,8.727975,-4.3269978,40.74115
-1.4757346,-1.1453636,-0.62849647,5.5096354,-4.39444,39.992577
-0.96131486,-0.46108827,0.24681303,1.2343519,-11.146906,38.70069
-0.7828113,0.08899505,0.51341856,3.6286416,1.4968979,33.363857
-0.5483319,0.75395626,0.69464964,-0.06720042,9.438315,31.47223
-0.28708065,1.3516775,1.0774833,-1.0883074,14.433195,30.26634
-0.66615945,1.5386837,0.6090103,-10.731184,22.113026,22.373274
-0.98528004,1.5263718,0.20811158,-19.001596,18.604534,22.056301
-1.0290766,1.3686824,0.18826213,-24.924606,15.789269,25.268553
-0.8620894,0.6402325,0.0639945,-25.596006,13.216307,23.819109
-0.7955631,0.17095397,0.25912654,-14.825628,11.767853,18.950941
-0.8854473,0.7526065,-0.20024729,-5.4668813,7.912087,12.439623
-0.78318757,0.83115715,-0.12677692,-3.5227294,0.51803684,12.105754
-0.5577105,1.5219861,0.29853025,-5.768345,-3.9738762,10.624421
-0.14343695,1.31106,0.48049587,-15.969063,0.8166425,12.945073
0.1329344,1.6606854,0.4961627,-26.560892,3.3496666,11.047508
0.24823828,0.93697876,0.72397006,-17.468643,5.570676,7.5328345
-0.26296523,1.0603995,0.26000232,-10.621513,14.190346,-3.60179
-0.24363787,1.0838145,0.35575902,-12.929049,7.861615,-15.741121
-0.2671983,0.37449336,0.38979048,-15.5749,5.797619,-15.666979
0.0,0.0,0.0,0.0,0.0,0.0
0.0,0.0,0.0,0.0,0.0,0.0
0.0,0.0,0.0,0.0,0.0,0.0
0.0,0.0,0.0,0.0,0.0,0.0
0.0,0.0,0.0,0.0,0.0,0.0
0.0,0.0,0.0,0.0,0.0,0.0
0.0,0.0,0.0,0.0,0.0,0.0
0.0,0.0,0.0,0.0,0.0,0.0
0.0,0.0,0.0,0.0,0.0,0.0
0.0,0.0,0.0,0.0,0.0,0.0
0.0,0.0,0.0,0.0,0.0,0.0
0.0,0.0,0.0,0.0,0.0,0.0
