ax,ay,az,gx,gy,gz
-0.85333407,-0.5201391,-2.45856,-0.40306675,14.353268,-19.969826
-0.6632554,-1.0046619,-2.7870607,-1.2731112,16.01472,-15.8702965
-0.6493104,-0.89510363,-2.5352745,5.4196396,15.506645,-14.723872
-0.30381358,-0.84579027,-2.297827,9.008501,11.905567,-9.495108
-0.19665773,-0.18364379,-2.3311057,9.950401,16.217178,-6.8118315
-0.6508887,0.24085027,-2.3991094,6.846008,9.272748,-9.330542
-0.88926756,0.5813645,-2.5712419,9.556778,7.1225286,-12.883556
-0.7992841,0.25644517,-2.508406,3.7652538,1.9417951,-9.382641
-0.7532641,0.032442532,-2.326001,-7.4882708,-2.2694747,5.3087673
-0.42729744,0.5695929,-2.1361763,-9.527134,2.9320068,6.6535406
-0.8004379,0.93924594,-2.4250312,-9.120102,-1.1041652,2.0720737
-1.7263864,0.88461214,-2.9221447,-9.8674,-10.788683,-3.4471097
-2.0845141,0.7412847,-3.399111,-9.338619,-25.72973,-0.021839306
-1.7535721,0.089246556,-3.8061097,-19.157864,-30.259829,6.073394
-1.3409163,-1.1140056,-4.6550364,-26.033838,-35.688038,21.366302
-2.1214774,-2.1097612,-5.2760744,-28.988356,-40.30985,26.589216
-3.8086927,-3.156985,-6.1015086,-17.429716,-55.31199,28.507725
-4.6283073,-3.527842,-6.075476,-13.367093,-73.43108,28.843458
-4.719171,-2.6215785,-5.805306,-6.719549,-99.624855,31.105822
-3.5951817,0.0030826554,-4.6961203,-17.800753,-110.728195,34.230362
-2.8544214,1.1428128,-3.970239,-30.763947,-120.51193,35.790474
-2.674986,0.84261477,-3.4773908,-46.12407,-127.26951,46.130592
-3.22421,-0.5408817,-3.774436,-52.715115,-137.72995,54.606655
-3.7726934,-1.3410908,-3.690321,-51.849876,-161.87485,55.221024
-2.7941039,-0.50189495,-2.2841625,-49.52588,-177.71756,45.261387
5.5011907,-1.4199486,2.5427375,-71.65829,-171.32356,30.577787
7.3880734,-0.57338464,4.2413187,-76.84147,-131.48651,41.311825
6.4523535,-0.6387843,4.334255,-75.01652,-110.70631,35.378994
5.3486586,-1.6694998,4.265338,-64.21537,-102.721146,24.413794
4.95584,-2.9150064,4.508337,-53.695393,-91.45734,20.389154
4.262875,-3.7972472,4.69512,-23.715004,-73.948944,16.292028
4.051247,-3.4326694,4.7154884,0.12740922,-60.797314,9.572804
3.9155517,-1.9068639,4.8412366,15.720895,-47.007786,-0.8363342
3.4672618,-0.16174908,4.74329,19.51561,-43.70257,-4.4586444
3.3393989,0.250171,4.7567415,13.750487,-35.530243,0.5843346
2.3175135,-0.04328002,3.4457161,5.4321675,-17.653948,-0.9861903
1.7339627,-0.728056,1.9338232,2.8433437,4.471412,3.3630083
1.1037561,-0.23838408,1.553422,-4.2489457,8.484859,9.49456
0.3834413,0.30654126,1.1226395,-7.388536,8.736752,11.066731
0.13737823,0.27096528,1.3528337,-12.341259,10.163798,12.257368
0.3618737,-0.14916584,1.8457313,-10.480591,9.343377,16.58707
1.5279455,-0.8155232,2.449804,-8.619749,13.3111515,18.47024
3.0579965,-1.9811978,3.176136,-4.615038,17.912683,21.818237
4.025196,-2.5006833,3.7213004,8.338948,24.008152,20.979696
5.3193254,-2.4325948,4.740123,15.521235,39.459934,22.806927
5.7895403,-1.8671722,5.4510736,22.074696,57.919403,21.603025
5.535545,-2.041722,5.877336,25.163082,79.681496,20.292473
5.143568,-2.2108805,6.0758777,33.303856,92.05442,21.380945
5.261425,-2.4498878,5.2156315,44.478718,108.11924,15.935598
5.048123,-2.4014466,4.442585,56.175583,124.61107,7.224931
4.2250676,-2.3623552,3.5799732,64.11143,133.00642,4.351301
2.7388315,-1.9578292,3.0286117,64.22701,143.30061,4.924471
1.2965403,-2.0195086,1.5472729,65.71345,148.96645,10.96511
0.44254872,-1.5820831,0.31974828,69.51071,146.20235,9.460694
-0.53004324,-1.720385,-1.0511104,72.18256,140.85834,10.787551
-1.4305161,-2.1433785,-1.6852887,80.67503,134.87976,3.3871398
-1.526428,-1.8643852,-1.8803077,95.83861,125.895485,-16.553074
-0.78889745,-0.72330827,-2.6224074,86.564926,117.67259,-12.366623
-0.2545054,-0.43965325,-3.5750325,75.96192,120.3139,-1.2954164
-0.7858022,-0.21831408,-4.394247,69.78375,115.6328,6.5970793
-1.167809,0.36341578,-4.881424,59.770027,102.523705,7.9336967
-0.99406135,0.2728647,-5.127747,49.729607,91.61954,9.363717
-1.5464089,0.44874373,-5.3887033,49.75174,83.31611,7.827421
-2.0630467,0.9701694,-5.583967,57.480896,68.25883,-2.9731002
-1.4003775,3.0386398,-5.0581484,56.162533,50.475693,-16.16887
0.15684938,4.5708237,-4.671956,38.728477,41.731472,-26.639465
0.51035196,4.592186,-5.239647,29.011425,34.419773,-31.469973
-0.36606005,4.1788583,-5.4958415,49.85031,10.091179,-63.670696
0.33636534,7.220698,-4.0525794,50.00443,-5.599181,-93.3179
2.6624815,9.687726,-2.5519333,28.952293,-13.573462,-107.79516
4.1892614,10.768163,-1.5786505,-5.821428,5.4178524,-97.213715
3.3673823,9.847774,-1.751899,-39.954094,18.235714,-89.79185
1.4904946,7.2114143,-2.4072444,-69.99434,25.765255,-99.799355
-0.64363736,4.0347967,-3.038691,-83.10869,19.381947,-108.0623
-2.0528092,1.3529855,-3.2429388,-77.67317,9.751581,-115.27881
-2.5141852,-2.3009384,-1.2650802,-74.5749,-7.223323,-123.39154
-0.9041275,-4.349322,1.6227746,-68.27856,-3.5676289,-124.02702
0.16573586,-4.6072035,2.3816268,-62.887928,5.1394577,-113.18152
0.30781102,-4.846452,2.406793,-47.91638,5.430301,-109.76024
1.0791718,-6.1659436,2.3606412,-44.58868,8.216944,-89.23882
1.4062018,-6.733817,2.0760043,-44.85072,17.593662,-62.580048
1.4735352,-7.12285,1.5106881,-44.870934,27.952497,-45.18995
0.45337984,-7.9863906,-0.020346291,-30.444424,30.98437,-30.67731
-1.3106036,-7.8321004,-1.2963169,-9.006494,24.923704,-22.089697
-2.4775598,-7.155543,-2.056456,4.9046726,15.794279,-13.821083
-2.874377,-5.670469,-2.6142335,8.663237,11.772623,3.4213333
-3.2702408,-4.4601455,-2.8581262,16.580397,0.057547808,12.5239725
-3.7896087,-3.0602303,-3.2182667,21.854322,-7.7068405,12.814633
-4.239004,-1.4778363,-3.8281255,21.799725,-28.734493,19.131899
-3.9186623,-0.1529794,-4.4969497,15.71783,-47.182972,21.363035
-2.8296163,-0.16087747,-4.897232,8.654059,-63.052227,25.811932
-2.4153998,-0.22635263,-5.4916925,2.7444122,-68.03947,31.696012
-2.6848898,-0.24175575,-6.0312533,0.8770166,-71.95953,29.355331
-3.746094,-0.35508758,-6.2956243,7.4872537,-86.958,26.726238
-5.1556106,0.84073955,-6.2397556,7.13004,-100.07499,27.910435
-5.349899,2.2498145,-6.1849284,-7.64333,-115.3959,26.35536
-5.856525,3.3746712,-6.022773,-19.12274,-130.33261,27.063925
-6.580787,4.097326,-6.213027,-29.688326,-153.22865,14.923555
-6.6112337,4.1267514,-6.21413,-43.94567,-179.32852,2.3098717
-4.9843388,3.8139617,-5.6260033,-61.739174,-204.9769,-3.689461
-2.9506004,2.8766963,-5.032434,-71.01275,-218.51385,-5.720989
-0.6395089,1.2061154,-3.9340792,-80.263824,-228.89636,-8.842538
2.3298702,0.015336467,-2.52966,-79.57373,-229.83636,-12.53324
5.6189265,-1.178221,-0.87676775,-85.160164,-215.03629,-7.733043
9.313386,-2.624884,1.7141517,-84.81031,-191.25421,-2.736712
11.372526,-4.0874414,3.6451619,-85.26608,-156.09721,10.884667
12.640175,-4.9590063,5.6107707,-82.45607,-129.82079,18.760132
13.007476,-5.824201,7.0771384,-73.4698,-88.42597,33.45466
12.081802,-6.660712,7.97158,-50.76641,-43.69551,41.83456
9.9361105,-6.910752,7.946135,-28.841352,-21.470337,40.85687
8.049783,-6.453722,7.50501,-2.2896378,1.1370977,40.791336
6.3322544,-5.802331,6.8150663,18.16089,14.7866335,43.38821
5.119306,-5.104256,6.1804857,37.023006,25.656118,48.32029
4.0530243,-4.6571794,5.1230288,58.64894,35.3575,51.38143
2.9559784,-4.1361165,3.4673054,67.091225,38.71936,55.440746
2.4106617,-4.651674,2.3822691,75.62289,45.09121,65.10691
0.9585432,-5.0878057,1.2048025,84.468956,43.865215,74.32492
-0.13158798,-5.52044,0.21795757,96.99727,41.27645,85.036865
-0.80994177,-5.144314,-0.6025964,107.926,34.248863,96.05862
-1.0419205,-4.2484627,-1.4557914,115.19158,31.499556,106.78184
-1.2928598,-3.0708377,-1.7293361,119.7056,38.507256,113.30605
-1.808931,-1.9838771,-1.9495292,122.64242,33.527077,111.06693
-1.9750828,-0.9980987,-2.1489997,125.43554,23.030205,110.777275
-1.9485259,-0.30966324,-2.1382952,121.2707,17.326801,116.088524
-1.8214601,0.08464517,-2.589009,116.88981,8.785006,111.55598
-1.4957726,0.29522574,-2.4836895,121.055466,4.5679502,105.28292
-1.029898,2.0751328,-2.2191353,119.91058,4.8417964,97.24555
-0.44678837,3.6774158,-1.936635,107.818504,7.2855787,87.38814
-0.3837345,5.0770626,-1.644408,85.52978,11.184302,86.248184
-1.1993394,5.020949,-2.0852835,70.89259,3.064698,79.15197
-1.7062036,4.199138,-2.7612784,59.955143,-13.360985,66.347946
-0.3144118,3.3764942,-2.722147,59.96241,-28.483776,58.400116
1.914925,3.8772454,-2.1684732,56.92327,-24.690447,52.456345
3.5292344,5.5999236,-1.592776,36.887077,-11.664506,44.12215
3.2504308,7.557069,-1.5205476,22.766203,6.3644576,35.944893
1.6078042,8.944331,-1.6491073,12.86197,-1.7740879,14.19095
1.1439474,9.947379,-1.5690244,-5.3099065,-9.13433,-4.511245
1.3895185,11.019295,-1.2667475,-27.550941,-15.083032,-26.406347
2.1032646,11.021696,-1.0361178,-55.50583,-16.209436,-43.01703
2.9804316,10.42606,-0.7347982,-73.845184,-7.915636,-56.109604
3.0091882,9.559852,-1.1883564,-95.99764,-2.2683995,-70.15803
2.9780219,8.067016,-1.4768565,-106.29161,-0.5928521,-86.51013
2.9558985,6.9426746,-1.7172344,-118.82883,0.84002715,-97.91039
2.8272872,5.878187,-1.821637,-133.74895,6.3078218,-113.99772
2.8906412,4.727464,-1.8062093,-145.82695,7.401808,-125.134895
3.067314,3.7733314,-2.1023185,-160.73419,17.276016,-132.65857
2.2467947,2.0334103,-2.778586,-172.14264,21.213541,-125.660545
1.110806,0.54495746,-2.978175,-164.19498,17.021458,-136.20773
0.33587438,-0.8326497,-3.1043978,-154.63857,10.433844,-150.90204
-0.09593716,-2.572188,-3.051783,-151.0632,4.155197,-149.00957
-0.2505498,-3.9949257,-3.0166252,-148.83395,-8.097494,-146.23883
0.23247087,-5.5748997,-2.679895,-144.65623,-14.06827,-127.35201
0.6571658,-7.325323,-2.2786148,-130.86137,-22.180965,-116.23702
0.9589957,-8.597538,-1.6799009,-107.062256,-23.013649,-109.13151
1.401915,-8.864771,-0.4486849,-80.91963,-17.941534,-85.46686
0.85438555,-8.630451,0.024699945,-69.88268,-15.890257,-71.42825
0.38741225,-8.245127,0.34778696,-53.53862,-13.824443,-57.128353
0.14551666,-7.984914,0.65461123,-37.092804,-12.831931,-43.59544
-0.042787682,-6.806724,1.1693659,-26.576328,-10.798676,-21.522549
-0.08751573,-5.838796,1.7455294,-21.483759,-4.9883103,-6.8667717
-0.1338648,-5.080057,1.9380691,-13.160245,-0.6061772,4.4190345
0.0,0.0,0.0,0.0,0.0,0.0
0.0,0.0,0.0,0.0,0.0,0.0
0.0,0.0,0.0,0.0,0.0,0.0
0.0,0.0,0.0,0.0,0.0,0.0
0.0,0.0,0.0,0.0,0.0,0.0
0.0,0.0,0.0,0.0,0.0,0.0
0.0,0.0,0.0,0.0,0.0,0.0
0.0,0.0,0.0,0.0,0.0,0.0
0.0,0.0,0.0,0.0,0.0,0.0
0.0,0.0,0.0,0.0,0.0,0.0
0.0,0.0,0.0,0.0,0.0,0.0
0.0,0.0,0.0,0.0,0.0,0.0
0.0,0.0,0.0,0.0,0.0,0.0
0.0,0.0,0.0,0.0,0.0,0.0
0.0,0.0,0.0,0.0,0.0,0.0
0.0,0.0,0.0,0.0,0.0,0.0
0.0,0.0,0.0,0.0,0.0,0.0
0.0,0.0,0.0,0.0,0.0,0.0
0.0,0.0,0.0,0.0,0.0,0.0
