ax,ay,az,gx,gy,gz
0.016067185,0.49452472,-0.764299,2.0653222,0.93654823,-0.62997454
0.32287496,0.100417554,-1.1245298,-1.789443,7.1638746,0.23821588
0.043291036,0.3649288,-0.941493,-7.0914025,3.5357997,-5.038429
-0.11073085,0.33885235,-0.8053796,-5.2924805,-0.6086176,-2.754775
-0.17683509,-0.08551985,-0.96510184,-7.4182415,-6.136139,-1.469904
-0.080248244,-0.0049591884,-0.47190803,-6.1978664,-2.5811477,-0.945035
-0.37245414,0.5606511,-0.31111354,-2.1905856,0.056887627,-4.1621084
-0.41412365,0.732587,-0.4732253,-1.8376524,-4.3841767,-2.9707925
-0.34462956,0.2294916,-0.17475098,1.6333494,-5.6134925,-4.4847345
0.12962776,0.051812634,0.35317117,2.3034267,-1.1755195,-4.2514353
0.0077606216,-0.024980426,0.4958131,2.329089,-1.4028543,-2.0853076
0.406433,-0.15579775,0.8024671,1.481268,0.0037540197,-2.4649234
0.28104296,0.0019606948,0.70237726,3.1166089,1.6598511,-5.0389767
0.23273422,0.26278815,0.6847265,1.4886248,2.5706093,-4.853942
-0.1270543,0.09593348,0.714486,-0.53783375,-2.3238783,-3.396557
-0.11113191,-0.20150292,0.98545074,-0.6894306,-3.3708444,-4.4549932
0.39234525,-0.511191,1.1713043,2.8942943,2.3566284,-3.3853693
0.5683318,-0.33563656,1.2384688,2.0308673,8.910452,-3.3406177
0.72122765,0.010167066,1.3851265,2.2269492,8.656408,-3.6821678
0.57396454,-0.02493834,0.9717692,2.0605488,11.03875,-4.637098
0.26920617,0.044730566,0.78081286,1.2574486,16.350584,-5.7342095
0.34737056,-0.15074776,0.4724427,1.6028951,17.751036,-4.9288964
0.03207229,-0.11983047,-0.20746149,-0.9384165,16.312868,-4.0197325
-0.12221428,-0.097360656,-0.7859429,-3.1592157,18.468367,-2.9245787
-0.24249646,-0.11861862,-1.4000854,-3.384072,21.640217,-3.3509438
-1.0877256,-0.1883171,-2.3090818,3.5839567,20.571009,-7.276569
-2.2076461,0.33121744,-3.8982317,12.35293,14.555517,-13.72407
-3.5991504,1.0895406,-6.0219045,9.783353,0.34280348,-18.08125
-4.5870566,1.0082644,-8.456992,7.851094,-26.173395,-23.742867
-5.2634425,-0.21713726,-12.710436,8.7504425,-53.471184,-23.551897
-5.886315,-2.1296954,-15.817614,3.848438,-99.13026,-21.364351
-5.290488,-5.4718914,-16.763435,12.927853,-141.174,-16.911455
-3.525889,-6.836913,-15.267421,50.795536,-178.88634,-8.852269
-0.95058656,-2.8195834,-10.417104,60.25532,-197.95135,-6.2666683
0.4908725,0.5022675,-6.2928767,46.957466,-207.53746,-6.194706
2.525374,2.6468809,-1.9205253,31.082966,-214.48026,-2.681134
4.618011,2.896393,2.2525468,14.386124,-207.14264,1.9791057
6.4201756,2.501137,5.9306455,17.969435,-178.0671,1.6999619
8.752121,2.8528957,10.260171,13.805046,-147.38385,1.933012
10.144578,4.088182,13.789227,-5.478774,-101.93275,10.349778
10.2126045,4.2006817,15.355461,-24.815067,-55.55448,6.6458745
9.464662,3.6394293,15.456405,-30.875656,-12.130099,4.433163
8.356028,3.4244084,14.563037,-30.81244,18.954075,-3.5253415
6.921023,2.5397427,13.245334,-32.947426,50.696827,-7.4876647
6.7206697,1.5446522,11.833523,-35.903267,73.92975,-6.3217306
6.305229,0.5909947,9.7313385,-34.034172,99.87644,-7.6654415
5.0542617,0.07052627,7.17837,-24.114555,116.96988,-8.972254
3.5181768,-0.6349352,4.745107,-21.232418,122.458755,-2.4942138
2.263031,-1.0964395,2.2917142,-21.879406,124.36309,2.1608813
1.9131916,-0.9879685,0.70548093,-21.094915,128.06287,1.3787687
1.8753058,-0.95515066,0.1957655,-22.528542,136.38226,1.3311667
1.5576277,-0.49772483,-0.8950568,-23.78358,144.68091,-1.5911705
0.29415897,-0.72676706,-2.8713443,0.14355308,121.14882,-3.4188848
-2.0127664,-1.216186,-4.7562113,3.639575,94.76181,-0.345421
-2.2970746,-1.5241461,-5.213134,5.957109,73.928505,4.5762053
-1.9342936,-2.0889099,-4.9144473,12.370373,64.826515,8.545419
-1.639866,-2.0632372,-4.752077,20.002777,60.897182,11.37686
-1.2701799,-2.1837077,-4.671696,33.128136,53.918503,15.01603
-1.5071878,-2.161898,-4.762736,50.415455,44.86896,21.091923
-1.7516773,-1.9262542,-5.048604,63.00249,28.261114,28.069036
-1.6359301,-0.6821229,-4.668953,66.6964,13.057993,25.970444
-1.6323115,1.5214759,-3.7703547,63.733196,5.8381824,14.334862
-1.5993786,2.2735682,-3.5703852,53.80662,-2.7747495,2.1654236
-1.3366805,4.2002873,-2.5136185,48.428024,-0.6894486,-9.919995
-0.9841287,5.9232183,-1.7819321,39.873035,-3.7820966,-20.878284
-0.5934357,8.011397,-1.1360275,22.292953,-5.432597,-35.77896
-0.66052246,9.916884,-1.0399489,-0.7338537,-12.356171,-51.334175
-0.6459857,9.8233185,-1.2834449,-35.895393,-18.426573,-63.329834
-1.5613261,8.085456,-2.163751,-53.518253,-22.132866,-74.89149
-1.371813,6.676321,-2.649361,-60.43512,-30.314005,-90.95464
-0.6913499,4.553462,-2.3252373,-69.80336,-37.749527,-91.47906
0.083989955,2.3132408,-2.570411,-77.90031,-41.409603,-86.53428
0.80984217,0.6503154,-1.983191,-75.849625,-46.413464,-89.2162
1.4552703,-1.3994491,-1.0562445,-56.48647,-47.092136,-91.17313
2.1044083,-3.962401,0.36131752,-45.196106,-39.68242,-82.79273
2.624317,-4.958744,1.084607,-38.204742,-35.46379,-70.233376
3.0917962,-6.266554,1.5967638,-24.659725,-29.825832,-53.530125
3.193185,-6.5032763,1.496872,-17.45852,-16.75413,-39.148132
2.3483846,-6.833753,0.9234728,-5.474053,-3.2386122,-34.731144
1.409036,-5.8230352,0.35713178,2.209262,-0.8074769,-28.400934
0.48445922,-4.503095,-0.23225254,-1.2384971,4.5111794,-17.85693
-0.4141683,-3.988184,-1.4287958,-8.012973,6.4843664,-9.994285
-1.7743876,-3.3010967,-3.0466077,-6.170929,5.7558804,-4.6290445
-3.7433379,-3.000477,-5.892985,-0.38652435,-6.1858125,-2.8438015
-4.896068,-2.1991777,-8.132446,6.032215,-23.952017,-4.9994507
-5.4676557,-1.8797946,-9.951948,7.6710687,-48.46333,-5.116211
-5.144966,-1.9093678,-10.361773,11.533854,-77.0506,-0.37839597
-3.9837651,-1.0391085,-8.938091,10.163593,-100.370224,3.3063695
-2.2405303,-0.16359763,-7.492982,11.69536,-107.948395,1.3585094
-0.74007916,-0.7851769,-5.4552407,12.987382,-116.42488,-1.63059
0.2890739,-1.3288321,-4.641089,18.255758,-118.515656,-0.801776
0.38024917,-1.7595378,-3.393757,24.735987,-123.15694,5.249516
0.78515315,-2.043015,-1.5427817,34.86979,-133.9226,11.812424
2.379038,-1.1198272,2.152831,34.470417,-132.06067,16.255863
4.4405212,0.68682486,5.9902163,26.902987,-114.11804,23.17583
5.5967207,2.4557152,9.675761,15.369531,-94.668304,17.647148
6.234977,3.419593,12.653721,-3.182199,-72.53287,10.439657
6.799575,2.7232885,14.375664,-20.72224,-23.810452,5.525376
6.7353053,0.80133826,13.608851,-36.428253,6.270482,6.137151
5.635604,-2.5280907,10.93036,-40.154224,24.2085,12.9024935
4.867251,-4.565109,8.730947,-32.631607,40.228764,23.998976
3.8343542,-5.916962,6.517023,-17.502075,60.915825,32.85707
2.6841073,-6.266219,4.30653,-1.1043155,69.27367,39.63723
2.3830414,-5.774469,2.8072,7.005933,78.55365,53.84268
1.5804894,-5.100922,0.85277253,8.179669,82.318596,59.328705
0.7087902,-4.951286,-0.65655375,2.378438,79.99139,72.82658
0.08676678,-5.21415,-2.0200632,7.1879883,75.76802,78.33521
-0.5004481,-4.948725,-2.823587,36.02823,68.360054,77.448524
-1.0157981,-3.437319,-3.6578617,58.703823,64.59805,77.996475
-1.4055301,-1.5347182,-3.8111038,58.926937,48.883244,81.02995
-1.3305256,-0.56316006,-3.450896,55.025955,44.687786,89.81233
-1.088362,0.07210666,-3.0075307,53.749855,35.094,91.21507
-0.6200729,1.1958632,-2.5034592,52.30049,26.844501,88.10544
-0.35245147,2.186374,-1.8505276,56.752274,29.309729,80.347
-0.76317495,3.299437,-1.800931,56.20376,23.251701,70.30176
-0.90150553,3.6380267,-1.7897764,55.144257,12.844998,66.51554
-0.5492909,5.0754824,-1.3160177,47.600388,7.041068,59.725178
-0.081684045,6.0604897,-0.75790244,34.585533,3.476743,52.581966
0.36869243,6.7602606,-0.7405232,19.1702,-0.97106683,42.266026
0.900836,6.8370185,-0.5483873,19.054306,0.15817761,26.818775
1.1575608,7.5567026,-0.38459468,18.311443,2.187784,15.172217
0.75923955,8.699316,-0.8719002,9.568808,2.97574,2.5685472
0.22283113,9.943236,-1.1081607,1.308774,-2.5376186,-16.770985
-0.42092824,11.430856,-1.4818281,-4.2803345,-8.361049,-32.733315
-0.62964106,12.27034,-1.5308272,-24.681402,-12.508853,-49.73674
-0.4592261,11.518457,-1.5656017,-47.560726,-20.080029,-63.34591
0.33554232,9.931887,-2.00423,-60.395905,-24.159527,-73.82391
1.247943,8.319882,-1.998165,-71.651306,-24.69613,-88.03693
1.8495319,6.1750546,-1.9488137,-72.2288,-20.748558,-102.36919
1.2523892,4.337624,-2.4833133,-71.481575,-25.281223,-110.09411
1.070692,3.146115,-1.9976926,-76.390854,-29.362352,-111.31175
1.1599993,0.94756645,-1.9086303,-72.362015,-38.66483,-111.39435
2.5527728,-0.72777057,-0.4587078,-71.71075,-38.000465,-112.512314
3.5166512,-2.903486,0.4070132,-70.926094,-25.567997,-106.69053
2.6294878,-7.2058187,0.3465638,-56.946873,-20.250525,-102.08427
2.239335,-10.590861,0.3120174,-35.131817,-18.19975,-89.57936
2.3549345,-12.365342,0.80963814,-21.076077,-14.362419,-70.65895
2.529939,-12.771832,1.2326674,-12.660549,-7.473844,-38.530693
1.6781267,-12.012953,1.3503753,-3.5241232,0.5385312,-16.701761
0.49491674,-9.854101,1.3149403,7.780403,6.572122,-4.0796905
-0.49448046,-7.732419,0.77724606,12.087598,8.765167,2.9363275
-1.5867583,-6.1445684,0.429191,16.700157,9.944363,9.073393
-2.2661753,-4.2549305,-0.10463594,17.448776,3.1255066,17.78006
-2.0968688,-1.5684447,-0.37790018,12.746702,3.7067943,21.87472
-1.9848574,-0.023934647,0.13169463,7.9907246,-2.8529205,21.805944
-1.1576158,0.58230215,0.37869096,-0.77522945,-4.1606207,19.93084
-0.61181253,0.7196044,0.664793,-5.210596,1.7325524,19.077147
-0.5388583,0.6937216,0.11665697,-4.634156,1.0583597,13.694942
-0.8413155,0.75865006,-0.26831603,-3.4933112,-2.9956372,12.206923
-0.49295837,0.19439122,-0.2112311,-2.4866333,-6.0123396,12.00983
0.25066894,-0.22509351,-0.17947087,-1.3294941,-7.0248413,12.919074
0.67014736,-0.0957252,0.075711906,0.73336667,-6.66152,15.270472
0.8773514,0.06864169,0.71688175,1.2103786,-0.21019247,13.185025
0.7578371,0.98129404,0.8488829,-5.2879558,1.5977175,13.347819
0.7494983,1.0290015,0.7437417,-7.879966,4.4288282,9.507215
0.6422495,0.7029034,0.5248105,-6.0983205,3.764039,8.625265
0.6191919,0.5547603,0.7714777,-6.3436985,3.540297,8.292708
0.5883756,-0.0067859385,0.8959483,-12.404493,6.0420084,9.856179
0.39477018,-0.46752512,0.76034397,-13.204807,11.577816,10.810651
0.23808396,-0.67660284,0.81199276,-13.055189,16.428957,12.505561
0.1771196,-0.756915,0.44737822,-13.496068,19.191189,13.005188
0.0,0.0,0.0,0.0,0.0,0.0
0.0,0.0,0.0,0.0,0.0,0.0
0.0,0.0,0.0,0.0,0.0,0.0
0.0,0.0,0.0,0.0,0.0,0.0
0.0,0.0,0.0,0.0,0.0,0.0
0.0,0.0,0.0,0.0,0.0,0.0
0.0,0.0,0.0,0.0,0.0,0.0
0.0,0.0,0.0,0.0,0.0,0.0
0.0,0.0,0.0,0.0,0.0,0.0
0.0,0.0,0.0,0.0,0.0,0.0
0.0,0.0,0.0,0.0,0.0,0.0
0.0,0.0,0.0,0.0,0.0,0.0
0.0,0.0,0.0,0.0,0.0,0.0
0.0,0.0,0.0,0.0,0.0,0.0
0.0,0.0,0.0,0.0,0.0,0.0
0.0,0.0,0.0,0.0,0.0,0.0
0.0,0.0,0.0,0.0,0.0,0.0
0.0,0.0,0.0,0.0,0.0,0.0
0.0,0.0,0.0,0.0,0.0,0.0
