ax,ay,az,gx,gy,gz
-0.7075248,-0.29590923,-2.080933,-1.9350618,0.66009724,-12.175633
-0.64601445,-0.24429947,-1.8225025,2.4336483,-3.749704,-16.807444
-0.32478884,-0.016390875,-1.8946731,9.232577,-0.775861,-15.788005
-0.19797774,-0.1648967,-1.9985902,12.652539,-0.30901217,-3.8158343
-0.46944204,0.0422088,-2.1696637,14.06897,-3.528393,-0.56706
-0.41115835,-0.4984123,-2.1146708,9.468607,-4.8848667,3.8920186
0.02004616,-0.0891183,-2.3913465,9.293884,0.30998814,3.5011802
0.11265862,0.043744657,-2.5924952,8.462713,-2.427478,0.8376615
0.028973727,-0.11350109,-2.6040735,4.118683,-0.6288507,9.293431
-0.6553507,-0.3072201,-3.0313675,7.98082,-11.199156,14.306893
-1.1539011,-0.5137932,-3.2068784,3.0951762,-15.84625,19.181664
-2.1532154,-0.8895942,-3.8054852,4.072174,-25.70438,22.638548
-3.272974,-1.5891317,-4.246051,3.515504,-29.276577,20.81831
-3.130034,-1.331938,-4.485571,3.9194767,-41.913754,20.443932
-2.426816,-0.62718385,-4.256453,-0.83874476,-48.83691,28.280125
-2.3704672,-0.24056526,-4.3249726,-9.10505,-49.085094,38.065067
-3.2791672,-0.72943634,-4.1891913,-17.731337,-53.366695,48.04449
-4.1291013,-0.99860454,-4.10316,-17.26384,-60.33016,48.832157
-4.02206,-0.14295977,-3.9321244,-18.16689,-76.75389,37.774666
-2.5514958,0.24972028,-3.3681808,-24.351994,-82.43783,32.252964
-2.470507,0.49642977,-3.3078678,-28.174257,-90.40435,31.648092
-3.7843387,-0.30435264,-3.457811,-30.782064,-104.072784,40.136738
-4.3146434,-0.86456096,-2.9568014,-36.545715,-129.60013,46.9155
-3.0701401,-0.70317346,-2.3731377,-39.441143,-145.40736,48.293255
-1.4182131,0.25320816,-1.5963123,-41.98432,-154.42271,47.5885
0.7123165,0.9217889,-0.6454536,-59.92565,-154.4336,45.11715
2.6076684,1.5266434,0.7464485,-71.8719,-147.10191,52.98055
2.0664392,0.58972126,1.3344319,-76.11417,-139.60011,56.410995
1.3008101,-1.130102,0.9208411,-69.58463,-143.97076,45.747833
1.9807899,-2.1499314,0.5090209,-57.861004,-144.46019,43.07603
3.6816328,-1.0072353,1.9437739,-56.631298,-135.07779,34.797005
3.6479,0.34478065,3.0497131,-69.797554,-117.49126,31.481668
2.704313,0.90178496,3.4645023,-81.68394,-109.37305,43.25614
1.2766436,-0.70565593,2.4944892,-81.53309,-109.61646,51.48291
2.0786006,-2.1133862,2.1509647,-70.71783,-109.74522,45.134827
5.660752,-2.38002,3.3086824,-60.010735,-98.25285,36.049816
7.496967,-2.0829015,4.4287405,-50.929516,-79.94769,31.073164
8.199727,-2.256785,5.429875,-39.47207,-61.21992,28.183382
8.231792,-1.9547882,6.005697,-21.059341,-50.380302,25.110159
9.057412,-0.971347,6.9908123,-6.861564,-40.371555,18.733091
10.973857,0.3794448,8.351729,-1.8234903,-8.203806,12.541686
10.8884735,0.4812402,8.936856,-1.7505164,20.940228,12.709348
10.458918,0.23648492,8.419802,-0.28714496,49.45405,18.570583
8.719562,-0.88414055,6.9756026,3.581131,72.30075,17.143213
7.81023,-1.853369,5.784027,9.81276,97.238655,15.344715
6.270253,-3.164683,4.3830075,24.473145,114.2129,9.531266
4.9941673,-3.1647012,3.7813323,39.48436,114.79863,-0.70305645
4.2065034,-3.27371,3.3526227,50.642666,124.453514,-5.202901
3.84359,-2.871035,2.8085256,58.17195,128.7851,-3.4042535
3.3804398,-2.3705432,2.3455179,53.60944,143.57768,2.2301812
1.572874,-2.6905918,1.4854798,51.483498,154.52321,9.337133
-0.44961917,-3.3738234,0.5381576,62.567703,139.36607,13.103867
-1.3784398,-3.843282,0.016964253,71.81656,120.25631,9.085448
-1.0016831,-4.1124825,-0.054038424,76.540054,117.83354,6.7487016
-0.5981463,-3.4450853,-0.17763047,87.8923,115.61449,1.8401303
0.25527182,-1.58505,-0.89157164,96.519936,129.66486,-11.92088
-0.16404137,-0.9682293,-2.0413148,92.60887,134.45728,-6.139929
-1.3772085,0.04848967,-2.9909027,87.0045,132.51382,1.7178866
-2.635459,0.8605317,-3.72871,85.8435,119.98851,-1.6335604
-2.918701,1.703884,-3.862818,76.23476,96.158,-6.137852
-1.1593628,2.1405625,-4.274381,69.030174,90.208015,-11.755457
-0.27110234,1.4071662,-5.2195306,57.315327,84.25365,-4.3232856
-0.1337186,0.46733695,-6.1689534,55.92947,74.60819,-4.3696547
-0.2536232,0.07393279,-6.237282,62.898205,66.94573,-15.334711
0.50895643,1.1364356,-5.633944,65.32016,65.30419,-28.13127
1.0605825,2.5818777,-5.122006,56.38092,65.95037,-27.664053
0.23322095,2.9957092,-5.5049872,48.154827,67.54746,-28.048307
-0.3573422,3.8284404,-5.478677,45.709076,59.08345,-39.73379
-0.17199278,5.133592,-4.9080315,34.23727,50.52163,-46.731163
-0.09110589,5.9223423,-4.704162,16.041487,48.318314,-41.831272
-0.273098,5.947351,-4.6231813,-6.8519936,37.758347,-38.119072
-0.16216087,5.6804843,-4.540731,-18.763279,29.114004,-44.04839
-0.066943645,5.3262544,-4.337173,-27.359331,22.121704,-55.658905
0.5709548,4.791915,-3.7614818,-30.987177,19.479288,-66.44297
1.2112699,5.2855673,-2.8818164,-36.329853,10.573511,-92.37733
2.8203514,5.679057,-1.4852011,-41.431442,16.444279,-106.69601
3.6530793,6.1757383,-0.3373947,-46.670094,19.714113,-117.857155
4.141165,6.208381,0.45977905,-61.7377,28.321756,-127.56936
4.5596924,5.9158072,1.1220546,-75.93253,35.16398,-131.2401
4.1407056,5.0045304,1.1935354,-95.494064,45.45385,-131.57896
2.1849253,2.6702874,0.492555,-105.8668,46.788128,-125.73
0.4098763,-0.2777029,-0.6913137,-111.95525,40.47808,-120.2527
-0.9822749,-3.9370987,-1.289788,-96.45762,38.49403,-131.05223
-1.9576474,-6.5986967,-1.1566864,-73.20617,32.41847,-145.17302
-2.9084413,-7.5856376,-1.3478794,-51.816116,25.41381,-143.3821
-3.5238297,-7.923005,-1.0190939,-36.41192,4.4581237,-132.12137
-2.7816007,-7.297778,-0.6474701,-28.470085,-3.9846861,-118.95647
-1.6448122,-6.960404,-0.603787,-27.473516,-7.293825,-94.712814
-1.399369,-6.83234,-0.69262415,-21.06553,-8.668983,-69.12881
-1.5732123,-6.3972325,-1.1408415,-16.488012,-5.702825,-52.469135
-1.8316922,-6.4481173,-1.773218,-4.3066883,-5.7091646,-43.742054
-1.7953489,-5.681968,-1.9317918,9.407398,-7.702198,-43.91986
-1.418858,-4.6319027,-2.5947995,16.750397,-12.791517,-34.092594
-1.5984162,-3.7558792,-2.7703228,18.129215,-14.679866,-23.322474
-1.8104849,-2.4357367,-3.2387693,17.559368,-24.395256,-13.059215
-1.5152144,-0.73819184,-3.4771664,9.885847,-26.604132,-5.9733586
-2.305474,-0.21325122,-4.187672,5.996041,-27.988607,3.9768863
-3.2145731,0.06457421,-5.1872473,3.6142888,-38.659878,6.9845324
-4.171205,-0.5820608,-6.1333,0.92998105,-53.74069,9.14649
-4.7805896,-0.91383785,-7.1810503,0.23616326,-65.61184,8.662943
-5.440974,-1.4742147,-7.625489,4.8608522,-94.281746,1.6491027
-5.265888,-0.7692623,-7.2981663,10.515256,-117.45757,-5.269468
-4.5428185,0.13720632,-6.8172073,-1.0009288,-130.42726,0.6334945
-4.549798,0.62669617,-6.812117,-10.79482,-147.68567,14.07498
-5.000287,0.17079566,-7.0202527,-13.613994,-175.2304,17.785973
-4.477038,-1.616776e-05,-6.702781,-14.695333,-195.88931,9.407401
-2.973189,1.0993162,-5.4163423,-12.819393,-212.1367,2.6201127
-0.7633609,2.7543797,-3.7296283,-28.65632,-216.96729,0.93992376
0.87764937,2.9870806,-2.4764664,-57.341072,-218.17784,19.221415
1.9762613,1.1168535,-1.7181143,-71.93741,-224.29573,21.414188
6.1741242,-0.92740214,0.35671794,-65.274216,-217.71573,10.303192
9.460965,-1.431426,2.335405,-65.154915,-189.33838,7.060538
10.242407,-2.2030869,4.180243,-69.036415,-156.11642,18.310493
9.150348,-2.7555969,5.682213,-70.19733,-134.12633,25.222954
8.742024,-2.5998647,6.6956387,-67.79031,-113.17433,26.810835
8.820668,-2.7996328,7.802875,-63.977863,-79.28123,41.931465
8.765663,-3.592493,8.033525,-58.363556,-55.24128,49.509125
8.168445,-4.9114375,7.884383,-46.74793,-29.300257,51.64823
6.897302,-6.045109,7.340436,-24.649199,-11.168056,49.51254
5.3541846,-6.069386,6.867356,17.275263,-3.0330722,38.52873
4.642626,-4.7451696,6.6509037,38.66625,4.5829773,39.400684
4.6518297,-3.3139114,6.1972895,43.44775,12.300445,47.56459
4.1190505,-3.3270187,4.9626894,42.02119,29.546896,63.892956
2.698293,-4.784077,3.3480115,43.04158,39.97412,80.99613
1.2712777,-6.71092,1.6089653,72.84989,38.810482,79.23065
-0.29397634,-7.804024,-0.116955474,94.95807,36.561275,72.12889
-1.5329592,-7.6490073,-1.0215173,116.58721,30.030884,72.7808
-2.3699162,-6.8375053,-1.7245228,131.17992,13.746466,81.82545
-3.0344582,-5.3127313,-2.2177253,136.82014,5.0261765,94.36285
-3.143932,-4.2891283,-2.5702932,143.91896,-4.147289,97.7169
-2.1700532,-2.2449033,-2.4007654,150.24767,-5.434203,104.50313
-1.0052148,-0.43374887,-1.9518982,147.7893,-1.2719007,108.06686
-0.53268766,0.4932941,-1.8759102,145.82466,1.6629925,106.68504
-0.97856665,1.1889125,-1.9178988,144.18416,5.7471924,99.30928
-0.9376556,1.6397853,-2.078963,138.45834,5.6413326,94.51752
-0.57123405,3.3124716,-2.0428393,133.55841,-0.5046649,80.24401
1.3249928,3.776685,-1.7316422,112.92505,1.0276338,79.33327
2.9618611,3.9605768,-1.3550395,96.93012,9.080138,87.04299
3.3610768,3.5393572,-1.4786584,81.58233,18.749844,95.68196
2.7661316,3.6088498,-1.6170503,80.12586,29.07404,75.800766
2.0140204,5.180118,-1.8904446,78.40617,25.657488,59.200848
1.5494207,7.005284,-2.3401651,66.57639,22.345566,47.83485
1.1781702,8.1571865,-2.6021621,46.3218,20.347279,41.33227
1.0236496,8.268561,-3.0611117,26.429853,12.939483,30.760578
1.343065,8.245043,-3.3259785,8.771715,2.7223988,17.949749
2.0459034,7.966785,-3.356012,-7.489957,-4.462697,6.982934
2.8673217,7.999413,-3.1522584,-18.442286,-1.26346,-8.853941
3.1058698,8.267544,-2.7364984,-33.495033,0.15203908,-19.332817
3.1354141,8.761395,-2.4502506,-52.229626,4.221719,-31.640125
2.9530668,8.952297,-2.0244255,-73.38145,6.463573,-45.482307
2.6640084,8.598177,-2.1410534,-87.50711,7.9701676,-57.786808
2.5941622,8.168656,-2.2298186,-101.45556,7.1288857,-70.240295
2.3751605,7.65188,-2.3966668,-116.73048,7.8072386,-79.601105
2.7686179,6.722833,-2.2758474,-126.58532,8.326905,-95.21103
2.971442,5.793941,-2.6126857,-142.58856,16.881071,-114.598625
2.572451,4.934417,-3.073606,-147.8892,20.032185,-119.06396
1.6450542,3.9168873,-3.361612,-155.81535,15.784134,-129.71826
1.5151438,3.0972917,-3.510337,-157.70361,13.350515,-141.96245
1.6562564,1.7112823,-3.5296826,-163.9887,11.992828,-149.06061
1.1318679,0.6984539,-3.5668185,-168.4857,2.5076928,-153.01584
1.0781972,-2.252196,-2.8989015,-172.47404,-12.308156,-149.92094
1.5236603,-4.492062,-2.2909122,-168.4244,-15.469711,-148.19939
2.361906,-6.564856,-1.5787196,-158.41484,-16.724478,-136.61136
3.2496476,-8.157544,-1.0440893,-147.92392,-8.216815,-123.09204
2.9903893,-9.25936,-0.4600344,-132.21756,8.384403,-99.61424
1.5864668,-10.180065,0.20601532,-106.76864,13.120683,-88.92586
0.40250963,-9.5943775,0.5353707,-85.5354,14.129722,-70.177025
-0.41516426,-8.955216,0.76091695,-74.26317,11.653241,-54.229958
-1.0244308,-8.580679,0.8505009,-61.83415,8.782796,-42.08199
-1.24311,-8.650803,1.0225306,-40.909794,11.395168,-22.504696
-1.4974973,-7.6331134,1.1465889,-20.668667,14.416098,-9.350975
-2.0562153,-6.8122745,0.9875645,-1.7586268,6.5493865,-6.4512258
-1.6366247,-6.2366796,1.3541915,7.132946,0.3949436,0.7200619
-1.1350735,-5.5290236,1.4237412,13.837508,-1.5444883,11.4465685
-0.9781386,-5.3341355,1.5018172,22.04939,-2.9472032,22.17889
-0.21419048,-4.739294,1.8329498,30.028433,1.4261596,29.772655
0.48855656,-4.7692795,1.9107841,36.840065,5.2647104,43.65447
0.0,0.0,0.0,0.0,0.0,0.0
0.0,0.0,0.0,0.0,0.0,0.0
0.0,0.0,0.0,0.0,0.0,0.0
