ax,ay,az,gx,gy,gz
0.019914865,0.14212486,-3.243639,26.27192,-0.65809786,-12.838947
0.55796325,-0.09906017,-3.6788082,29.011192,2.2165396,-8.693668
0.33042315,0.50716764,-4.164799,19.964909,3.3579645,-3.4997892
-0.62781954,0.61632556,-4.6536303,15.433674,1.5822483,-5.9232483
-0.94917816,0.36979488,-5.0574355,13.538174,-14.164066,-1.072283
-1.1465273,-0.24570945,-5.3701653,4.665171,-16.102919,11.973715
-1.7645386,-1.1819458,-5.592904,0.8717028,-20.503092,28.289371
-2.748491,-1.469568,-6.503093,-1.3099582,-33.876373,32.31815
-2.8486679,-1.7197882,-6.9885583,-1.5928106,-44.375088,33.229084
-2.8010352,-1.7738676,-6.805035,2.1405253,-52.112827,29.292467
-2.9732492,-1.0271327,-6.3090663,-0.71583146,-63.051853,32.267864
-2.586441,-0.47100192,-5.8210564,-13.80047,-71.62048,45.64966
-2.7615237,-0.2674635,-5.515346,-22.61289,-81.49335,54.640724
-3.046128,0.048977192,-5.3130584,-32.92665,-93.5809,58.654797
-3.0836868,0.112056136,-4.836244,-32.743988,-106.6376,51.504196
-2.5929124,0.29327285,-4.0729713,-33.668472,-115.47684,47.75436
-2.3214068,1.0482877,-3.3786957,-42.806835,-119.19983,52.127163
-2.6057427,1.3097931,-3.1679661,-56.031387,-128.78311,56.7938
-2.3081217,1.6889504,-2.480373,-69.57101,-143.07579,57.14206
-1.0621347,1.6573588,-1.4658511,-81.05102,-153.58182,53.641136
0.5728922,1.1384035,-0.41444424,-86.290886,-154.55176,45.3518
1.7577096,0.89019847,0.81629753,-88.57656,-151.67758,43.985107
1.6520015,0.3106262,1.1880461,-93.22517,-148.36357,46.65567
1.9725243,-0.48778644,1.5648079,-91.04597,-151.4965,38.028996
3.543034,-0.66207755,2.6329677,-85.55378,-151.54745,17.850325
6.655976,-1.2476493,4.2929635,-79.026245,-133.84871,12.366337
7.2953415,-1.5429453,4.857276,-77.94205,-118.88126,20.052645
6.8022256,-2.4368749,5.2818074,-63.976757,-107.27718,19.795301
6.507586,-2.7982454,5.737021,-55.045563,-95.69877,17.57766
6.4092746,-2.8098564,5.8605366,-39.148132,-74.85587,13.145949
6.0997677,-2.8106735,5.76517,-26.808008,-60.835793,16.308102
4.969143,-2.4140255,5.258179,-15.056079,-48.55382,14.907834
3.9482656,-1.6021187,4.908093,-9.04076,-40.51415,11.7615385
3.4388804,-0.6543378,4.69988,-3.3892517,-36.68558,10.155864
3.2037864,-0.18084139,4.2259483,1.6974134,-26.174088,5.8965645
2.8313303,0.2818026,3.931496,4.4787364,-17.432442,1.0060289
2.58152,0.5542331,3.4029393,4.245079,-4.9133053,0.8526125
1.7022803,0.60440135,2.6916966,3.085926,-0.52198184,1.0692823
0.9920521,0.12827544,2.0145955,4.359881,2.4232447,1.8381066
0.7059933,-0.08187306,1.5337788,5.4874444,1.961184,6.4758434
0.47273633,-0.4068701,0.98918766,3.8480911,0.86042774,11.275391
0.34292936,-0.47011095,0.89015496,6.223934,3.333045,11.230011
-0.022043787,-0.22599588,0.73306155,6.079732,8.435081,6.0086083
-0.13147184,-0.051375154,0.73641115,6.7722406,8.725014,8.039627
-0.44954202,-0.30860984,0.55703366,7.060912,10.72405,13.19233
-0.7950904,-0.23407353,0.5493816,5.407393,7.119711,11.485884
-0.8204197,-0.27786458,0.4745465,10.926095,8.220846,8.430452
-0.8725706,-0.073492035,0.62045103,15.9225445,4.0273046,4.471135
-0.59155816,-0.006567374,0.7880019,19.580502,3.1800935,3.5805187
-0.24557967,-0.12834287,1.104701,18.778942,2.4455957,3.1985488
1.1755985,0.09919141,2.1223226,12.816734,4.2016706,9.220531
2.0075147,0.06339877,3.0023181,11.79512,7.9732914,12.973152
3.379118,0.30507746,3.8652449,12.271335,18.76537,12.673333
4.2128434,0.6624276,4.636031,13.327732,29.63358,6.6019025
4.9111834,1.1561811,5.4743304,17.213257,49.135628,0.91686696
4.9768734,1.2097819,5.522421,18.01697,65.30673,-2.190701
5.048385,1.2615542,5.7111783,19.379763,76.37554,-3.9806383
5.3977084,1.1800426,5.494091,17.517345,91.00543,-7.877981
4.986877,0.4447724,4.7552047,17.837877,105.44658,-9.185009
4.156276,-0.6099772,3.8861377,31.287182,117.28778,-23.012367
3.2491708,-1.6395307,3.067541,41.152668,123.585526,-37.39479
2.3510232,-2.1856656,2.5052764,49.403927,125.59281,-36.567753
2.110596,-2.6662762,1.876913,52.85134,123.149185,-34.65695
2.5904377,-3.193451,1.1914675,54.33795,125.91032,-28.641047
2.227115,-3.5355997,-0.039389126,67.57318,131.26328,-31.559275
0.86576915,-3.7388082,-1.2071668,81.70339,126.62056,-38.50737
-0.25316516,-2.862848,-2.0433059,86.99267,119.834404,-40.46382
-0.5356207,-1.830168,-2.4287913,88.7137,109.42049,-38.406906
-1.0107604,-0.6612396,-2.872194,83.36124,97.65912,-39.724434
-1.4385332,-0.30137557,-3.3825412,71.16009,85.37192,-35.715637
-1.268627,-0.80847764,-4.0365505,63.4759,83.699524,-26.91874
-1.9207588,-0.88025546,-4.525846,59.311935,76.279915,-20.92966
-2.1823897,-0.7957331,-4.842761,55.831955,63.21235,-18.285313
-2.4521272,-1.0888264,-4.6597223,54.50544,52.16128,-14.729758
-1.714013,-1.098721,-4.1501513,55.563084,44.55066,-11.845169
-0.74309766,-0.7909794,-3.9349217,57.611473,41.51927,-10.991862
-0.26269478,0.039072175,-4.1140375,55.5246,38.116325,-10.244332
-0.19581193,0.69979644,-4.149977,48.889744,38.236897,-7.6254864
-0.99003595,0.45495534,-4.4650626,41.84738,35.246258,-2.19986
-1.8066086,0.6453128,-4.374445,37.19141,22.802172,0.9541327
-1.354657,1.5125933,-4.0659995,35.332577,12.364333,-1.514407
-0.5671768,2.3798342,-3.3558104,33.619957,10.583944,-10.792926
0.1178732,2.856729,-2.9616573,32.064327,13.772024,-17.775198
0.04724129,3.4442973,-2.8121424,25.395721,12.541616,-22.9667
-0.007670127,4.4033504,-2.71997,14.970417,15.201949,-31.303097
0.18975526,5.150474,-2.1806836,2.607271,14.220607,-32.22558
0.2795211,5.5990047,-2.0420542,-6.873812,8.035261,-36.29485
0.5487395,5.580342,-2.0272837,-23.075615,8.109743,-39.69538
0.76272047,5.2499514,-1.9980277,-29.861395,10.763046,-40.826656
0.63955104,5.3602886,-2.216803,-42.37136,7.517846,-50.67161
1.5040997,5.255843,-1.5239881,-50.530445,10.487087,-63.277138
1.9373176,5.3625755,-0.80039644,-54.59898,8.811253,-76.24288
3.030224,6.171132,-0.027928546,-63.831615,17.322437,-93.85975
3.5903656,6.6206894,0.26492533,-74.40241,23.159496,-108.85572
3.878484,6.3537784,0.16261426,-98.08703,37.839146,-116.95827
3.0050797,4.547577,-0.39564845,-115.66567,43.700306,-115.9462
1.578839,2.1870918,-1.2538022,-124.89155,44.25118,-105.0695
-0.1797362,-0.83707845,-2.696981,-126.71125,35.485413,-101.19282
-1.6373067,-3.9981222,-3.7022057,-111.977455,23.123161,-107.09242
-2.1236575,-5.840873,-3.7071936,-78.30575,6.923327,-124.06421
-2.2782958,-6.5865636,-2.9240677,-64.76566,-2.0111294,-117.52672
-2.2583463,-7.1824036,-2.1301033,-56.866703,-14.470133,-99.22406
-2.306851,-7.543701,-1.4692874,-45.806942,-18.821716,-81.55908
-1.7028325,-7.060408,-0.5877864,-34.982338,-26.053465,-68.09299
-0.72670585,-5.9301305,0.51869076,-26.82928,-21.501112,-60.692917
0.16647966,-5.471967,1.1268202,-17.61329,-12.127271,-50.873356
0.094274595,-4.6212196,1.4075099,-12.641778,-5.4814777,-44.126842
-0.23929343,-3.9771512,1.5162072,-10.13663,-0.68922675,-33.358837
-0.6350731,-3.5157304,1.3254167,-7.520354,0.20309329,-27.36239
-0.83109003,-2.922432,1.1879816,-6.740754,5.49977,-16.981918
-1.1290891,-2.7418284,0.3362258,-1.7187327,4.608449,-8.988575
-1.2887013,-2.4869943,-0.3258976,2.5527153,4.869311,-9.570485
-1.4512825,-2.2554653,-0.68801457,3.2899308,6.2875204,-6.5865
-1.7313813,-2.0757964,-1.2784451,10.213345,2.419532,-6.740342
-2.0510669,-1.3747344,-1.7213535,13.749912,-4.735256,0.026461601
-1.842712,-0.90571135,-2.2849543,10.766824,-11.631721,1.8977033
-1.8561094,-0.74172235,-2.678586,10.277205,-16.033506,6.3129606
-1.74268,-0.29279009,-3.2196615,6.868427,-20.255262,5.6857166
-1.4697405,-0.087091185,-3.8219829,3.5394118,-22.960135,10.778631
-1.56894,-0.17104296,-4.4892387,0.9846093,-28.872478,14.938336
-2.6228044,-0.4941043,-5.5789604,-3.8937333,-36.747086,20.242456
-3.321265,-0.9728938,-5.986693,-2.6231093,-47.04203,19.90288
-3.5805845,-0.70584196,-5.8633647,2.6370912,-64.38065,13.137071
-3.2521408,-0.19990242,-5.616852,3.5467834,-73.85672,10.82976
-3.4470208,0.5800405,-5.644193,-3.3068047,-92.08631,19.813202
-3.753018,1.3771203,-5.8935766,-14.839335,-107.377144,24.22963
-3.9172828,1.5730796,-5.5101476,-23.181564,-121.58237,22.878872
-3.0568402,1.6873099,-4.6211615,-31.785488,-133.61601,19.325354
-2.3821564,1.821093,-3.777719,-41.058525,-143.50755,18.861687
-2.1930883,1.639941,-3.2892008,-56.93169,-154.27223,22.025747
-1.1043985,0.9967511,-2.0604637,-64.82637,-165.56473,21.839746
0.12505856,0.35386547,-0.47382343,-69.698685,-169.75784,21.047132
1.5846033,-0.06630057,1.2202339,-73.06605,-167.66891,19.157995
3.0024505,-0.8880249,3.1000123,-68.78992,-157.0036,16.66597
4.7022367,-1.073484,4.9734726,-61.0895,-138.13551,6.4233103
7.4057083,-1.7336471,7.245003,-57.21761,-120.09341,2.5986288
9.509756,-2.1142128,8.984235,-45.526398,-93.45678,2.4989657
10.194908,-2.4408681,9.95529,-44.240486,-59.355007,7.565297
9.396083,-2.742461,9.97609,-41.409832,-31.974295,15.512523
8.433161,-3.1616962,9.603798,-36.36068,3.9859142,24.248747
6.277835,-4.270488,8.247068,-23.514153,17.476013,22.475912
4.512289,-4.8194227,6.717239,-9.088698,34.82358,25.461632
3.0411363,-5.332285,5.0965567,3.5581608,38.19923,29.264278
1.4026703,-5.640991,3.7117324,18.698046,38.901524,35.28941
0.03463793,-5.7229323,2.0165753,34.5865,35.439358,41.998943
-1.0600444,-5.8009396,0.8699126,43.989735,31.045427,48.92599
-1.5868741,-5.7921877,-0.010661975,54.302948,25.373724,61.72535
-1.49109,-5.773355,-0.33349788,65.71281,16.442127,71.95114
-1.3326966,-5.636521,-0.9073199,77.783516,12.429155,79.50354
-0.8453499,-5.0900884,-1.1310731,90.77605,6.259665,91.33995
-0.7651252,-4.440851,-1.6666541,96.26213,0.021459103,95.542274
-0.6145514,-3.787321,-1.4887277,102.63043,0.095957994,103.36963
-0.4438636,-2.9515836,-1.4694462,105.93852,1.5648202,110.893684
-0.48333606,-2.246471,-1.4972396,110.09422,-0.44592324,117.317535
-0.39439797,-1.3149626,-1.6271266,108.847305,-3.933151,118.863106
-0.12579551,-0.2600311,-1.753381,108.350914,-4.4743643,120.12471
-0.4517962,-0.014244229,-2.034995,107.53096,-3.3622677,118.19829
-0.1929954,0.8268768,-1.9769005,103.19814,-4.32092,121.21857
0.13356803,1.7822195,-1.5076581,101.032234,-6.997217,116.31815
0.64783025,3.1536438,-1.3548836,88.82393,-2.0961418,113.09948
0.1697067,4.1642795,-1.5348845,79.80074,3.7467618,108.65234
-0.6083318,4.2439394,-2.2903545,69.07836,-2.0654354,102.18578
-1.090969,4.048935,-3.2497582,68.18252,-14.345602,87.48915
-1.0697088,4.105511,-3.1739883,65.20269,-23.097713,70.87933
-0.4936598,5.272418,-2.9920166,61.216805,-34.53609,46.55467
0.9805968,7.049044,-2.3893566,48.08407,-34.02355,39.62072
1.4731364,7.844682,-2.2920072,29.842186,-33.100178,34.318363
1.7306956,7.835412,-2.298119,16.339714,-36.6907,25.00565
2.6886883,8.178255,-2.033049,4.5872955,-41.560898,16.088718
3.779528,8.06763,-1.7549396,-8.387658,-37.60163,3.0938253
4.618991,7.962491,-1.4560599,-28.27068,-25.946314,-13.88669
4.7997994,7.963808,-1.2189238,-42.909256,-17.865782,-18.971344
4.5439367,7.753476,-1.3707289,-57.482185,-10.676857,-31.97712
4.0737324,7.090022,-1.4434146,-68.58586,-6.3481965,-42.60487
3.6164377,6.6035614,-1.8672534,-81.808815,0.40419626,-54.571392
2.743552,6.085336,-2.1789484,-94.28177,-0.7028594,-60.042053
2.4919493,6.2682767,-2.292815,-104.20717,-3.6692684,-71.00364
2.7016823,6.0191135,-2.2968633,-117.47177,-3.5748053,-76.10861
2.9345145,5.8357553,-2.4556649,-129.57817,0.28649306,-86.75844
3.3702123,5.639893,-2.24881,-140.6312,7.122375,-104.7909
