ax,ay,az,gx,gy,gz
-0.8343351,-0.5322446,-2.531317,-0.8730147,16.363695,-20.313692
-0.6990481,-1.1160163,-2.5528781,-2.2237623,17.93681,-15.612819
-0.69968534,-0.996422,-2.4726105,7.1832113,12.190203,-12.629104
-0.37711337,-0.6579731,-2.4697714,8.0303755,9.811651,-11.5561495
-0.38318217,0.024286054,-2.2012033,6.2030535,16.671282,-6.4251304
-0.6132819,0.4498185,-2.5277188,6.561906,9.169657,-9.175884
-0.9034837,0.559003,-2.4343317,8.785273,3.478275,-13.69409
-0.79843676,0.38295865,-2.5438387,2.8386457,0.33173513,-8.1964855
-0.6143617,0.19131681,-2.262156,-5.0009265,-0.478372,4.6427193
-0.6357634,0.4127163,-2.2241921,-9.667706,2.030506,7.4733076
-0.8977388,0.8360699,-2.4738464,-7.880287,2.2012854,0.6335852
-1.9314891,0.9178073,-2.99235,-6.2602105,-10.535693,-6.1527863
-1.9917982,0.64382875,-3.3967357,-9.59645,-24.797678,0.9156735
-1.716069,0.20429453,-3.7845461,-19.08365,-33.643387,6.9166613
-1.5024917,-0.95305353,-4.4456897,-27.96288,-37.351276,23.946234
-2.3487356,-2.199272,-5.1789207,-30.220785,-39.58341,26.598835
-3.7615216,-3.4549694,-5.913631,-18.868046,-55.1459,29.526663
-4.4994445,-3.6041756,-6.3186126,-15.363549,-72.80868,31.685915
-4.7331243,-2.5786529,-5.6813884,-7.0917025,-98.016914,33.29107
-3.6472406,-0.21243152,-4.7544174,-15.382834,-110.32443,33.503086
-2.7667055,0.9604852,-3.9158385,-30.049015,-123.90938,37.957375
-2.6993725,0.7512084,-3.7464583,-46.55369,-126.17387,46.4841
-3.2296937,-0.47689778,-3.499985,-55.4031,-137.25952,56.878345
-3.752016,-1.3815881,-3.7949543,-51.76767,-162.643,56.092476
-2.7498648,-0.69769263,-2.401223,-48.59347,-179.46754,45.21217
5.4906516,-1.3367944,2.5173018,-75.720116,-171.54355,31.963331
7.4114604,-0.5261734,4.245327,-74.91324,-129.61757,37.726562
6.3964763,-0.43729255,4.236645,-75.97322,-107.84466,37.449913
5.3326635,-1.6245852,4.250133,-63.170715,-98.13252,22.057701
4.934974,-2.890188,4.5870485,-53.992847,-89.57158,21.160429
4.4561577,-3.831491,4.646685,-24.503536,-75.02589,15.641383
4.047363,-3.494262,4.7736764,0.49788558,-58.018528,9.674638
3.8789124,-1.6582298,4.775416,16.090683,-48.66514,1.3541269
3.5714908,-0.24621111,4.8113546,18.359415,-45.60461,-2.13553
3.4200728,0.23061825,4.619337,17.637402,-34.486927,-1.1852894
2.5411456,-0.021558063,3.3692777,5.1557264,-17.1734,-3.0679188
1.8210266,-0.49184355,2.1690276,3.967464,4.8538065,3.6235068
1.2331183,-0.11435203,1.5737653,-3.0460277,8.853999,9.001193
0.42506385,0.48299962,1.289712,-8.699777,14.334393,12.429997
0.1940186,0.14512208,1.4850124,-11.635458,13.059775,13.281015
0.56097305,-0.31948733,1.7347975,-12.652057,6.2828546,16.281021
1.3573195,-0.78620386,2.377716,-10.264355,13.480292,20.95104
3.1054418,-2.0150576,3.1829646,-3.1515198,22.64583,18.404804
4.1256313,-2.5423515,3.867935,7.920846,25.29706,16.850754
5.5598903,-2.490841,4.6055436,17.213703,38.73012,20.753008
5.7749314,-2.0323212,5.538709,21.1952,56.921215,22.422388
5.394616,-2.016583,5.9416685,26.61116,79.129364,18.741198
5.1863775,-2.3558512,6.038944,34.05442,91.874985,20.17461
5.194303,-2.2496703,5.4209857,44.09897,108.1866,18.258532
4.8904667,-2.3627365,4.2763352,55.82152,120.09467,10.280463
4.134568,-2.2051096,3.6003602,63.352985,135.82935,4.5209985
2.6577914,-1.9966162,2.9893289,66.40017,142.4708,7.882739
1.4085916,-1.8127217,1.597699,64.87681,148.98776,9.8642025
0.2895801,-1.5332607,0.30300787,67.01043,147.7658,10.311879
-0.50736064,-1.772384,-1.000194,70.647934,143.769,8.945323
-1.3394784,-2.0951269,-1.6744816,77.1219,136.08139,2.8771822
-1.512979,-1.7827326,-1.7759688,95.26837,127.8394,-16.765596
-0.6714076,-0.7300736,-2.5551214,87.34887,119.57483,-13.693249
-0.17137949,-0.47287703,-3.55068,78.58507,123.22832,-0.14379704
-0.918364,-0.13866894,-4.360421,70.64995,114.47626,3.7772608
-1.2065051,0.08466779,-4.835039,59.199776,108.50992,6.171514
-1.2564341,0.13029242,-5.1635447,51.22072,93.78546,10.00965
-1.3728317,0.5762915,-5.635808,51.13609,83.9292,5.7837024
-2.0069625,1.133894,-5.592195,57.83569,66.58566,-0.6802399
-1.3545982,2.8540077,-4.9244113,55.215546,52.272675,-17.32513
0.027516656,4.4605374,-4.849872,38.814068,40.462097,-28.556501
0.58305645,4.528879,-5.1548133,32.87918,39.48893,-28.700684
-0.31410745,4.078081,-5.409028,47.404305,9.26221,-61.67882
0.18102652,7.172715,-4.2026944,50.24474,-6.5936117,-93.94432
2.6057394,9.688163,-2.584771,28.291058,-12.831088,-105.099625
4.147831,10.887859,-1.6803373,-8.808149,4.248614,-95.09567
3.326586,9.805296,-1.7547214,-41.96879,19.310331,-91.98814
1.4829893,7.3807344,-2.3223279,-71.34139,27.798943,-99.959526
-0.5867105,3.8307834,-3.0366876,-79.72953,19.266083,-105.2197
-1.8903552,1.6615695,-3.2426572,-77.6391,8.643675,-115.664345
-2.524616,-2.4090178,-1.2051109,-74.37487,-7.7036777,-120.15036
-0.8919044,-4.285422,1.6961708,-65.641594,-2.1216655,-121.94387
0.040624164,-4.629941,2.289837,-61.13325,7.5443616,-114.109184
0.48502243,-4.834098,2.2804713,-44.392864,5.645437,-108.51306
1.1246504,-6.210786,2.458184,-43.117363,8.947089,-86.87854
1.2574009,-6.7715483,2.058188,-42.51574,13.126651,-65.61839
1.4118807,-7.054075,1.3544648,-41.538475,30.210882,-44.422493
0.4270423,-7.9855986,0.11497114,-30.14677,32.711243,-31.839846
-1.2462918,-7.797991,-1.3303969,-6.1746416,26.453655,-22.635632
-2.6489434,-6.889487,-2.0523589,4.040123,18.572887,-13.198558
-2.921527,-5.7106023,-2.4030786,10.091985,8.772947,1.5068748
-3.387813,-4.3810368,-2.9811811,16.227697,1.7619686,10.0339155
-3.91761,-2.9018927,-3.333029,21.008215,-8.906643,16.20691
-4.2906575,-1.3451307,-3.783236,22.60867,-31.489077,20.332348
-3.9427352,-0.09081675,-4.5197587,15.930217,-46.413353,21.745459
-2.9085412,-0.0008922033,-4.935166,7.4367385,-61.507607,25.141937
-2.427885,-0.14388105,-5.4409857,0.21854556,-68.12379,30.12917
-2.5760581,-0.28412536,-5.9928737,-0.71937346,-69.63633,30.394674
-3.7107296,-0.12229174,-6.324509,4.7286663,-86.5694,28.7494
-4.98096,0.87958395,-6.2675214,6.550645,-98.58345,25.678871
-5.407502,2.3191364,-6.086561,-5.317828,-115.79762,26.031672
-5.9231315,3.318912,-5.9051433,-22.359825,-134.27005,24.084053
-6.6649227,3.7957542,-6.22312,-28.549707,-152.47554,16.404652
-6.5681663,4.116971,-5.9968452,-44.960835,-182.11966,3.9890485
-5.0544214,3.8745837,-5.7215056,-57.762634,-205.51129,-2.0190387
-3.1119215,2.9435575,-4.9138236,-72.39214,-219.2779,-10.318758
-0.5853828,1.2578298,-3.9389515,-78.55204,-228.30994,-8.36237
2.3560412,-0.05906892,-2.378806,-80.8321,-224.82336,-11.995113
5.567322,-1.2291044,-0.8142706,-82.43523,-215.66985,-9.383217
9.0855665,-2.7955005,1.7064116,-84.517914,-190.56659,-1.2737997
11.269172,-4.1423097,3.7072258,-86.39166,-156.40173,7.8203516
12.444323,-5.0499506,5.509422,-83.04951,-126.465546,20.362356
12.891466,-5.8740993,7.1513705,-74.37936,-88.218994,33.164284
12.152238,-6.6226034,7.953108,-51.34255,-46.17739,43.078346
10.04173,-6.92832,7.957426,-25.740595,-17.643745,43.84709
8.142245,-6.551503,7.508207,-0.36874497,-3.727039,40.545807
6.379841,-5.9492764,6.812246,20.006771,12.110682,40.12183
5.129258,-5.077783,6.153937,38.111866,26.028683,45.198875
3.9863994,-4.6315417,5.1498137,57.703323,35.30592,50.774464
3.0019326,-4.4590173,3.474122,65.08162,40.24469,55.69552
2.4165587,-4.5894613,2.2946217,75.60314,42.147945,64.609436
1.0507332,-5.022016,1.1762607,82.251945,43.23617,75.00177
-0.025367439,-5.4883623,0.10421108,94.655235,40.08391,83.22531
-0.72326744,-5.3600397,-0.5984937,109.82922,38.246284,95.95704
-1.0166694,-4.536268,-1.3515958,116.95656,37.23126,104.88185
-1.3443311,-2.9995449,-1.7470418,116.81685,37.17453,111.330246
-1.7838453,-2.0848012,-2.0674736,122.466515,32.12933,110.91301
-2.0728338,-1.0379851,-2.1597662,125.981895,26.10462,109.31437
-2.115849,-0.18245547,-2.0754242,117.48186,14.394584,116.016685
-1.7905087,-0.1140197,-2.6627553,117.53481,11.188919,114.31641
-1.4973716,0.48064482,-2.5813084,122.32699,5.457094,106.69152
-0.925355,2.0608068,-2.1844049,121.35027,6.871026,99.283745
-0.5149337,3.941083,-1.7372562,107.18578,9.696395,92.37503
-0.31381306,4.9928126,-1.6979045,83.46315,12.667699,84.92892
-1.2138679,5.1037326,-2.0285892,74.67843,4.5421658,78.98555
-1.73438,4.259644,-2.7113528,60.753376,-13.1537895,66.65412
-0.4224009,3.4902234,-2.8185694,59.004803,-27.354961,56.991837
1.8537534,4.0454607,-2.3353057,56.092186,-24.255625,51.28385
3.6144109,5.6021147,-1.6301984,37.802277,-9.816255,44.145927
3.1001282,7.53717,-1.5200629,21.425978,3.5471606,35.60107
1.5166167,8.887153,-1.6332474,9.436499,-2.4089806,16.414698
1.0256102,9.945438,-1.4859092,-6.220206,-12.250558,-5.2668695
1.3523751,11.245191,-1.3438644,-26.00803,-14.26508,-27.700342
1.9998461,11.088285,-1.0238819,-55.59108,-16.88662,-44.649254
2.9731758,10.376105,-0.72476894,-72.92696,-7.069555,-54.597015
3.0255983,9.568909,-1.066042,-97.09011,-6.1629663,-70.516106
2.976959,8.088602,-1.4948711,-108.99813,-1.4744258,-85.36368
2.791916,6.994267,-1.6821926,-118.497925,-0.15569842,-97.391525
2.995398,5.904717,-1.9600744,-133.23775,5.8833423,-117.35349
2.7840164,4.8510065,-1.8255503,-146.79889,10.03662,-126.30331
3.026257,3.7434013,-2.1885507,-160.30064,15.82448,-132.63133
2.263176,1.9622961,-2.7373197,-170.15547,19.723122,-126.4912
0.99695724,0.5997362,-3.046995,-166.5298,16.847958,-136.95209
0.3820746,-0.96161723,-2.9762263,-154.36975,8.811521,-149.55475
-0.2001624,-2.4975457,-3.0426297,-152.77885,2.4143176,-148.56116
-0.16674362,-4.050109,-2.9480577,-149.73358,-7.014408,-143.77124
0.3825339,-5.5441008,-2.5966744,-145.20218,-15.44629,-128.96103
0.5401114,-7.3338413,-2.145861,-130.59589,-20.034388,-118.20096
1.0416718,-8.579889,-1.5958146,-107.92073,-22.340897,-108.62592
1.4308857,-8.8963585,-0.5073658,-83.81117,-19.63625,-85.83596
0.8927985,-8.712791,0.030713994,-67.720085,-16.181147,-69.44466
0.25344324,-8.117241,0.28746724,-51.45769,-11.027853,-58.254368
0.031901114,-7.8310256,0.81803036,-38.70623,-14.58361,-42.684444
-0.029555311,-6.888479,1.1265267,-31.406008,-7.2349906,-22.255356
0.044604275,-5.8211126,1.5752089,-21.826025,-5.1085296,-7.5576797
-0.20742711,-5.2795277,2.055928,-12.143448,-0.6075258,5.7745132
0.0,0.0,0.0,0.0,0.0,0.0
0.0,0.0,0.0,0.0,0.0,0.0
0.0,0.0,0.0,0.0,0.0,0.0
0.0,0.0,0.0,0.0,0.0,0.0
0.0,0.0,0.0,0.0,0.0,0.0
0.0,0.0,0.0,0.0,0.0,0.0
0.0,0.0,0.0,0.0,0.0,0.0
0.0,0.0,0.0,0.0,0.0,0.0
0.0,0.0,0.0,0.0,0.0,0.0
0.0,0.0,0.0,0.0,0.0,0.0
0.0,0.0,0.0,0.0,0.0,0.0
0.0,0.0,0.0,0.0,0.0,0.0
0.0,0.0,0.0,0.0,0.0,0.0
0.0,0.0,0.0,0.0,0.0,0.0
0.0,0.0,0.0,0.0,0.0,0.0
0.0,0.0,0.0,0.0,0.0,0.0
0.0,0.0,0.0,0.0,0.0,0.0
0.0,0.0,0.0,0.0,0.0,0.0
0.0,0.0,0.0,0.0,0.0,0.0
