ax,ay,az,gx,gy,gz
0.06583273,-0.931315,-0.15032586,-4.345016,5.0412006,-2.1714427
-0.11499517,-0.79408276,0.6784146,-2.1913495,5.6001425,-6.4191856
-0.24501035,-0.6129552,0.39959002,9.535571,12.995323,-10.069754
-0.40189308,-0.0005428344,0.6787256,9.693831,15.232378,-10.120784
-0.42278853,0.33611304,0.53755826,7.3505335,10.463134,-6.854834
-0.42227152,0.84473556,0.78768426,5.528509,14.090805,-9.141
-0.4371163,0.60818064,0.26214474,-1.0071543,10.448812,-3.7046657
-0.3294967,0.8749298,0.07510775,-14.660229,9.328023,-0.55313444
-0.033517666,0.49474475,-0.18671992,-20.738415,7.1792965,7.834659
0.09593492,0.13688406,-0.18318944,-23.073608,6.1300335,0.08766675
-0.18050613,-0.43906504,-0.34448627,-17.53849,8.075334,-2.1766317
-0.31655622,-0.8149091,-0.42818606,-14.970559,10.522248,-3.9821718
-0.25535706,-0.77156067,0.005615264,-9.15932,6.56153,-2.8487346
-0.3424493,-0.49524134,-0.32057554,-4.941581,1.2712395,-1.9251902
-0.27153558,-0.7676998,0.01015459,-7.052298,0.38390598,-0.6491161
-0.13113219,-0.42134455,-0.27257013,-2.4765048,0.26538867,0.48801437
0.17235735,-0.4943364,-0.24870539,-1.0113951,7.3503,-2.0777307
0.357261,-0.25386423,-0.34265316,2.8625605,1.7530046,-2.3240128
0.51795787,0.5204632,-0.9415189,-2.7008915,-2.4250228,-4.5789385
0.8846803,0.23019788,-1.5130203,-4.8473945,-12.361353,-4.1954494
1.1092441,-0.18965933,-2.340073,-12.838502,-14.521847,-7.005373
2.4905653,0.009117603,-3.5043125,-10.365145,-20.43521,-5.248645
3.531501,-0.15615417,-5.5749145,-31.838726,-24.54305,4.4518623
3.7662547,-0.80337787,-8.910108,-53.387665,-40.84212,13.046619
2.743426,-2.9381127,-11.748452,-78.25373,-70.89938,16.785479
0.85480887,-5.7802777,-14.128372,-78.938034,-98.10238,25.819609
-2.2664547,-9.458812,-17.160336,-64.657616,-150.93465,41.51727
-3.368778,-11.453649,-17.831543,-28.531414,-220.97522,77.04544
-2.5164235,-10.907067,-16.83465,0.60859585,-271.64322,99.39702
-0.113902956,-8.28337,-14.460652,17.1512,-305.77954,116.029144
2.1970916,-5.079154,-10.957461,36.91136,-321.1774,126.58762
3.987913,-0.94718874,-6.99639,41.036964,-335.29968,119.65898
7.599621,3.0414257,-0.42565134,44.170635,-339.88785,95.49545
14.459783,7.451625,11.003526,8.272609,-304.19037,89.85892
16.241686,7.9563384,17.544619,-35.10336,-223.21526,80.346275
14.426775,7.6636367,20.192547,-43.981934,-142.63036,62.51952
12.121164,7.2314777,20.798958,-41.686127,-90.04504,34.498943
10.2951975,7.7740927,20.63353,-39.38408,-30.69715,7.6285815
7.6501317,8.217583,19.343275,-40.346134,9.349542,-6.8221884
5.821674,7.9458456,17.589691,-47.352047,47.959557,-20.566687
4.4858403,7.119827,15.693711,-44.63701,70.04923,-30.473984
4.1257825,5.60201,13.78155,-28.195702,92.82097,-44.475353
4.5592136,4.1521864,11.913119,-8.327082,114.40554,-59.943546
5.0415597,3.1580515,10.422261,1.4050608,140.89183,-65.21336
5.2425847,2.150763,8.175695,4.0925064,167.2384,-73.741104
4.7285595,1.4206684,6.3392324,1.8729094,193.31355,-73.98863
3.358957,0.6803651,3.8627338,-0.19553483,200.82536,-79.39784
2.4125044,-0.95478326,1.4943728,-4.361318,212.54358,-70.25403
1.3707155,-2.699711,-0.5927455,-1.5816891,217.57207,-66.58801
0.8825237,-3.643649,-1.9346037,-13.233132,213.33511,-50.781128
1.122637,-5.109931,-2.6579652,-28.373362,208.36041,-35.96537
0.92687166,-5.7726917,-3.866077,-32.451973,216.51791,-16.549372
-0.24732392,-6.9596105,-6.3367925,0.765084,194.1481,16.089159
-1.3126336,-7.8356056,-7.715817,39.88991,169.25044,20.840628
-0.96203655,-8.451509,-8.033957,73.495316,146.92847,35.31253
-0.20228107,-7.592289,-7.81587,82.61714,121.562004,64.473076
0.6471083,-6.697086,-7.152751,90.714935,102.55143,81.917145
1.5352854,-5.800599,-7.1112156,103.68562,89.94795,100.9765
1.8458794,-4.2120614,-7.0664973,114.80582,77.8808,109.39013
1.9007483,-2.1293695,-7.177885,134.00626,59.794174,107.02026
1.5188435,0.31526113,-7.8265142,160.47427,37.61482,93.42693
1.1244537,3.2076943,-7.3365293,171.34518,15.64062,73.23837
1.2510793,6.4575562,-6.7422366,161.62813,-9.613619,22.415548
1.5309137,10.078842,-6.331441,137.06946,-29.165243,-19.474007
2.091646,10.521526,-5.680823,103.853,-40.411175,-31.031221
2.0317621,11.795294,-6.027118,72.155876,-54.285675,-41.99761
1.5609623,13.366822,-5.810175,54.201157,-67.78891,-78.13283
1.7695022,14.656442,-5.602635,33.84187,-81.498436,-139.49747
2.8288238,15.25164,-4.6120644,5.4767203,-83.82178,-179.29645
3.608508,14.151415,-3.6020763,-35.453094,-95.33598,-200.23584
4.2874813,11.49683,-3.0145314,-92.70421,-103.56337,-214.40596
5.06345,7.748774,-2.1167064,-135.18478,-104.844025,-214.45255
6.3332644,3.0922143,-1.2454685,-161.16148,-108.66007,-211.0985
7.829506,-1.7433697,0.44551098,-175.76178,-96.05334,-203.07513
8.807575,-7.5425687,2.1817105,-163.40419,-70.002655,-188.39494
7.770514,-11.19673,1.6877544,-133.45267,-46.1465,-166.23036
6.0823126,-12.907099,0.9612545,-91.17093,-32.57702,-146.53563
3.9289868,-13.090307,0.18307915,-32.758972,-30.912025,-121.035614
1.4279794,-12.023892,-1.5407196,-8.914887,-45.044685,-96.69321
-0.87507236,-10.889982,-3.8353968,28.12708,-68.99946,-72.13484
-2.402103,-9.642701,-6.271042,44.294773,-105.09474,-53.100674
-2.422055,-8.9066725,-8.040356,55.435333,-148.26346,-31.455667
-1.888311,-7.322914,-9.168665,66.143456,-173.15335,-11.589311
-1.212809,-7.0714583,-10.899195,65.10811,-203.64456,3.0110726
-1.3126811,-6.5019026,-11.899999,73.92774,-223.09277,15.041171
-1.7555933,-6.266225,-12.5003805,87.86619,-253.05118,28.407904
-1.6945728,-5.658085,-13.226279,95.07387,-278.39554,46.96701
-1.2208456,-4.6413755,-12.724022,81.035614,-321.08902,66.07781
-0.06842734,-4.108551,-10.951451,59.800163,-340.7411,80.558914
1.4501014,-3.7906215,-8.293193,61.470314,-350.76068,84.712814
3.9059174,-2.2677803,-4.9645762,67.37496,-345.42517,84.453835
6.123887,-0.060836606,-1.2916338,83.79908,-316.13177,77.39451
8.993251,2.3448153,1.9900858,86.82402,-289.26465,62.66352
13.065995,4.1910715,7.5380473,68.13259,-259.31406,59.23745
15.39985,5.975579,12.316694,28.584238,-194.31897,70.561386
15.297855,6.1048903,14.27185,1.2932467,-115.89644,59.70545
13.087112,6.1225996,13.463571,-13.866978,-58.748,50.819706
10.469333,5.735264,12.250394,-38.85604,-2.6965766,25.58755
7.698325,5.149688,10.4368725,-58.718906,23.897505,17.819183
6.253562,4.452682,9.267201,-71.34598,39.372425,7.83779
5.674121,2.710655,8.515658,-70.841385,58.884216,-8.297108
5.893847,0.71060824,8.11308,-68.93157,81.94955,-12.738357
6.023195,-1.0428591,7.5136085,-52.754242,114.54061,-9.30565
5.829868,-3.5173702,6.12811,-38.95371,141.86153,-1.8900748
5.3827043,-4.8570733,5.3196,-21.131342,168.41786,17.562918
4.8563867,-5.926835,4.0894265,-17.279552,189.17703,28.420238
4.2941604,-6.6594496,2.8728068,-17.507118,219.47014,42.36211
3.8422492,-7.4453206,0.69426847,-1.633935,243.06978,81.11073
2.5800993,-7.1503754,-1.2068714,8.446671,254.43114,117.24545
1.7202526,-6.552861,-2.8946218,17.040407,256.24493,154.29405
1.1154528,-5.293304,-3.9478974,18.135588,242.40118,191.18924
1.1614203,-4.232031,-4.43746,4.823256,227.20325,230.03017
0.52153367,-2.9301705,-5.040927,20.046236,212.87051,263.09326
0.75269717,-1.6686528,-5.193516,30.529558,200.54265,270.55127
0.8530042,-0.595403,-5.2515535,47.21039,190.91898,265.75726
0.8325589,1.0206497,-5.127251,51.405212,175.45401,253.74142
0.7403709,2.2104437,-5.470659,49.386765,148.39124,236.06569
0.26984185,3.082241,-5.564088,63.127357,112.781235,202.6121
-0.029454477,4.027786,-5.4034543,59.79372,100.50276,184.27397
0.13025555,4.6293817,-5.4525404,49.281612,76.75592,171.49718
0.2945596,5.491708,-5.6672254,50.584175,59.64821,153.36856
0.11450757,6.0093894,-5.849765,54.695618,35.16639,128.8454
0.040909026,7.2558956,-6.109362,63.513542,2.3715014,87.01737
0.22689833,8.628928,-6.07208,67.25809,-29.188133,50.60703
1.7916316,9.496311,-5.344538,65.188446,-52.576283,19.191622
4.0795965,11.1757765,-4.2212534,50.380363,-64.86826,-3.0005622
5.016494,12.904234,-3.8433444,16.082111,-57.098022,-26.149012
4.6583614,14.322159,-4.667297,-28.930807,-59.026024,-63.808292
3.294474,14.9736395,-7.0919743,-45.928833,-74.0136,-95.038216
2.4768856,15.195378,-8.458457,-65.203705,-99.27034,-140.69466
2.510928,14.881876,-8.581185,-69.35523,-136.69339,-191.46571
4.2014394,14.189415,-7.096399,-93.38834,-159.13951,-226.83073
7.031945,11.78356,-4.2475023,-155.04346,-167.77908,-247.40851
10.314287,7.208416,-0.09823376,-214.37715,-156.98134,-238.93213
10.805183,3.051464,2.1172333,-255.88643,-138.8076,-230.72154
11.336559,-2.637751,3.4915974,-265.3907,-102.41611,-229.12846
11.074798,-9.0314,4.5042953,-224.40695,-74.242134,-235.37364
9.957775,-15.461528,4.8901787,-140.72437,-31.380955,-214.04602
6.149931,-19.314001,4.136625,-82.5889,-11.876328,-175.51862
3.6845605,-17.967997,3.6007862,-43.513725,-0.79021406,-133.55725
1.6102029,-15.924452,2.2149231,-19.939596,2.3381963,-93.90218
0.15195128,-13.418567,0.83699393,-12.188077,11.912563,-54.260735
-0.8249421,-11.502856,0.1383264,3.3999407,8.056996,-26.275146
-1.6461165,-8.64726,-1.0025369,16.907276,3.4512863,-17.350666
-1.8645034,-7.044482,-1.46618,21.921684,5.4074593,-4.7427607
-2.0605254,-5.186178,-1.2656136,28.074558,-0.6363766,4.8767796
-1.8772973,-3.581233,-1.2030019,29.6273,-6.5594788,20.062675
-1.6612904,-2.1930723,-0.80125237,20.304567,-3.6785088,28.191679
-0.99903566,-0.6761083,-0.18350191,11.322552,-8.393833,27.886719
-0.437683,-0.42943674,0.3393072,5.52405,-0.64589596,30.475288
0.019998703,0.03216286,0.95167005,-0.7880664,-0.7624494,27.735931
0.08696799,0.471793,1.0473443,-11.0568905,8.486527,24.551325
0.13227452,0.49867803,1.0214565,-19.49156,10.753165,28.002972
-0.19497725,0.47590482,0.9522588,-20.899927,14.354162,29.051636
-0.24505018,0.198295,0.8980379,-27.637966,10.778599,30.468372
-0.33922565,-0.23848099,0.41670537,-24.128109,8.362105,31.363802
-0.2483314,0.1346046,0.73246807,-17.012089,11.557853,24.862875
-0.41582274,0.3682148,0.6581917,-9.7338705,15.34337,24.744347
-0.19690713,0.6496202,0.51545626,-10.837125,20.004017,22.569765
-0.49842465,0.88897634,0.3816323,-17.731886,17.354076,19.948887
0.0,0.0,0.0,0.0,0.0,0.0
0.0,0.0,0.0,0.0,0.0,0.0
0.0,0.0,0.0,0.0,0.0,0.0
0.0,0.0,0.0,0.0,0.0,0.0
0.0,0.0,0.0,0.0,0.0,0.0
0.0,0.0,0.0,0.0,0.0,0.0
0.0,0.0,0.0,0.0,0.0,0.0
0.0,0.0,0.0,0.0,0.0,0.0
0.0,0.0,0.0,0.0,0.0,0.0
0.0,0.0,0.0,0.0,0.0,0.0
0.0,0.0,0.0,0.0,0.0,0.0
0.0,0.0,0.0,0.0,0.0,0.0
0.0,0.0,0.0,0.0,0.0,0.0
0.0,0.0,0.0,0.0,0.0,0.0
0.0,0.0,0.0,0.0,0.0,0.0
0.0,0.0,0.0,0.0,0.0,0.0
0.0,0.0,0.0,0.0,0.0,0.0
0.0,0.0,0.0,0.0,0.0,0.0
0.0,0.0,0.0,0.0,0.0,0.0
0.0,0.0,0.0,0.0,0.0,0.0
