ax,ay,az,gx,gy,gz
1.6126622,0.59156287,-3.0466912,1.7083685,2.1478078,-12.015997
1.4495828,-0.21066692,-2.5837092,-6.637988,-1.3775696,-6.3519125
1.5234501,-0.716887,-2.2196157,2.2637072,-1.0070223,-13.3755045
1.7106756,-0.9033383,-1.3790148,1.2049034,5.300004,-9.249336
1.5263922,-0.94844306,-1.0900813,3.6064472,10.122127,-4.666914
1.0797299,-0.6219123,-1.527319,8.609487,15.843561,-6.66196
0.3894817,-0.6573251,-1.6611983,4.5330544,9.456034,-7.452304
0.33709955,-0.7807219,-1.7650993,5.2716365,6.3510604,-1.7277639
0.080934346,-0.30974603,-1.278489,6.8460646,-4.745675,-3.2923574
-0.27987486,-0.07218762,-1.4595984,8.042281,-2.4751194,-1.7353683
-0.18005025,0.101250336,-0.85940117,5.456791,-2.53407,2.2159083
-0.34375,0.35015056,-0.57954264,3.9398937,0.6335791,-6.3558235
-0.024039283,0.35839474,0.15666705,2.5441413,0.94908005,-12.003722
-0.20817132,0.24793296,-0.36739427,2.4936032,0.8764751,-12.2443905
-0.34235865,0.23683187,-0.40672392,2.4693384,1.0574638,-5.8609505
-0.10029412,0.060072154,-0.9861189,0.393418,-2.388826,-8.797854
0.13153765,-0.27356833,-0.87676954,1.5236027,-1.7533277,-6.058426
0.1761658,0.13117489,-1.0189936,-8.7171955,-4.3259244,1.1255926
0.15953195,-0.053272337,-1.7542338,-6.204494,-5.2522964,2.1599197
0.11239712,-0.21464515,-2.4259744,-7.1746645,-5.5957108,0.049922466
-0.01208514,-0.5160723,-3.1532624,-13.623461,-11.76573,5.9298334
0.3523401,-0.9316928,-4.6213837,-19.44274,-13.991106,6.802865
1.1505729,-1.193074,-6.869622,-39.64396,-28.730648,14.413175
1.5298634,-2.328027,-12.040159,-66.61167,-36.541664,31.447607
-0.051574722,-5.9580812,-19.579464,-101.24864,-105.36745,43.64029
-4.2527447,-13.150282,-27.337927,-61.131733,-184.5173,46.10185
-4.8878527,-14.7273,-28.601213,13.808972,-257.53067,56.613354
-2.6794858,-10.171451,-25.909334,35.57836,-308.33267,82.00679
-0.8820693,-5.063348,-22.918642,18.309092,-346.19968,106.83629
0.6710409,-2.628429,-19.473295,-8.801303,-410.78043,123.718155
7.4996514,0.6048086,-11.28855,-11.815887,-446.48212,129.92729
16.780819,4.201432,0.3308033,-26.817358,-464.4371,112.71359
24.40368,6.7629857,13.904855,-46.22317,-398.3031,82.424576
27.348146,5.014387,23.543804,-52.805035,-311.2151,65.831665
27.439957,2.1988935,28.996548,-36.392513,-171.1094,52.50828
24.771414,2.3267722,30.628674,-31.667925,-82.846634,49.730404
19.315598,5.462094,28.63585,-35.046608,1.7137961,48.284397
14.770578,7.352182,25.233774,-40.00838,54.42421,37.361164
11.887889,7.5023155,20.886698,-38.142563,98.03258,15.849115
10.6145,5.227263,17.178164,-16.119259,135.55508,-18.736406
9.863362,2.0486789,13.379606,0.46076137,168.95149,-29.277016
9.1508465,0.1104818,11.117773,12.468935,196.444,-23.819918
8.374504,-1.0232428,8.397768,32.48915,226.33858,-23.613745
6.8915944,-1.779588,5.173959,56.712013,243.72966,-28.50427
5.115879,-2.0126889,3.6149673,75.922356,256.74408,-28.401138
3.0883465,-2.5042057,0.4323791,79.56516,264.44412,-29.58794
2.0011783,-3.1584513,-1.2781823,84.02865,272.49335,-27.69641
1.3981487,-3.768343,-3.692067,82.59365,265.62558,-25.791065
0.7998316,-4.3885713,-4.5233855,70.323296,259.49207,-13.846039
0.11955717,-4.348167,-6.771162,71.09846,251.70656,-1.4411445
-1.3154092,-4.8740563,-8.631912,89.99346,228.26372,19.45999
-1.7372373,-4.898097,-9.7206335,100.54141,191.98793,35.48431
-2.1271086,-4.6881547,-10.00274,110.62584,164.1829,41.114933
-1.5168924,-3.5693738,-9.526108,107.60175,130.45718,39.61858
-0.87675464,-3.1895447,-9.105756,90.20942,98.13508,43.800507
0.40156776,-2.1660478,-7.907071,79.083916,92.85792,58.987698
0.8053064,-1.4634676,-8.502942,80.131805,73.81896,64.44874
1.007708,0.6856873,-8.818249,95.56729,48.41392,59.74676
0.6683609,3.3193336,-9.106085,113.00332,16.01503,32.338577
1.0946594,6.9841003,-8.968309,116.640114,-34.466393,-17.88374
3.5139556,12.286374,-8.187522,104.81988,-51.67415,-60.160473
5.9182644,15.475655,-6.8771048,57.509945,-61.071114,-86.960205
6.0366707,17.88421,-7.1106057,-1.6110002,-60.926918,-114.3713
4.915646,19.062475,-8.6259,-46.045418,-72.37376,-146.5014
4.3156056,19.399563,-9.834579,-77.8041,-98.1074,-213.00255
5.198552,16.561356,-9.510682,-86.1657,-119.775986,-265.32144
5.773539,11.937078,-8.261329,-88.229225,-124.77718,-289.32013
6.816452,6.2026114,-6.128712,-103.84569,-143.55626,-305.5933
4.2230506,-21.859846,0.5753964,-27.638527,-15.455124,-70.386795
-4.785401,-7.1493044,-15.3653965,30.440594,-118.89682,2.2124941
-5.090922,-5.43474,-20.940952,35.622272,-215.65524,1.4854132
-4.5560164,-5.828162,-21.574394,25.426674,-308.9483,4.417248
-3.8182294,-6.2360516,-20.541582,9.475982,-373.73062,18.541927
-1.8666952,-6.0640206,-16.375679,6.744995,-418.34018,42.520603
2.8976703,-3.7616177,-8.759817,7.0628524,-420.89542,55.220463
8.416773,-0.06567305,-1.293769,1.5892916,-409.66272,57.176662
14.855737,3.7282922,7.691622,-20.022364,-365.07443,35.696407
20.914509,5.193375,19.562822,-29.544432,-278.58093,33.98357
21.234509,4.426707,22.735401,-43.889336,-178.46146,34.79152
19.05954,2.9545403,22.86409,-37.719124,-88.8365,26.103785
16.056099,1.6436753,20.885675,-33.200367,-18.35415,23.132006
12.290062,1.2767708,17.572145,-27.285238,48.55521,24.518284
8.242982,0.774285,12.495702,-20.80048,80.72237,14.414098
7.083997,-0.49353838,9.886142,-11.25606,96.99077,9.011195
7.448023,-1.0775582,8.860994,-7.831997,107.89214,-0.24383497
7.3847995,-2.063103,7.491595,-4.985791,137.70848,-2.8815546
7.211101,-2.8312848,5.985367,10.294732,166.2484,0.17974186
6.1335597,-3.9101374,3.806815,31.277143,183.25844,14.5405245
4.531964,-4.5606465,1.6108861,35.627728,193.15833,20.324945
3.9162946,-6.0151987,-0.5686383,39.940773,202.30328,41.97861
2.9883866,-6.938614,-2.1091886,49.865524,208.57811,60.75606
2.1751163,-7.1074643,-3.2563243,57.15788,213.90858,82.35544
2.071836,-6.716439,-4.7674737,57.17722,211.55908,117.623245
0.6285063,-6.1500063,-6.137353,76.35082,209.44687,149.57065
-0.23319176,-5.251504,-7.4327106,80.3328,199.91142,178.14127
-1.1072887,-3.9279745,-7.7184515,73.305244,168.31198,192.22015
-1.83442,-2.8984494,-7.2930603,68.11975,123.81224,215.8208
-1.1696886,-1.7252477,-6.4152794,66.630775,108.845726,212.67113
-0.8598924,-0.70190835,-4.9698296,63.575657,96.50374,224.39044
-0.7924225,-0.67610157,-5.17543,60.01137,79.16239,224.8187
-0.27533388,0.380079,-4.9567113,55.738186,72.85615,234.46533
0.075943455,1.3662548,-4.546905,60.972782,51.958134,224.93593
0.9180336,2.866189,-4.2574453,64.78973,53.070187,211.69139
0.94090873,4.59407,-4.147961,55.33124,45.049904,207.73944
0.60125047,4.8115816,-4.2048054,54.293488,46.95111,199.06691
0.9893347,5.764241,-4.2900777,62.89192,27.552256,177.33792
2.2486966,7.41759,-4.6035733,86.535805,7.688995,130.68129
3.8205192,10.660341,-4.095223,80.61157,0.84258103,89.0204
5.3071747,12.622654,-3.9587893,49.869083,0.1857853,56.100105
5.370073,15.606482,-6.235588,2.8790448,-16.603514,26.911978
5.0645185,18.743137,-8.232039,-42.135918,-38.62033,-7.410774
4.1105046,22.299114,-11.47036,-102.29845,-70.63099,-65.317924
2.7143524,24.688852,-15.9102545,-135.67331,-113.863075,-134.86383
2.747734,24.456268,-18.786049,-131.12851,-161.78758,-219.26779
4.854902,22.731453,-19.498184,-116.04139,-210.3164,-298.87122
8.390575,20.363344,-18.186964,-129.31628,-253.47269,-353.71957
11.699734,15.688293,-16.301554,-186.91965,-295.73083,-380.2423
16.197971,4.2127357,-11.661084,-230.13255,-335.09598,-362.4323
22.60085,-6.1764417,-3.8300238,-241.45721,-334.11118,-338.76175
27.324844,-15.133359,4.8168373,-223.05743,-283.13403,-298.0123
29.230055,-22.51689,12.239954,-193.6382,-187.97034,-267.61026
26.38477,-29.190977,16.555305,-156.76865,-56.976532,-168.57771
16.387318,-30.589392,14.725341,-133.86052,10.472563,-84.29085
6.2468834,-25.84709,9.821501,-91.57231,53.41451,-33.15506
0.094865754,-19.762123,5.2491884,-65.43397,67.52824,5.211857
-4.072484,-13.447393,0.810067,-32.52948,55.93335,16.469383
-5.2117953,-7.832704,-1.185386,-17.397104,35.662365,29.0981
-4.8493614,-2.826079,-0.9256214,-14.446519,17.179134,34.304188
-4.4687185,-0.006763555,-0.8066101,-8.839681,9.569286,27.800026
-3.9571266,1.9501923,-0.077356264,-6.9407635,1.1666007,19.758617
-2.9150643,2.619478,0.25296998,-14.779645,-3.1072042,19.817951
-1.9937508,2.9457517,0.5065427,-13.81409,2.4041097,12.427332
-0.78574735,2.0009322,1.0824347,-10.745876,5.4355187,6.4751444
-0.08101908,0.89388317,0.5714625,-10.375483,0.7058239,0.2957145
-0.3103046,0.2564226,0.32818732,-15.239389,5.595408,-0.48848343
-0.37229663,-0.70406765,0.20481002,-14.400816,4.024484,5.0950265
-0.22861427,-1.7083268,-0.1018208,-10.545085,1.8184156,6.7893386
0.21466735,-1.8570825,-0.0629497,-5.5667586,-1.9532259,12.2183
0.08304228,-1.3780675,0.14024664,-0.43873405,0.26158273,12.112549
0.008534946,-1.0117435,-0.042527862,3.533521,5.637477,12.813361
-0.29162154,-0.28684238,0.54843104,0.88341594,-1.116229,9.902948
0.4368319,0.28708684,0.79230464,-1.0978061,6.538683,12.222123
0.13296315,0.5175544,0.8187519,-3.007118,7.0191407,9.928164
-0.04450368,0.9999199,0.365362,-4.587922,7.262704,10.490721
-0.15322119,0.93544436,0.6018869,-10.286642,8.921766,6.709602
0.023618918,1.176014,-0.20544624,-13.785155,8.726772,-2.9012341
0.006956991,1.6208748,0.16189264,-20.550499,8.298944,-0.9676616
-0.58062863,1.1090807,-0.23398148,-24.411026,1.6395683,-5.0142465
-0.85161763,0.46331054,-0.36810556,-15.258838,-1.749768,-3.823058
-0.6093872,0.8925472,-0.5755369,-12.619621,-8.502748,-7.0688405
-0.56004083,1.2680756,-0.6295496,-18.789402,-4.3718214,-3.682029
-0.513888,0.9974017,-0.51233405,-31.6363,-8.001042,-5.852239
0.0,0.0,0.0,0.0,0.0,0.0
0.0,0.0,0.0,0.0,0.0,0.0
0.0,0.0,0.0,0.0,0.0,0.0
0.0,0.0,0.0,0.0,0.0,0.0
0.0,0.0,0.0,0.0,0.0,0.0
0.0,0.0,0.0,0.0,0.0,0.0
0.0,0.0,0.0,0.0,0.0,0.0
0.0,0.0,0.0,0.0,0.0,0.0
0.0,0.0,0.0,0.0,0.0,0.0
0.0,0.0,0.0,0.0,0.0,0.0
0.0,0.0,0.0,0.0,0.0,0.0
0.0,0.0,0.0,0.0,0.0,0.0
0.0,0.0,0.0,0.0,0.0,0.0
0.0,0.0,0.0,0.0,0.0,0.0
0.0,0.0,0.0,0.0,0.0,0.0
0.0,0.0,0.0,0.0,0.0,0.0
0.0,0.0,0.0,0.0,0.0,0.0
0.0,0.0,0.0,0.0,0.0,0.0
0.0,0.0,0.0,0.0,0.0,0.0
0.0,0.0,0.0,0.0,0.0,0.0
0.0,0.0,0.0,0.0,0.0,0.0
0.0,0.0,0.0,0.0,0.0,0.0
0.0,0.0,0.0,0.0,0.0,0.0
0.0,0.0,0.0,0.0,0.0,0.0
0.0,0.0,0.0,0.0,0.0,0.0
0.0,0.0,0.0,0.0,0.0,0.0
0.0,0.0,0.0,0.0,0.0,0.0
0.0,0.0,0.0,0.0,0.0,0.0
