ax,ay,az,gx,gy,gz
2.2999597,-1.4372122,-0.16284066,5.223717,35.447075,4.7677307
1.5683155,-1.1908306,-0.5199526,-8.053499,39.97338,0.061815023
0.98367965,-1.1342729,-1.2654662,-0.68528795,43.696278,-3.8193312
0.9415593,-1.1605853,-1.7941073,17.788141,28.548456,3.1091716
0.76911086,-1.0511147,-1.5997779,9.106363,15.8848,-3.4280124
0.9106635,0.052798226,-1.6186756,-12.222559,25.730202,0.49182314
1.0061015,0.2586612,-1.8521694,-23.30008,21.687466,-0.6827078
0.6110548,-0.39639926,-2.3484836,-15.864887,22.563137,5.2355213
0.012810858,-0.4423226,-2.0923452,-8.512994,20.307644,-5.9315224
-0.21964851,-0.62494993,-2.0743563,1.8737292,18.66074,-13.16305
-0.35282314,-0.68385947,-1.6144564,6.598914,12.958118,-11.710682
-0.12111567,-0.35374466,-0.5570444,18.018736,7.8635244,-11.284725
0.42024946,-0.06522601,1.3762348,19.302744,9.400396,-4.952738
0.47217563,0.32394055,2.585319,17.394497,19.023209,-8.745907
0.2607001,0.34138948,3.6348112,26.938879,26.884794,-7.3777742
0.55689436,0.4450251,4.230681,42.802727,29.670202,-18.207485
1.2160183,1.173371,5.49095,43.93422,40.57344,-20.238285
1.3078687,1.3063776,5.3425765,41.29377,56.03312,-19.80831
1.5865045,1.1681751,5.172868,25.000484,81.88211,-21.186493
1.2035865,0.80827314,4.3013062,19.005617,84.75213,-19.839195
1.0189947,0.62838733,3.0916004,9.712007,99.793365,-15.253328
1.3976309,-0.32959515,2.2151854,14.991478,107.86121,-26.948519
1.3880546,-0.5136347,1.0324323,28.046074,119.97394,-29.355408
1.1490897,-1.2650026,0.79453695,47.088657,128.53458,-36.286453
1.1317561,-0.9945418,-1.2645707,49.940582,134.55145,-44.76742
0.95835984,0.024511665,-1.6868005,33.003803,127.2449,-43.235893
0.7760382,-0.26233575,-2.2635295,12.987045,132.98198,-33.8134
0.41264626,-0.19565146,-3.1896472,-5.962447,126.136795,-30.488756
0.37126285,-0.81085336,-4.6433816,-8.259077,107.232475,-13.267501
-0.10014516,-2.605414,-5.9216313,-2.6159651,83.71265,-6.4701443
-0.49597973,-2.437847,-6.78025,-0.85877955,56.01911,1.5883621
-0.98154867,-2.0046654,-7.9445467,-6.373536,27.346247,5.8938904
-1.6070457,-2.1351268,-9.079108,-15.439827,-7.745679,10.261281
-2.6014068,-2.63575,-12.080173,-34.27653,-88.63135,26.442127
-3.8593476,-3.417902,-16.890097,-72.17527,-163.88077,50.761013
-3.5152702,-3.8971062,-20.37612,-96.09685,-245.9115,79.55154
-2.5873673,-5.601641,-23.477379,-77.16324,-303.97397,82.42691
-0.7617928,-7.401182,-24.642832,1.6219604,-343.84708,58.84858
1.350903,-8.508558,-22.648884,109.71332,-348.5399,56.533516
6.165873,-7.125847,-18.054312,176.19667,-354.56564,56.098427
9.929509,-3.8229773,-12.160976,217.85214,-343.0403,66.03708
12.890209,1.0970533,-5.6434016,239.82053,-335.0762,62.018715
15.451454,7.6771073,3.5188043,200.7309,-323.4104,66.66535
16.499327,12.636006,13.152234,114.7061,-251.89377,54.81877
14.055013,14.70246,18.51182,44.647865,-202.32457,63.043617
12.173037,13.556594,20.201174,12.1868105,-149.95097,54.331684
10.509362,13.7091255,20.960258,3.5938432,-87.20153,26.951818
8.65369,13.354315,19.232159,-12.487934,-41.741814,0.9607253
8.03093,12.12521,17.522429,-39.556572,2.9662416,-24.442648
7.8212037,7.4140544,14.79686,-44.915688,46.643383,-37.686104
7.77608,4.5257926,12.46861,-46.929142,81.49418,-53.12818
7.384748,2.1422217,9.995298,-48.943222,109.31096,-57.943707
7.4453096,0.5368538,9.238255,-52.179695,139.55069,-52.73485
7.1580167,-0.38031596,7.2411265,-37.955544,173.28513,-53.407642
6.397996,-1.623323,5.350274,-6.98006,196.5826,-48.0008
5.0586514,-2.7301269,3.2351096,2.478073,220.53123,-35.12
4.261737,-3.7993202,1.4916526,24.727262,244.58174,-27.63458
2.5588157,-5.279584,-0.6142782,59.348114,266.05176,-34.702896
1.3132809,-5.116757,-2.10434,93.817,285.1692,-28.092829
-1.0439365,-4.623823,-5.3831577,112.60942,286.6398,-24.80796
-2.0819058,-4.8038225,-6.9324956,101.534546,266.2223,-3.3726041
-2.4310012,-5.19169,-7.928971,87.06574,239.29784,17.369017
-1.6542759,-4.837904,-7.492426,115.10563,218.73106,18.32897
-0.53487736,-4.409373,-6.6681848,125.574814,205.5105,17.00981
-0.48493478,-3.7207417,-7.1473956,126.86347,182.76051,23.773304
-0.47430137,-2.613274,-6.883148,132.79935,144.74641,36.488113
-0.53045195,-0.9370176,-6.5991507,110.85711,104.89037,37.571095
0.16768518,0.3697567,-6.228925,83.766815,59.222065,32.99336
1.3018748,0.49712816,-5.974629,53.224056,27.703064,44.28431
1.7416661,1.5610592,-5.9179945,33.582397,8.705101,53.838516
2.7766757,4.908762,-6.353112,46.51831,1.967974,56.717617
3.083062,7.8011594,-7.9617443,49.2303,-17.663883,30.508034
3.1679175,11.738383,-8.866888,47.661217,-50.869602,-5.8773828
3.6132588,14.742928,-10.707851,7.0772557,-92.418655,-53.081036
4.422404,15.581681,-12.585269,-16.671432,-117.78462,-86.19662
5.3035936,16.814861,-12.651192,-28.804161,-157.12027,-130.97177
6.4691715,17.30453,-11.267852,-45.615974,-164.49329,-195.21527
6.8993673,16.517855,-9.514311,-82.41691,-182.75471,-241.51868
7.7483163,12.506332,-6.97413,-119.85812,-215.02232,-282.7175
10.533251,6.0995216,-1.8389012,-163.21042,-223.84627,-284.78217
12.655674,-0.625721,3.3985946,-217.91698,-199.4608,-289.53934
14.344602,-11.428049,6.284601,-242.92749,-157.8796,-261.53732
13.608464,-20.76679,6.922315,-211.2587,-92.75703,-215.37708
10.365359,-26.343716,4.4545007,-152.54713,-27.908089,-127.55214
4.473682,-28.26827,-1.9652478,-81.665184,-15.1083355,-82.07702
0.79671794,-27.71534,-7.643928,6.430148,-16.459902,-42.537186
-1.9182572,-25.02645,-13.3641615,64.93864,-51.754433,-16.501484
-3.7704499,-21.507282,-19.622686,93.362816,-125.367516,14.6192875
-3.212198,-18.910883,-22.680218,95.81803,-249.56848,57.654438
-1.2644886,-15.76776,-19.574062,116.7028,-303.57684,87.5844
1.6691245,-9.193697,-14.093716,122.09877,-321.13202,120.68097
4.530485,-1.1258162,-7.8200917,112.40739,-329.6693,136.27184
6.150596,7.2865577,-1.0355533,76.862465,-346.40613,129.58731
7.852854,13.614127,6.892712,15.946341,-314.11377,97.10228
9.917819,17.499556,16.901524,-33.41771,-274.41873,62.42443
12.448475,16.000132,22.735247,-69.61575,-196.75452,27.908342
13.165956,11.182267,24.574959,-76.059074,-94.75322,5.3820624
11.768391,5.839259,22.32248,-95.28879,-13.696348,-8.9080925
9.635412,-0.14847489,17.814302,-80.307236,41.279396,-7.499443
7.691258,-4.5171967,13.699707,-46.337933,89.78769,12.099174
6.904214,-7.0058475,11.112936,-28.658508,116.77744,31.27685
7.554495,-9.399623,9.88055,-14.551769,155.68097,63.203808
8.034123,-11.05628,8.407473,21.751965,191.76477,96.37207
7.4784746,-10.715869,5.264782,76.68954,226.8711,125.158005
6.0262866,-10.339153,1.9593257,112.04711,248.55865,136.893
5.9881315,-9.57284,0.75194836,113.63009,248.29611,167.35687
5.676706,-7.247692,-1.4824727,96.55679,248.39494,199.44405
5.9151864,-4.153055,-2.652413,64.148346,251.63606,226.44978
5.1760025,-2.4330444,-4.4323874,60.879204,243.2682,257.17282
3.8712587,-1.3180119,-7.2219567,91.0232,231.99158,262.58282
3.0068786,-0.31348714,-8.474837,137.66013,216.43939,264.8342
2.8459275,2.4537761,-10.066166,141.9866,199.41798,252.0373
2.2658494,6.3366394,-10.18002,105.620705,159.12617,253.28561
1.3176726,10.501054,-10.245247,50.792355,100.62358,208.0214
0.6939758,12.259253,-10.104112,15.318371,66.58278,150.36513
0.77513635,12.636515,-11.598732,-6.4734354,29.701208,122.98107
1.1544632,12.728359,-12.920118,-3.7323365,-7.362351,91.95145
1.1932046,14.617269,-14.467435,-1.2225157,-51.61465,68.57918
2.0774825,18.743195,-15.323749,-18.275293,-91.65923,-4.925082
1.8290118,24.696156,-16.599285,-51.873676,-125.48676,-75.0572
1.3481536,27.072998,-19.249657,-89.54168,-172.30571,-156.64345
2.068598,27.080011,-21.315125,-89.175,-245.18593,-261.55466
5.9857454,24.844349,-19.19747,-91.33626,-307.9374,-339.68408
13.043593,18.400646,-13.411645,-120.2309,-344.15405,-394.87695
20.721952,2.6462858,-4.4994535,-94.912766,-361.4985,-437.50217
27.143738,-7.284654,5.6417446,-44.130093,-310.1874,-439.76343
28.299446,-13.954091,13.267581,8.673567,-229.49432,-400.09738
26.110361,-15.707036,17.58381,-41.33222,-148.80745,-284.72107
22.301794,-16.061346,18.766161,-149.51538,-65.307205,-153.87833
12.989092,-16.86177,14.033205,-166.01357,18.986303,-61.99719
5.86959,-16.296495,8.921493,-112.7523,60.341846,-55.744938
-0.3728608,-13.476696,3.5837665,-71.582924,71.33245,-44.61172
-4.415752,-10.692857,0.09237846,-61.12801,47.138527,-21.836803
-4.6339426,-8.268369,-1.2736847,-65.224434,7.6319447,-7.160893
-3.3562393,-6.514538,-0.3827948,-64.060715,-0.656417,10.583256
-2.2622304,-4.9741898,-0.04590727,-49.61642,0.6872163,9.551146
-1.4284139,-3.7370448,0.10204885,-36.00603,2.8561592,17.457977
-1.4233942,-3.028605,-0.30286735,-25.387007,1.4775336,19.422129
-1.3472257,-1.9641354,-0.8284409,-1.673518,-10.508365,15.999888
-0.7651943,-1.4511361,0.017939478,-1.5009168,-14.145239,22.096563
0.09862105,-0.6672071,0.16206485,-10.66396,-15.559889,29.031765
-0.068942234,-0.98152226,-0.0004092902,-18.271008,-12.283885,32.628677
-0.013536056,-0.36790425,0.21724562,-13.763856,-16.491348,34.02715
-0.07268493,-0.49829698,0.6284572,-6.014553,-2.0482454,30.944784
-0.18423611,0.33393717,0.5591661,-6.548181,1.5396369,26.115606
-0.16913584,1.1371222,0.4624129,-6.2580204,2.763415,15.428427
-0.39083958,0.9247825,0.17659914,-12.560147,6.314146,17.202732
-0.22651851,0.95801663,0.56791353,-23.10587,5.1568604,25.343334
0.0,0.0,0.0,0.0,0.0,0.0
0.0,0.0,0.0,0.0,0.0,0.0
0.0,0.0,0.0,0.0,0.0,0.0
0.0,0.0,0.0,0.0,0.0,0.0
0.0,0.0,0.0,0.0,0.0,0.0
0.0,0.0,0.0,0.0,0.0,0.0
0.0,0.0,0.0,0.0,0.0,0.0
0.0,0.0,0.0,0.0,0.0,0.0
0.0,0.0,0.0,0.0,0.0,0.0
0.0,0.0,0.0,0.0,0.0,0.0
0.0,0.0,0.0,0.0,0.0,0.0
0.0,0.0,0.0,0.0,0.0,0.0
0.0,0.0,0.0,0.0,0.0,0.0
0.0,0.0,0.0,0.0,0.0,0.0
0.0,0.0,0.0,0.0,0.0,0.0
0.0,0.0,0.0,0.0,0.0,0.0
0.0,0.0,0.0,0.0,0.0,0.0
0.0,0.0,0.0,0.0,0.0,0.0
0.0,0.0,0.0,0.0,0.0,0.0
0.0,0.0,0.0,0.0,0.0,0.0
0.0,0.0,0.0,0.0,0.0,0.0
0.0,0.0,0.0,0.0,0.0,0.0
0.0,0.0,0.0,0.0,0.0,0.0
0.0,0.0,0.0,0.0,0.0,0.0
0.0,0.0,0.0,0.0,0.0,0.0
0.0,0.0,0.0,0.0,0.0,0.0
0.0,0.0,0.0,0.0,0.0,0.0
0.0,0.0,0.0,0.0,0.0,0.0
0.0,0.0,0.0,0.0,0.0,0.0
0.0,0.0,0.0,0.0,0.0,0.0
0.0,0.0,0.0,0.0,0.0,0.0
0.0,0.0,0.0,0.0,0.0,0.0
