ax,ay,az,gx,gy,gz
0.5683478,1.6689156,-3.9366002,-13.251373,85.3158,-21.738018
-0.016549679,1.955127,-4.369593,-26.89234,82.342316,-10.130639
-0.8624696,2.2832913,-4.989139,-31.24893,70.1845,-5.4549546
-1.1546633,2.201566,-6.000391,-31.775255,62.703278,-7.2675037
-1.3609116,2.6612308,-7.035792,-46.070683,56.853786,-2.851365
-1.7237704,2.3301902,-7.937444,-46.875584,31.044323,7.709267
-2.1465802,1.8923761,-8.60249,-35.284718,25.036148,10.97815
-2.3642468,2.0275815,-9.136618,-26.62735,7.399783,13.6043625
-2.0561967,2.364163,-9.703059,-15.412647,-1.7595601,19.631573
-2.0045505,2.3486269,-10.16844,-13.913497,-1.2033001,22.34401
-2.4294672,2.1102421,-10.65795,-14.996015,-11.482323,26.504423
-3.6610284,1.7167734,-11.027003,-10.524958,-26.354633,29.422152
-4.987533,1.838495,-11.273135,-5.601223,-49.774384,22.192995
-5.5840673,1.8654814,-11.633359,-5.938792,-82.801254,9.697871
-5.5695157,1.3203301,-11.540263,-4.1818495,-104.18712,10.735812
-6.1486325,0.19166584,-11.87801,-2.970933,-130.62549,8.714419
-6.7257257,-0.08873403,-12.176342,5.981434,-159.21138,6.9476027
-7.4187217,-0.6016334,-11.780877,23.690073,-202.02164,-6.4704537
-6.7175646,-0.6361776,-10.146592,33.75034,-246.46706,-13.689424
-5.080236,-0.26182744,-8.336533,34.254414,-275.35605,-11.437365
-2.71263,0.79498136,-6.777399,32.55105,-298.894,-10.863295
0.6697444,1.9015348,-3.737439,17.765995,-318.29456,-9.193868
3.8814905,1.7379131,-0.7155829,-9.240707,-342.4052,13.386482
9.369971,-0.12937745,2.2808292,-42.708866,-335.87753,48.031883
15.948184,-2.3117008,5.6875796,-36.347202,-287.57977,32.682217
19.56318,-2.3203762,7.780956,-30.195871,-233.275,29.270573
20.961197,-2.403469,9.284551,-27.98253,-177.15022,39.07339
19.69649,-3.457482,9.537288,-20.5037,-127.27348,41.87838
17.725197,-3.5045865,9.75868,6.7582,-62.976982,34.24671
15.814314,-2.3068705,9.940081,23.598513,-23.794306,19.362879
14.489503,-0.54000473,9.86417,34.270992,23.261103,4.7956924
12.214192,1.0847834,8.962699,37.438274,56.41713,-4.605055
9.507416,2.1403427,7.5702353,42.65538,80.719666,-4.1056924
7.1856213,2.4232755,6.4828377,33.036587,89.89613,-0.90406513
4.946491,1.812875,4.896056,25.138897,112.773254,8.60752
3.1091754,0.87337583,3.1385965,23.61958,117.90342,13.381976
1.5086124,-0.13804555,1.6854616,25.768414,129.1739,9.741782
0.79287666,-0.21509176,0.8363596,35.325893,135.91924,3.0439744
0.15667447,0.15388867,0.22470003,32.678925,125.3625,-7.691246
0.10667583,0.7266395,-0.09483894,28.992113,110.0299,-3.6251917
0.08152369,0.9675873,0.25653896,26.112797,106.39438,-10.171561
0.49577555,1.0968167,0.2661992,26.791273,106.36476,-13.142141
0.15061426,1.5089352,0.35549906,23.27883,105.427704,-12.664501
-0.10862686,1.0558896,-0.681391,18.83844,102.7674,-11.102263
-0.3463157,0.24320248,-1.2066684,19.393494,97.43745,-20.015697
-0.58522093,0.24684177,-1.6864686,15.583209,85.19493,-22.801283
-0.5266579,0.07762264,-1.9866521,22.07293,78.871414,-27.701975
-0.71491885,0.48474622,-2.1260602,20.542868,70.46472,-25.568771
-1.1355903,0.16547191,-2.5706208,20.45015,67.962074,-30.929594
-1.3769606,0.20330901,-3.7509398,26.3177,52.57917,-39.20065
-1.1784723,0.026714828,-4.062514,27.278034,49.846912,-38.840733
-0.8845625,0.025158063,-4.5297127,35.074932,40.524788,-35.001915
-0.7179139,0.3891488,-4.558836,39.49805,29.995996,-28.898754
-1.0339897,0.9956411,-5.044466,48.764606,26.407131,-29.30056
-2.3636208,2.45781,-4.843302,46.68,19.542212,-38.933735
-2.3681164,3.8470664,-4.6309457,49.389275,12.534581,-61.125534
-1.8581871,5.326532,-3.8512738,56.35987,7.53598,-83.591415
-0.4262504,9.145116,-1.5903493,43.45205,0.21617198,-89.93567
1.4225793,13.837253,1.7513181,-16.728857,6.0521507,-96.00302
3.2648258,17.120794,4.8653874,-74.02674,30.870573,-91.46632
1.6429253,17.21301,5.6322336,-139.10779,43.260048,-93.15144
0.17301539,15.578569,4.0628223,-186.32573,39.502895,-93.4161
-0.2990837,12.762323,1.9594902,-220.92937,30.202887,-89.92185
0.84935,8.292162,-1.4465594,-253.7288,19.563004,-87.04286
2.5423727,1.4714115,-5.378843,-239.57147,24.230831,-83.41758
3.1633477,-2.5158725,-7.4496193,-216.46872,26.859165,-75.88848
3.0009944,-4.8416023,-8.606248,-191.9219,22.705318,-72.931526
2.7834587,-6.8207974,-9.093384,-161.4318,25.410597,-70.172424
1.4246874,-8.197664,-9.175631,-115.41506,21.959509,-49.526367
-0.050662875,-7.778131,-8.835187,-93.16095,11.270046,-42.963135
-0.6184211,-7.455242,-8.4261,-60.51085,9.184132,-39.995556
-1.7986904,-6.2542005,-7.956623,-38.030277,8.41593,-39.439854
-3.5067878,-4.5481772,-7.3951073,-20.499329,0.57171607,-43.321445
-5.119798,-3.0698724,-6.864395,-13.683032,-18.341242,-41.56103
-7.0228086,-1.6608834,-7.043086,-19.908382,-45.102238,-38.41849
-7.0229263,-1.5838357,-6.9685493,-9.834524,-64.78402,-35.80541
-6.9327073,-0.94337106,-6.869503,-7.020767,-83.364395,-38.215523
-7.2318454,-0.95318687,-7.2093678,-0.5097928,-92.86598,-48.72269
-8.232146,-0.91656953,-7.896738,11.282861,-127.8018,-55.460648
-9.656657,-0.8926893,-8.501406,24.33322,-155.01031,-63.231716
-9.447225,-1.0377498,-8.468558,31.873055,-188.5997,-71.81008
-8.274021,-2.2110064,-8.25256,42.483,-221.58809,-76.91697
-6.345618,-2.8971815,-7.4918284,57.745377,-245.69238,-87.28825
-2.6011782,-1.8180423,-5.2220354,76.53159,-258.1907,-108.26172
5.7154436,0.8197318,-0.032078974,72.29678,-239.51132,-102.42914
9.877242,3.0401356,3.5853808,54.893063,-220.92352,-85.47513
14.260936,3.4973686,6.3982744,26.072289,-192.30591,-62.716724
17.96305,2.6351376,8.5645075,1.1652167,-150.7452,-31.726559
18.853388,1.5378067,9.101009,-21.818953,-84.28506,0.44599712
18.364202,-0.9947296,7.9903083,-29.479004,-51.82056,22.343945
16.620502,-2.8785965,6.465443,-33.9859,-15.003326,40.155403
14.575323,-4.155743,5.2005496,-22.836708,13.737591,54.30622
12.886172,-5.0889864,3.7478113,-7.4807186,36.452198,65.35582
11.014103,-6.1604395,2.6511385,15.355162,68.295105,72.40731
9.14457,-6.851835,0.93020004,36.04762,89.24058,81.83918
7.946994,-6.74254,-0.43942904,64.65914,115.51843,80.44482
6.2437506,-6.5009027,-1.1818593,91.16264,135.49696,74.38695
4.4882236,-6.4944987,-2.345411,116.71185,129.19,72.3002
3.740427,-5.8466234,-2.691529,138.01315,128.05124,89.53242
3.1725085,-4.0872946,-2.7256908,148.01726,126.30375,92.47747
2.7149417,-2.8909993,-2.918647,160.55266,135.55345,95.55506
2.2093263,-2.260877,-3.5278451,165.84663,139.21497,99.0602
1.3896042,-1.4776462,-4.353106,173.06316,133.11612,104.824814
1.1587789,0.021210358,-4.3729568,173.0166,129.54935,115.58945
0.32340342,2.1221697,-4.2080684,170.20573,117.09503,117.565895
-0.5175366,2.849863,-4.2754874,159.0492,109.86467,117.85287
-1.189806,2.8120296,-5.0319448,155.60521,106.029396,116.820335
-2.5188477,3.3681755,-5.4485283,149.28615,96.95363,118.762856
-3.6701798,4.3739076,-5.4129786,146.01404,79.25931,109.40753
-3.874427,5.915711,-4.653626,134.26703,58.863857,99.84921
-4.823839,7.0126457,-4.0446606,117.89212,44.801113,93.83681
-4.80519,6.3850226,-3.8898249,106.69206,24.960073,84.68746
-4.7700605,7.0341816,-3.695944,95.82057,13.052151,71.95916
-4.6783657,7.2610917,-2.9379232,80.82023,-5.0944924,64.72886
-4.0766106,7.7877083,-2.2171786,69.63176,-13.494442,51.580734
-3.8741052,7.5783777,-2.0017712,54.44944,-30.079361,41.48248
-3.4466755,7.630163,-2.067827,39.55769,-44.345207,33.654243
-2.2819757,7.0561132,-2.1871,30.482265,-53.711475,20.911224
-1.1299548,6.9124694,-2.1032166,17.333805,-47.79498,6.8971615
-0.829925,7.6871877,-2.285756,14.211519,-57.083546,-6.086182
0.1371447,8.847201,-2.0957012,5.103409,-67.56722,-12.635455
0.70354694,10.381561,-1.801687,-6.4716263,-79.9097,-15.00012
0.9969425,13.366222,-1.5194417,-19.219595,-94.34494,-23.125742
1.8347286,18.793266,0.77712524,-87.30053,-93.135506,-77.86491
5.8624277,23.578686,3.0998802,-173.49011,-51.697433,-114.72965
4.647266,23.161646,1.5099353,-231.96751,-37.548244,-112.992874
2.09812,20.580023,-1.3749034,-277.1949,-35.483,-112.25886
-0.6194866,16.345177,-3.8451524,-302.95685,-46.579285,-136.65834
-1.6392052,10.249905,-5.3026695,-322.1093,-54.20023,-158.68176
-0.8361795,1.252335,-7.2465324,-321.38055,-60.462147,-157.51895
2.6216266,-4.6937523,-8.908026,-307.51984,-63.42811,-155.96019
8.264065,-11.519314,-10.207872,-262.16794,-55.07831,-143.159
11.629005,-14.987163,-10.4885435,-218.33339,-38.77446,-117.06778
12.701558,-16.285183,-9.4528055,-154.99094,-13.631052,-67.007416
9.957768,-15.002193,-7.8166013,-118.448845,7.946507,-34.951443
5.9466248,-13.088576,-6.111203,-83.69438,10.94009,-16.327372
1.7778091,-11.12551,-4.0633717,-62.105423,20.295788,3.1505759
-0.9647045,-9.442046,-2.921677,-55.25166,11.699438,18.145796
-2.5149302,-7.687575,-1.8740284,-37.014416,1.3244212,23.190163
-3.0609975,-5.6923933,-1.0844936,-12.729823,-3.6098235,15.047578
-2.0869799,-4.2114763,-0.5362967,-3.0892296,-5.477258,12.682661
-2.0068617,-3.271567,-0.43813306,9.114343,1.024351,11.830889
-2.2030795,-2.277803,0.07109747,15.866969,-2.653428,8.947862
-1.8915809,-0.9479687,0.8994647,13.88702,-14.209208,17.896336
-1.1624504,-0.087688655,1.1724563,15.338264,-17.778952,14.900322
-0.019510264,0.35743308,1.0717328,11.6098175,-6.9628344,1.3452368
1.0534194,0.4710486,1.066375,5.834304,-2.0108948,3.2171488
1.2599941,0.5976218,0.5811285,5.1352124,4.0201855,10.619394
1.7215036,0.14642943,0.5522416,6.456635,12.631225,14.041452
1.5023106,-0.043058604,-0.21028513,11.240756,21.985031,25.982716
0.4224006,0.43455377,-0.040283896,24.201015,11.854788,13.785592
0.7288081,0.44620842,0.01919568,25.23743,6.3255467,24.604975
0.26771584,0.90879935,0.03289178,23.987375,8.496731,26.830067
0.05068112,0.8966047,0.66758835,22.282642,18.918081,37.249805
0.42954174,1.0054147,1.076734,22.493162,31.185606,41.24681
0.3442894,1.0486361,0.5511091,22.093107,57.140793,32.41833
0.0,0.0,0.0,0.0,0.0,0.0
0.0,0.0,0.0,0.0,0.0,0.0
0.0,0.0,0.0,0.0,0.0,0.0
0.0,0.0,0.0,0.0,0.0,0.0
0.0,0.0,0.0,0.0,0.0,0.0
0.0,0.0,0.0,0.0,0.0,0.0
0.0,0.0,0.0,0.0,0.0,0.0
0.0,0.0,0.0,0.0,0.0,0.0
0.0,0.0,0.0,0.0,0.0,0.0
0.0,0.0,0.0,0.0,0.0,0.0
0.0,0.0,0.0,0.0,0.0,0.0
0.0,0.0,0.0,0.0,0.0,0.0
0.0,0.0,0.0,0.0,0.0,0.0
0.0,0.0,0.0,0.0,0.0,0.0
0.0,0.0,0.0,0.0,0.0,0.0
0.0,0.0,0.0,0.0,0.0,0.0
0.0,0.0,0.0,0.0,0.0,0.0
0.0,0.0,0.0,0.0,0.0,0.0
0.0,0.0,0.0,0.0,0.0,0.0
0.0,0.0,0.0,0.0,0.0,0.0
0.0,0.0,0.0,0.0,0.0,0.0
0.0,0.0,0.0,0.0,0.0,0.0
0.0,0.0,0.0,0.0,0.0,0.0
0.0,0.0,0.0,0.0,0.0,0.0
