ax,ay,az,gx,gy,gz
-0.43421876,0.3724627,-1.3949897,9.124257,-4.834437,7.3143234
0.36694527,0.1144447,-0.24583846,4.5595617,-1.661444,-0.4592386
0.25492325,1.0648096,0.22002336,5.012421,-0.012406111,-5.3438063
0.49941188,0.8705288,0.5753106,1.8154048,-0.83796763,-2.7601492
0.71806985,0.6416632,0.5610537,0.41162243,-0.18732786,-4.6602044
0.6719594,0.5821325,0.8607771,-0.965453,9.533652,2.0330386
0.48203605,0.9595126,0.31975615,-1.2868314,13.498933,-0.2747662
0.08414441,0.5999262,0.2272394,-4.5719156,10.698069,-3.5632963
-0.08930574,0.53326565,0.73416597,-3.024521,4.0696573,-2.0771275
-0.48381785,0.8512968,0.14068238,-3.0538113,-2.3470147,1.3231592
-0.40711665,0.5726454,-0.09535693,-5.783313,-2.9968238,-0.5576241
-0.42485684,0.8053787,-0.2289601,-2.058142,-3.5715985,-0.38858068
-0.1904287,0.4155103,0.13982974,-3.6454368,0.9247589,0.68126136
-0.0130513385,0.60557556,-0.02064028,-4.7457914,-9.289929,1.08292
0.21771288,0.32365862,0.031064976,-2.3720622,-5.932354,-5.495299
0.3431302,0.3396502,0.114696644,-0.7789101,-3.1552682,-5.074476
0.734169,0.07662489,0.34175497,0.2928245,-3.863474,-9.516556
0.8505956,-0.11929645,-0.07344926,-2.3986578,-4.3808837,-5.1955605
1.091001,0.23031087,0.14991984,-6.744396,3.6610663,-3.4583573
0.88962656,0.15053251,-1.075955,-7.7543454,6.8450027,-4.2110567
0.77929246,-0.29306346,-1.6294743,-7.0848813,8.51758,-5.676767
0.48065805,-0.6165577,-2.3429663,-6.3794894,-3.8229516,0.6277596
0.33738935,-0.8357533,-3.3178725,-3.164524,-6.224372,1.1149402
0.49592656,-0.7113942,-4.233606,-4.649422,-13.569119,1.1493381
1.2053775,-1.4540142,-6.299152,-6.2744875,-19.866884,3.6337976
2.0586672,-2.1310277,-8.708785,-17.346304,-27.360579,9.707659
2.4650881,-3.045898,-11.178084,-23.428528,-38.69857,22.543602
1.5458969,-4.4604974,-14.475165,-33.052513,-63.188053,31.757475
-0.3277978,-6.506894,-16.179043,-38.43985,-121.84871,41.18805
-1.4954196,-7.9032793,-17.657198,-25.908346,-170.11919,50.81487
-0.7753041,-8.027286,-17.657532,-8.167598,-226.61972,62.20898
1.3177323,-7.5311804,-16.469727,4.502016,-276.12466,89.36044
4.1911216,-6.0878057,-14.385751,6.189152,-307.9077,107.61602
7.1718,-5.142857,-10.955444,-17.980038,-350.05542,132.47682
11.147214,-3.818232,-3.6555986,-8.677912,-357.93155,144.43178
13.000258,0.20250775,3.2609384,-5.421332,-335.15466,135.5178
13.648326,4.79562,9.925303,-18.870413,-299.8864,116.48199
13.434378,8.455222,15.637253,-47.355736,-258.64203,94.61055
13.368436,9.669422,19.856773,-80.72489,-201.69724,60.62755
12.818291,8.943388,23.945337,-97.56002,-154.84456,46.933342
12.377404,8.795103,25.328651,-100.05931,-102.014854,35.589386
12.319374,8.710972,26.512678,-109.21465,-34.183495,29.300581
10.747632,6.276663,23.525503,-52.63577,43.979687,-21.559507
7.7138677,3.816011,18.889603,-4.8529196,105.752335,-35.415478
5.8163834,3.033366,13.945904,5.6514435,115.97525,-38.25165
6.080946,2.206309,11.773346,5.652405,137.28528,-37.577538
6.6529584,1.0409228,9.89576,-5.5102606,149.39626,-26.890835
6.8751173,-0.17892684,8.582697,2.2396407,178.21294,-22.306454
6.432317,-1.2995852,6.427643,30.652922,210.76787,-32.039528
5.186308,-1.9490176,3.0560002,43.148956,232.47655,-31.473974
4.3982534,-2.1229396,1.5365878,56.449738,239.313,-32.39209
3.3246114,-2.7523196,-0.76476884,59.866352,237.77905,-35.51376
2.5973208,-2.4368253,-2.0402157,63.540295,242.58792,-34.091972
1.6360863,-2.5660734,-3.6350787,63.768055,234.00006,-29.92347
1.2223488,-2.4689682,-5.286998,60.48302,231.23662,-31.66508
0.6551484,-2.919944,-5.8803716,59.39686,221.41231,-24.8418
0.09279012,-3.6672525,-6.9385414,61.8975,204.67302,-20.795666
-0.34673655,-3.8657713,-7.6894794,65.67032,192.91331,-5.8015614
-0.694827,-3.8480704,-8.068041,65.147705,164.29678,14.763927
-0.52858615,-3.4346828,-8.692277,50.02658,139.90028,30.765324
-0.3418008,-3.3452306,-8.680501,40.073864,113.28531,42.27584
-0.053916886,-3.1504922,-8.322629,39.09996,87.12538,50.061707
0.22113612,-3.528858,-7.9154162,40.69562,53.05583,52.37253
0.91292393,-3.0957284,-7.307458,64.45284,26.5208,59.504646
1.6420013,-1.8352242,-6.7328587,92.29032,22.852985,49.99349
2.142096,-0.26469606,-6.3365116,110.55205,15.600262,45.593258
2.2153382,2.2582211,-5.5389023,115.51419,4.348726,40.168907
2.474148,4.2543144,-5.142272,109.14797,-5.9971776,12.137877
2.4242032,7.3874893,-4.8721514,92.09394,-22.988756,-28.42228
2.7785187,10.675783,-4.6156406,69.70313,-36.394073,-61.18678
3.0937328,11.817326,-4.3145595,50.890705,-41.90636,-93.8014
3.0818882,12.874463,-4.5875673,34.091465,-53.68931,-112.99933
2.7465997,13.587858,-4.4972873,7.6825433,-59.60876,-135.37532
2.995871,12.997021,-4.3924074,-44.710423,-69.19029,-168.25415
3.4899888,10.746239,-3.807633,-96.40754,-78.960075,-175.28671
3.4804199,7.818533,-3.4534855,-135.9631,-72.7945,-179.0514
3.9742765,3.718053,-3.2904072,-157.48538,-76.074196,-185.31625
3.8592486,-1.3474358,-2.8719482,-156.75485,-65.8073,-180.35268
3.1134055,-6.584654,-2.0727756,-126.644196,-60.524597,-159.9212
2.713798,-10.789339,-1.5152584,-86.14314,-51.87685,-139.55482
2.1776059,-12.061587,-1.8857416,-49.60441,-59.913246,-123.99079
1.2503045,-11.604625,-2.058148,-22.23839,-73.82372,-92.90092
1.7512208,-11.055211,-2.2691772,-18.179668,-96.94677,-65.6028
2.9249985,-11.45822,-2.9414005,-6.2198105,-109.21245,-44.33408
4.1469884,-12.329029,-4.4450464,20.224731,-111.28845,-22.017601
3.9619234,-11.362633,-5.684859,58.537243,-123.24133,-10.998112
3.6310487,-9.560221,-7.816781,83.93463,-126.687836,1.1828686
2.8016033,-7.325008,-10.163919,92.70221,-135.5619,14.535461
1.5600642,-5.0778604,-12.043111,73.81534,-166.29765,37.443077
0.2521775,-2.8422194,-13.969547,56.679363,-205.22217,37.374012
-0.6666774,-1.9909861,-14.000565,34.38984,-246.68028,44.89214
-0.7210441,-2.546764,-13.500718,15.938347,-282.75525,57.30921
0.5633596,-2.1790624,-11.748295,-7.547186,-301.13766,75.24332
2.1633153,-1.1695486,-8.245241,-14.773104,-304.5943,83.87242
3.7495105,0.75764215,-2.7506313,4.82909,-308.69656,69.691895
6.8731875,3.2665796,3.3600247,-3.8658938,-315.20465,59.520073
12.417024,5.327629,11.988892,-45.621925,-289.00092,67.08304
17.27323,5.371209,20.265228,-88.11639,-220.0544,63.24967
18.120907,4.6740556,24.309368,-72.70411,-88.15252,29.99491
14.240604,2.788887,22.836395,-65.88514,-24.506548,8.868423
10.305013,0.9960284,19.739588,-52.312393,26.518164,7.1069903
6.0675707,-0.7547224,15.667853,-36.12228,59.722736,4.5266247
3.4528785,-1.1201646,12.26812,-21.375216,74.867584,10.948312
2.64602,-0.98365325,9.714656,-6.121022,88.15146,12.686275
2.8163316,-0.6128972,7.782028,3.590307,99.90563,12.215714
3.3518224,-0.7212212,6.2555146,11.365928,106.0476,14.348783
3.4271247,-1.0631093,5.2180657,9.513304,126.31047,14.494573
3.2984693,-1.6217668,3.7623718,20.035032,140.37671,21.379856
2.5953736,-2.4688313,1.9136515,33.24859,153.75888,34.40439
2.1986864,-3.3331146,0.7095256,30.99933,163.18744,54.829193
1.790014,-3.4133632,-0.13837402,31.063108,160.23135,71.550964
1.4543726,-3.9958177,-1.5580279,35.97605,163.67044,79.796555
1.070749,-4.0703154,-2.4055152,42.185886,163.51178,97.616234
0.84914523,-3.7393003,-2.898284,35.20585,156.07396,128.4952
0.590633,-3.0974064,-3.6851473,26.52779,146.50111,148.72949
0.17839578,-2.406002,-4.3898826,22.948645,128.60849,163.24199
-0.24756217,-1.8238933,-4.5816865,23.740002,122.44086,175.78993
-0.49741304,-0.85591245,-4.892178,19.750929,109.45978,184.8942
-0.52411854,-1.0236644,-5.1717424,22.531038,88.004005,195.2033
-0.7129016,0.044712394,-5.260649,30.735884,76.348015,194.1406
-0.52741677,-0.15601173,-5.0307717,44.178143,57.067684,200.48737
-0.3946561,0.6959537,-5.7225184,51.202763,48.52233,213.42244
-0.31828645,1.5887576,-5.941152,65.13937,44.6914,214.41246
-0.078565136,2.5316741,-6.554121,73.57948,25.093472,200.6073
0.84627825,3.743606,-6.739802,92.062065,7.4385448,182.31424
2.562169,4.6009665,-6.568974,96.1918,-14.137136,164.3521
3.27413,6.043909,-6.0365405,92.88742,-23.268456,135.29448
3.9473732,9.23708,-6.081152,84.19728,-41.293976,95.4396
3.8186834,13.7941885,-5.8653793,59.68873,-68.84493,-0.06775251
5.3469043,16.485601,-6.0574927,31.780397,-74.33952,-78.53988
6.160084,17.102005,-6.8133497,-14.828917,-62.886604,-107.47929
5.530607,17.656202,-8.604712,-73.79253,-77.239746,-114.245155
4.630024,17.77378,-10.195174,-124.95893,-94.93286,-142.33868
4.0199795,17.246536,-11.678081,-146.77414,-122.45386,-205.77388
5.4177384,13.813747,-10.616403,-135.18596,-148.68327,-281.8736
7.578759,10.256804,-8.315721,-115.02228,-165.14261,-347.34863
10.30527,7.1099243,-5.102489,-116.903076,-183.47885,-392.42838
14.341171,3.241663,-0.64915866,-165.39534,-196.09189,-387.90408
19.273756,-3.5235403,4.67258,-266.8811,-158.77432,-326.41016
19.767403,-16.329418,9.132238,-292.4255,-84.156715,-251.30756
14.469991,-24.229404,7.7477593,-233.55875,-12.545567,-173.5974
7.8342586,-27.08425,5.679769,-131.3532,8.715835,-120.77298
3.196766,-24.542608,4.1382127,-38.28823,12.573145,-76.58156
0.60573083,-18.893173,2.6965857,26.615162,24.284834,-43.956627
-1.0542727,-12.181337,1.6889997,40.372566,19.541372,-21.252874
-1.525841,-8.34324,0.27179492,31.664068,23.495022,12.02284
-2.1817353,-5.2421794,-1.1062611,23.142508,19.735985,29.9537
-2.1239243,-2.576555,-1.361422,14.172674,14.375727,36.683865
-2.1275918,-0.6271334,-1.1574987,5.8057885,8.611135,43.666
-1.7915328,1.408482,-0.73722166,-3.4468038,1.9374645,36.269073
-1.7748294,1.7755735,-0.38323528,-14.329114,0.7699821,36.27957
-1.6031758,1.6635017,-0.32980335,-27.26245,-3.0304894,33.22834
-0.9685797,1.5192771,0.18831703,-31.342033,-1.8890033,31.031986
-0.61784613,0.6380631,0.32863918,-26.282864,2.656192,28.296095
-0.59686244,0.03851756,0.1345529,-17.692564,3.1115456,18.981632
-0.27981704,-0.052748337,0.37567198,-12.203695,-2.2196922,13.362125
0.0,0.0,0.0,0.0,0.0,0.0
0.0,0.0,0.0,0.0,0.0,0.0
0.0,0.0,0.0,0.0,0.0,0.0
0.0,0.0,0.0,0.0,0.0,0.0
0.0,0.0,0.0,0.0,0.0,0.0
0.0,0.0,0.0,0.0,0.0,0.0
0.0,0.0,0.0,0.0,0.0,0.0
0.0,0.0,0.0,0.0,0.0,0.0
0.0,0.0,0.0,0.0,0.0,0.0
0.0,0.0,0.0,0.0,0.0,0.0
0.0,0.0,0.0,0.0,0.0,0.0
0.0,0.0,0.0,0.0,0.0,0.0
0.0,0.0,0.0,0.0,0.0,0.0
0.0,0.0,0.0,0.0,0.0,0.0
0.0,0.0,0.0,0.0,0.0,0.0
0.0,0.0,0.0,0.0,0.0,0.0
0.0,0.0,0.0,0.0,0.0,0.0
0.0,0.0,0.0,0.0,0.0,0.0
0.0,0.0,0.0,0.0,0.0,0.0
0.0,0.0,0.0,0.0,0.0,0.0
0.0,0.0,0.0,0.0,0.0,0.0
0.0,0.0,0.0,0.0,0.0,0.0
0.0,0.0,0.0,0.0,0.0,0.0
0.0,0.0,0.0,0.0,0.0,0.0
