ax,ay,az,gx,gy,gz
0.006782748,-0.94330275,-4.965939,4.6234393,-25.652948,-2.727852
-0.37130097,-1.7012101,-5.5592475,20.100105,-29.639265,8.109949
-0.991328,-1.6583596,-6.0267034,25.403656,-37.0244,16.874956
-1.5071657,-1.616158,-6.7064734,18.053244,-48.643875,32.07826
-2.2961192,-1.6149246,-6.943482,4.572519,-51.75547,48.069263
-2.8330731,-1.8240571,-7.231277,-9.093773,-51.88213,53.704273
-3.5227087,-1.4078854,-6.7884383,-17.300385,-62.96254,61.52174
-3.2984965,-0.5520607,-6.363405,-26.02199,-75.290306,67.711754
-3.0481586,0.56472874,-5.5216403,-42.954002,-94.608925,64.224655
-2.6867044,0.7107808,-5.143861,-42.396397,-106.44962,59.446033
-1.7826806,0.9244668,-4.598434,-45.373543,-108.25676,56.573673
-1.9594806,0.634197,-4.3255205,-56.59977,-110.45836,65.16633
-2.5596077,0.70610774,-3.12502,-62.687607,-126.74253,61.00918
-1.8711503,1.5956424,-1.8174412,-67.3587,-139.53706,49.52014
-0.1802124,2.5625017,-0.5254529,-84.16834,-138.36594,45.895466
0.26703227,1.6979935,-0.18384232,-106.06477,-145.65685,52.670334
0.6658001,0.7290937,0.104196064,-117.37934,-149.5896,49.10557
1.3372542,0.2168352,1.2166808,-126.41523,-158.21013,52.238434
2.1790779,-0.43456566,2.3379552,-127.33402,-155.95172,45.405678
4.4008026,-1.7533016,3.841453,-117.8913,-149.60391,36.6787
6.173572,-3.001577,5.5322523,-107.330215,-140.62727,32.659245
7.353181,-3.5703297,6.865374,-96.59089,-126.11782,25.883291
8.2839,-4.6359253,7.7930627,-78.59243,-107.49629,23.66497
9.250828,-5.3181095,8.679305,-47.135815,-81.69518,10.217865
10.070186,-5.037332,9.540331,-23.966118,-60.17133,11.926519
9.635648,-4.1161933,9.995875,-10.607045,-37.519005,13.532483
9.506839,-3.408201,9.702886,0.63000625,-15.478068,16.490715
8.670387,-2.6502707,9.410598,9.481783,9.482669,31.218155
7.430988,-1.64583,8.010778,16.943098,34.81508,23.439924
5.769944,-0.6600249,6.7106175,27.381552,50.683994,17.046598
4.7586884,-0.91204304,5.114126,32.795696,61.421124,7.224631
3.799286,-1.0892043,4.305646,33.948742,70.06542,8.331217
3.0625317,-1.7665894,3.606743,40.61661,74.57701,20.746572
1.4342159,-2.455476,3.2876985,36.058464,76.40238,27.209867
-1.6529814,-4.4876842,4.381108,51.815517,66.4455,32.677658
-1.266098,-4.2968054,4.836179,73.397095,64.390274,15.536639
1.4806511,-2.4041045,4.6620774,90.18061,69.43399,4.614026
3.5235434,-0.82298017,4.103859,97.531944,90.42519,-4.9452934
3.9633703,0.31428152,3.6591117,95.31555,111.142166,-5.3128805
2.9361973,1.3962115,3.4790192,93.99115,123.91264,-14.508374
3.321207,1.8549566,3.5116258,88.002174,130.21143,-11.681236
3.433513,2.7862353,2.490107,70.63085,141.72469,-6.068989
2.560215,2.8127444,0.7271529,58.098392,145.90576,0.1958712
1.5879406,2.971829,-1.1625105,60.550396,141.86403,-26.013502
1.4478238,2.5020607,-3.3378973,63.46002,139.48244,-53.19504
1.6093967,1.8093337,-4.963678,56.850792,134.67259,-65.00653
1.3344296,0.803662,-6.2602644,41.603836,126.94744,-55.025806
0.49036822,0.017729279,-7.394148,31.160215,108.16877,-38.865337
-0.49906763,-1.1360135,-7.868131,34.973225,88.431175,-30.851082
-0.636029,-1.0694156,-8.064169,45.39752,66.74121,-37.217354
-0.3500531,-0.506155,-7.8404922,64.48933,52.68069,-49.842743
-0.098062225,1.2739108,-7.3620396,76.44323,41.60501,-65.51455
1.0844877,2.89982,-6.523919,77.38188,29.275394,-79.30733
2.2210038,5.053948,-5.334605,64.39192,25.844263,-89.42241
1.9894655,6.4432592,-4.5096507,52.99012,18.689278,-94.9065
2.2951744,7.8035593,-4.3865056,33.700397,10.949586,-104.405876
2.176452,7.7380257,-4.190496,11.663659,5.1938486,-112.31643
1.9162656,7.2463055,-3.9980419,-3.2983978,1.2595563,-122.05945
1.8247099,7.0322404,-3.7577357,-18.463362,-4.544058,-137.53452
1.5189613,6.124128,-3.5682266,-30.729055,2.175273,-147.78673
0.7309637,4.858426,-3.4324245,-35.53735,-0.24986684,-164.70128
0.39022845,4.046375,-3.4952216,-39.295837,-2.43645,-186.94229
0.2549402,3.8805687,-3.125383,-46.847893,-8.015515,-200.44444
-0.1260774,2.720983,-2.164068,-73.11935,-14.735839,-192.6078
-1.6089363,-0.26421142,-1.8770584,-81.520294,-24.106009,-188.79698
-1.4507738,-3.169052,-2.3513901,-75.22511,-35.738678,-203.41432
0.3738904,-5.1911945,-1.5074075,-66.10156,-47.14679,-206.49821
2.3645225,-7.4561586,-0.40616503,-70.4948,-54.918156,-172.11519
3.0785007,-9.998334,0.49282753,-80.6405,-45.301342,-111.37213
2.3649094,-12.201773,0.8914926,-73.306885,-38.290493,-72.52418
2.4753067,-11.713941,1.6303236,-55.652946,-26.169413,-63.899067
2.316008,-10.9934635,2.3049233,-36.179104,-12.011911,-55.194527
1.8651506,-9.756801,2.5097907,-22.595036,4.007319,-42.412254
0.52467084,-8.414534,1.8778815,-20.94579,12.138893,-17.2804
-0.58057696,-7.068333,1.4093561,-14.380646,17.311626,1.4665363
-1.063716,-5.9029155,1.1358072,-8.295288,18.55485,12.2256
-1.6455001,-5.1567826,0.25944996,-3.997815,19.034927,20.702137
-1.6765763,-4.447496,-0.40402788,2.1676445,19.325739,30.032923
-1.8685919,-3.9190044,-1.2172906,7.7589326,19.202747,33.287483
-2.314757,-3.0415275,-2.249348,14.666761,13.613919,36.741337
-2.5850208,-2.484985,-3.326318,14.225501,6.0682554,46.740215
-2.7380567,-1.754801,-4.277721,13.053273,-0.9996001,54.84217
-2.878788,-1.1350079,-5.23129,13.153782,-2.3694026,53.27777
-3.8486392,-0.96328723,-6.5056343,15.6779375,-26.029045,52.592155
-5.522682,-0.54152167,-8.055725,11.042288,-46.635387,55.896152
-6.039269,0.13705967,-8.664921,5.464699,-71.4909,58.291767
-6.517554,0.75527,-8.700294,-1.1756637,-93.255005,65.65614
-6.4154415,2.0611596,-8.119288,-7.1297026,-119.6632,63.664936
-5.5519137,2.8383808,-7.6187415,-24.232891,-147.3647,58.01755
-4.017558,3.7931774,-6.7243447,-36.21162,-158.43668,57.480995
-3.7765527,3.7871423,-6.4739866,-48.325558,-164.0578,50.76455
-3.8906832,3.4222002,-6.041136,-56.504486,-186.16791,41.640114
-2.9092674,2.849946,-5.1673045,-66.19105,-205.22661,37.499123
-0.8219321,1.7343272,-3.5958574,-77.565575,-213.61823,32.1332
3.3170156,0.21640562,-0.52589166,-86.8666,-209.0179,31.811836
6.5840235,-1.6157609,1.6565955,-83.370476,-195.81808,22.291782
9.520087,-3.6184154,4.0318985,-71.13062,-170.16486,20.2357
11.215313,-5.218954,6.0292044,-57.36525,-134.95538,14.605813
11.651406,-5.3838453,8.271631,-34.84356,-90.96946,11.1560755
11.094062,-3.51264,10.314821,-26.320179,-63.45093,14.315712
10.90603,-2.4902968,11.0328045,-35.960907,-31.549278,31.682785
9.821126,-2.7338722,10.982733,-43.266605,-7.031033,45.785824
8.532656,-3.6367517,10.067398,-40.320206,17.984997,51.536068
6.9879246,-4.7002788,8.791517,-14.478822,48.03507,41.850273
4.6555457,-5.202937,6.4816914,3.6918545,55.753246,41.845512
3.071815,-5.6567883,4.7361145,14.410757,60.281662,50.951435
1.4262251,-6.1979804,3.1418853,30.405163,57.23485,55.226902
0.37231433,-6.4312167,1.7531556,43.53545,53.280636,65.46901
-0.095798425,-6.8868675,0.63937646,57.25457,40.35888,88.79997
-1.0236055,-6.9767303,-0.42704743,72.538666,25.495594,99.06685
-1.3984661,-6.573798,-1.0059701,92.673645,15.943047,101.67418
-0.8826177,-5.937177,-1.485058,103.7273,16.818756,114.20422
-1.1218933,-4.79421,-2.0196023,110.2576,14.38036,122.171555
-1.5082811,-3.347719,-2.40005,126.07161,8.534528,128.12616
-1.8386613,-1.4832678,-2.4637773,125.272804,2.8989964,133.27779
-1.8820958,-0.25079438,-2.589008,120.56348,-7.320959,136.67297
-2.064713,0.24980977,-2.7633495,119.09526,-16.624477,140.92245
-1.8007715,0.91587543,-2.584097,119.51983,-20.325073,136.65509
-0.6905366,2.6828625,-2.0198991,115.372665,-14.788985,130.3824
-0.65748733,4.133255,-1.6926506,106.53477,-9.979447,124.882324
-1.3309499,4.3637033,-2.2477605,93.61688,-11.044692,116.22152
-1.5410639,4.0255594,-3.0287647,89.14661,-21.86202,102.17761
-0.79055136,4.0403876,-3.0430517,84.05505,-29.21512,86.64248
0.30183253,4.8411927,-2.7490597,73.92908,-32.34589,68.39929
1.6837276,5.3934307,-2.2545035,59.203056,-27.466461,62.230026
3.2934248,5.6685367,-1.8526807,41.788017,-24.237984,68.36047
3.9593184,5.9669666,-2.027343,28.105652,-18.475035,62.536324
3.8476799,6.3609953,-2.0230205,15.4448805,-12.815934,44.998417
4.172065,6.4591427,-1.8345151,5.936029,-9.279148,23.414452
4.504372,6.712702,-2.0718527,-4.130855,-4.6917653,8.863846
4.5186157,6.8211045,-2.406708,-13.401044,-4.052636,3.4563828
4.5094757,7.2707906,-2.13414,-22.251213,-4.7856975,-6.6870084
4.4587717,8.136432,-1.7983611,-31.521303,-1.0063372,-15.602635
3.8149948,8.841869,-1.7181447,-58.78896,3.9013293,-34.92888
2.6968307,8.618864,-2.0638518,-68.07878,1.8232663,-48.28114
2.527611,8.300457,-1.9149523,-83.23774,-0.2870909,-61.91935
3.335801,7.9704385,-2.1733105,-97.92122,2.9948728,-81.86985
3.5433493,7.9209557,-1.6289814,-102.84824,6.047292,-96.72474
3.878125,8.009286,-1.7743126,-116.484314,14.088653,-111.16154
3.4347663,6.8436856,-2.4064994,-130.96365,20.158268,-126.88195
2.872448,5.8215194,-2.5109751,-140.25465,21.769453,-140.87955
2.0796735,4.3125544,-3.1153102,-143.98521,17.431816,-153.63356
1.4972063,2.8087797,-3.663288,-147.3913,8.530538,-161.13808
1.5128356,0.5720816,-3.9187267,-149.3158,-3.822514,-168.77486
1.8260772,-1.6913656,-3.416446,-145.37953,-8.46702,-171.0563
2.1660407,-3.6057522,-2.918522,-144.5641,-13.14838,-168.05283
1.6675941,-6.1654153,-2.617334,-133.96059,-12.958235,-161.17468
1.0416608,-8.4303665,-2.1998115,-112.19391,-15.4033375,-152.43195
0.55357945,-9.826212,-1.6598711,-88.91177,-23.170258,-136.01144
0.3893376,-10.016167,-0.5234052,-72.24974,-27.361431,-120.743324
0.439542,-9.1366205,0.4128399,-58.937004,-26.452541,-102.901955
0.8086134,-8.56565,1.0299222,-54.467,-25.235973,-82.76561
1.217698,-8.245137,1.8733649,-50.411263,-19.579288,-64.90812
1.1360785,-8.167398,2.0446062,-35.988323,-11.155484,-46.408703
0.9132751,-7.6425505,2.1931837,-26.324875,-1.5305977,-34.073284
0.12956464,-7.308144,2.2965221,-14.333862,3.6923084,-27.440893
-0.37073812,-6.7479267,2.0718014,-5.2179036,7.0131283,-18.027786
-0.60679793,-6.066959,1.93148,0.4618801,8.711699,-3.864407
-0.41957495,-5.30888,2.1839886,10.820065,10.38695,4.7719107
-0.55647016,-4.5209846,2.1929615,12.714836,15.384628,18.026056
-0.55465597,-4.6490564,2.1110313,19.700039,13.509238,26.597565
-0.041337788,-5.0728974,2.2485697,27.26506,13.165496,27.768072
0.7502239,-5.2478714,2.3472047,35.983555,18.180437,33.41704
1.3819621,-4.9729285,2.6822112,44.318092,25.047632,45.81367
2.276048,-4.748495,2.9053004,49.23186,34.163647,49.723995
2.8669024,-4.5584965,3.3718894,57.212597,33.46558,51.743362
0.0,0.0,0.0,0.0,0.0,0.0
0.0,0.0,0.0,0.0,0.0,0.0
0.0,0.0,0.0,0.0,0.0,0.0
0.0,0.0,0.0,0.0,0.0,0.0
0.0,0.0,0.0,0.0,0.0,0.0
0.0,0.0,0.0,0.0,0.0,0.0
0.0,0.0,0.0,0.0,0.0,0.0
0.0,0.0,0.0,0.0,0.0,0.0
0.0,0.0,0.0,0.0,0.0,0.0
0.0,0.0,0.0,0.0,0.0,0.0
0.0,0.0,0.0,0.0,0.0,0.0
0.0,0.0,0.0,0.0,0.0,0.0
0.0,0.0,0.0,0.0,0.0,0.0
0.0,0.0,0.0,0.0,0.0,0.0
