ax,ay,az,gx,gy,gz
-1.7984059,0.70558846,-5.6115875,-19.407574,-59.99781,2.5164125
-2.1999085,0.7914382,-6.544601,-13.333315,-66.96163,2.1729658
-2.6874368,1.2015818,-7.516439,-14.146014,-71.28135,-7.3276615
-3.6912422,0.66719216,-9.37433,-0.4532503,-105.83968,-25.783981
-4.5115814,0.5980754,-10.046543,-10.055311,-133.31712,-32.414585
-5.369701,0.057479605,-10.273689,-19.852222,-163.91528,-33.283928
-4.9507213,-0.3025774,-9.854517,-19.165789,-186.62218,-22.19987
-4.0888715,0.004767686,-9.044543,-23.361956,-199.20169,-12.434318
-3.2211685,1.4234562,-8.770661,-18.399204,-224.83006,-25.760666
-2.1624682,1.2434394,-8.41581,-14.002567,-245.44705,-40.36286
-1.3932631,0.021774458,-7.609279,-0.90110445,-256.0641,-53.264175
-0.76906115,-0.54117805,-6.295573,-3.1746151,-269.2284,-54.43628
1.1669259,-0.8976043,-4.8743577,-4.902749,-276.32306,-46.125885
4.374022,-2.052612,-2.2969728,3.1784592,-275.88083,-24.125782
10.013879,-1.8450778,1.9805336,12.81473,-260.51743,-15.447686
13.699364,0.0572374,5.307882,11.339247,-231.47823,-25.994875
17.147694,-0.06528732,9.177977,13.004444,-187.98024,-31.59796
19.812943,-0.58120555,11.995329,15.573876,-124.22858,-27.657562
20.647753,-0.84255576,13.773692,5.1348877,-38.297226,-16.869354
18.977789,-0.90808433,13.8083105,-2.4308019,15.91582,-15.088776
17.51621,-0.7997978,13.56348,-15.328936,56.08241,-7.467586
16.457352,-0.5449386,12.636609,-23.07204,98.12919,-6.2671123
13.796468,-0.93528533,9.555459,0.17903715,127.241745,-1.7216425
9.869225,-0.9347036,6.5349035,25.215124,140.04265,-2.7552466
7.0524354,-1.2641813,4.6591296,23.788763,141.95786,-0.71249866
5.566497,-1.2234002,3.426959,15.810555,150.46672,2.7602034
4.1543126,-1.3975643,2.2676632,13.158785,160.75253,1.0243554
3.2292914,-1.3890438,1.368529,17.22544,169.38596,-5.2753882
1.8152984,-1.621137,-0.036071107,51.679935,167.56544,-14.366123
-0.34692582,-1.512751,-1.4440266,58.61334,153.86835,-18.863607
-0.45563376,-1.4388553,-1.7494537,62.17302,140.02078,-14.299912
-0.27844578,-1.022279,-1.9129889,55.76639,129.9098,-10.17759
-0.21946147,-0.875407,-1.7420132,49.59102,129.3215,-3.364708
-0.45941958,-0.3552093,-2.267558,40.21443,135.03705,-4.1583843
-1.2968637,-0.3744254,-3.6897578,51.89138,137.29213,-21.185492
-2.212086,-0.74274576,-4.5705085,65.861725,128.66414,-33.493366
-2.4524152,0.2795433,-4.9489045,64.58781,122.31239,-30.044992
-2.6166334,0.19062196,-4.8015447,51.186634,101.49071,-21.027792
-2.6607802,0.6127869,-5.121262,35.220417,82.00763,-5.327655
-2.824188,0.90078616,-5.4585896,28.513523,64.76609,-2.6243706
-2.1776633,1.5245343,-5.0977435,31.001904,57.120773,-12.951875
-1.7390108,2.0671144,-5.0664973,40.074345,55.08306,-29.355492
-1.3366518,2.8492322,-5.0490713,44.841858,49.834152,-45.14148
-1.2508057,3.588965,-4.9663815,34.40699,31.724041,-48.37586
-0.9774601,4.55947,-5.1404824,17.258923,19.564327,-45.357388
-0.5891617,5.7308626,-4.4736137,7.489271,5.1884465,-46.06538
0.62138134,7.3429804,-3.6710157,-11.425092,-2.0885704,-53.4595
1.3807817,8.565232,-2.6979678,-34.450817,2.6764302,-68.56192
1.4916984,8.479671,-2.1643038,-49.388313,23.183807,-86.4574
0.50942075,7.5266094,-2.8046598,-70.018585,28.454374,-99.18622
-0.5356804,7.066179,-3.224921,-84.4075,22.497314,-103.67397
-1.0564567,6.0049753,-3.685088,-105.004776,11.791919,-100.61297
-1.2430459,4.5468903,-4.145857,-127.70653,-7.0820274,-96.85691
-0.5005073,1.5333779,-4.1527963,-141.3383,-23.144417,-82.17277
0.14893338,-2.1345673,-3.84144,-141.01659,-32.366844,-65.579285
1.5906582,-4.590563,-3.0330396,-130.26715,-34.91522,-52.454456
2.4292479,-6.0546093,-2.2908459,-113.715065,-25.241009,-48.47274
2.576806,-6.7139115,-1.6654036,-86.47973,-14.095122,-47.569756
2.1428404,-7.1268024,-1.7762132,-67.92771,-5.590603,-34.494843
1.1669375,-6.857577,-2.1409717,-55.984238,-7.757112,-26.040764
-0.13628328,-6.5062046,-2.5780184,-44.52329,-8.620048,-16.109358
-1.2744427,-6.425844,-3.3457131,-29.178032,-17.086828,-10.639251
-2.2173476,-5.715835,-3.6950896,-15.051932,-24.498892,-7.7185616
-2.7369466,-4.6733227,-4.0136013,-0.19106126,-35.654205,-4.691719
-2.9208717,-3.4618237,-4.397066,7.001495,-48.148872,-3.5193725
-3.0340455,-2.1490662,-4.77991,8.094603,-60.167778,-5.910768
-3.1499724,-1.4210125,-5.2079434,10.056453,-69.40173,-3.9783502
-3.382275,-1.3693373,-5.519067,3.4433436,-90.44348,-1.1229922
-3.5166316,-1.3673886,-6.4711695,-2.9650116,-118.972786,10.070455
-3.2706606,-2.9251614,-6.5282454,-7.7924356,-137.3951,14.458028
-3.6575794,-3.3351274,-6.371385,0.50071955,-154.92232,13.634107
-4.223051,-3.0954351,-5.7488837,11.679055,-178.4928,13.756016
-4.4255695,-2.6444716,-5.2857995,17.609718,-202.40898,16.232733
-3.4113345,-1.5516031,-3.5590928,16.389198,-237.41348,13.2788105
1.3535258,1.4091427,0.91079915,9.042307,-225.49146,12.948793
4.9206977,3.289533,4.6262817,-4.445301,-204.0278,11.945114
9.188444,3.9146082,8.128525,-33.40634,-165.38974,13.709311
15.633151,2.0084987,12.420819,-51.45164,-84.64853,20.86384
20.385296,-0.035733983,14.649785,-37.434967,72.11496,27.440422
16.739676,-3.480872,10.661235,-18.593502,139.11552,17.904865
11.265104,-6.23971,7.162236,-21.222494,143.85207,38.472904
6.9100633,-7.1846304,4.8789177,-23.370897,136.9991,62.122868
4.4018407,-7.6628313,3.6076252,-21.335196,122.20978,71.06069
3.0469897,-7.9860797,2.568421,9.100098,122.02917,63.133503
1.9374886,-7.7222285,0.9246175,57.42328,122.97392,56.056797
0.6571287,-6.818575,-0.52639866,97.65033,100.93247,66.15298
-0.09254877,-6.1638746,-1.2461803,130.96841,82.040085,84.24768
-1.3641337,-3.9972603,-2.3151662,155.42783,62.44062,89.723206
-1.4855863,-0.4548371,-2.8144343,140.19316,46.90401,70.99563
-2.097301,-0.57183135,-3.94727,133.26765,33.225605,66.47515
-2.5683463,-0.8928034,-4.129621,134.61269,22.279688,58.60158
-2.4057455,-0.24516997,-3.976171,136.42523,4.339816,52.872524
-1.8882976,-0.049517587,-3.8180726,134.18044,-5.56546,60.918777
-1.4178678,0.27720284,-3.482314,130.30087,-8.753838,85.64595
-1.6594356,1.7425249,-3.702527,134.1961,-12.991557,90.33219
-1.5715088,3.4470181,-3.5466282,128.41173,-15.5339985,75.55108
-1.8176899,4.2855296,-3.243405,124.46448,-15.438111,58.87421
-2.008345,4.7724733,-3.5600832,120.30184,-22.564482,55.553787
-2.576943,5.420409,-3.8297184,101.43859,-42.24172,63.889935
-2.257697,6.775381,-3.5826864,78.885025,-52.86887,63.83089
-1.1326001,7.9260855,-2.8203332,62.768875,-61.260265,51.04705
-0.29427904,8.664087,-2.1463482,56.208538,-56.51762,23.29519
0.4174352,9.048271,-1.5663036,47.707306,-46.688736,1.5929177
0.45044038,9.241846,-1.8743759,27.311224,-40.94403,-4.5631948
0.3495682,10.1873255,-2.1417763,-5.874618,-49.418644,-3.8475375
0.8892846,10.852082,-2.0569642,-47.402397,-51.55796,-10.36553
1.5874074,10.556183,-1.6479645,-79.25426,-48.518406,-23.952518
2.1905494,10.108455,-1.416178,-99.25756,-40.145866,-44.422176
2.4006407,9.160023,-1.2611337,-116.24104,-20.812761,-70.07642
2.1093526,7.699683,-1.994316,-132.90456,-16.93558,-74.0559
1.9691056,6.870966,-2.8107662,-145.01825,-18.606712,-73.82648
1.6847082,6.1252937,-2.949188,-160.87029,-23.959274,-72.766
1.7314973,5.2663674,-2.9948835,-174.62468,-29.338926,-79.12394
2.5004628,4.692409,-2.6777565,-177.72485,-20.612041,-94.36956
3.0795608,3.3599277,-2.2090871,-186.64482,-14.933544,-105.630714
3.2675757,1.4465748,-2.634836,-194.14468,-9.837005,-104.78363
3.4154637,-1.3539884,-2.581493,-196.98378,-10.868988,-98.576164
3.9996965,-3.4281323,-2.3993936,-194.14055,-7.0737333,-86.11942
4.3378325,-4.699994,-1.8615606,-177.93037,-2.0436735,-71.93713
4.226534,-5.9204807,-1.3994763,-167.07544,11.642453,-69.01307
3.632741,-7.4970474,-1.25196,-142.94614,15.302717,-72.580154
2.7569335,-9.101047,-1.1875416,-122.959076,25.023354,-62.4064
1.6571355,-9.608149,-1.2892419,-105.48427,32.251743,-47.06528
0.20966023,-9.414226,-1.5180179,-71.95842,17.814749,-26.198126
-0.53746444,-8.196777,-1.3774539,-52.09789,10.32628,-20.221695
-0.43602213,-7.206004,-0.9460111,-34.947502,4.290307,-16.302876
-0.48038352,-5.9965997,-0.59717286,-22.619356,8.729326,-12.031295
-0.8867141,-5.4358907,-0.45808676,-9.881605,11.145971,-8.882147
-1.2869207,-4.6498766,-0.72483873,0.7924979,2.8878717,-0.66876066
-1.5870205,-3.6319911,-0.76566714,8.463597,1.320579,5.323759
-1.8049976,-2.9587302,-0.5140481,11.958789,-5.618718,8.84101
-1.7044405,-2.1092663,-0.30163163,15.258474,-13.155373,12.610345
-1.2149016,-1.0277886,0.08577335,15.1609745,-13.853335,11.755032
-0.85391307,-0.5690503,0.30850497,11.487148,-8.597154,8.737073
-0.6702157,0.2135438,0.3645901,13.067864,-9.893284,6.302762
-0.4496783,0.14213,0.57756984,15.607566,-6.1695647,8.000019
-0.20752694,0.19909859,0.35725057,8.692963,-4.3604646,11.201557
-0.17428045,0.39422733,0.5414168,5.4040546,-6.7648563,15.086513
0.083949886,0.41195685,0.42148307,-2.118917,-6.3026404,14.635933
0.07163541,0.31044176,0.43363658,1.6831319,-2.3356538,12.602041
-0.087436594,0.4704804,0.41986617,0.78797865,-2.4004486,9.43873
0.036443144,0.47250906,0.23640785,3.6838968,-1.0522647,10.951674
0.18401763,0.43504807,0.3170991,5.9372926,-1.1532402,10.793093
0.37626147,0.64305764,0.46991536,2.6098754,-0.24574572,12.880759
0.24919565,0.4300772,0.17566258,2.430871,-3.1027248,14.890989
0.5817603,-0.26998514,0.12920187,8.624809,3.2339196,17.42937
1.0412753,-0.74193215,0.6067194,14.773589,11.6941395,30.394196
0.0,0.0,0.0,0.0,0.0,0.0
0.0,0.0,0.0,0.0,0.0,0.0
0.0,0.0,0.0,0.0,0.0,0.0
0.0,0.0,0.0,0.0,0.0,0.0
0.0,0.0,0.0,0.0,0.0,0.0
0.0,0.0,0.0,0.0,0.0,0.0
0.0,0.0,0.0,0.0,0.0,0.0
0.0,0.0,0.0,0.0,0.0,0.0
0.0,0.0,0.0,0.0,0.0,0.0
0.0,0.0,0.0,0.0,0.0,0.0
0.0,0.0,0.0,0.0,0.0,0.0
0.0,0.0,0.0,0.0,0.0,0.0
0.0,0.0,0.0,0.0,0.0,0.0
0.0,0.0,0.0,0.0,0.0,0.0
0.0,0.0,0.0,0.0,0.0,0.0
0.0,0.0,0.0,0.0,0.0,0.0
0.0,0.0,0.0,0.0,0.0,0.0
0.0,0.0,0.0,0.0,0.0,0.0
0.0,0.0,0.0,0.0,0.0,0.0
0.0,0.0,0.0,0.0,0.0,0.0
0.0,0.0,0.0,0.0,0.0,0.0
0.0,0.0,0.0,0.0,0.0,0.0
0.0,0.0,0.0,0.0,0.0,0.0
0.0,0.0,0.0,0.0,0.0,0.0
0.0,0.0,0.0,0.0,0.0,0.0
0.0,0.0,0.0,0.0,0.0,0.0
0.0,0.0,0.0,0.0,0.0,0.0
0.0,0.0,0.0,0.0,0.0,0.0
0.0,0.0,0.0,0.0,0.0,0.0
0.0,0.0,0.0,0.0,0.0,0.0
0.0,0.0,0.0,0.0,0.0,0.0
0.0,0.0,0.0,0.0,0.0,0.0
0.0,0.0,0.0,0.0,0.0,0.0
