ax,ay,az,gx,gy,gz
-1.7289025,-1.0657156,-5.43337,-2.9045749,20.833849,7.0445795
-2.6926823,-1.8082986,-6.4656067,4.9701266,13.288327,6.709968
-3.5663393,-1.7753701,-7.12775,15.827393,-3.7925868,-5.858862
-4.103142,-2.1155987,-7.5015306,23.737177,-27.554043,-3.1045165
-3.7722638,-2.4855905,-7.690505,17.863182,-43.022644,10.317283
-3.422598,-3.0306406,-7.7189527,12.550015,-54.96817,31.116093
-3.2349799,-3.1643,-7.735743,9.50155,-60.458042,38.172848
-3.7068546,-3.7864995,-7.7787986,21.029772,-74.66858,38.28758
-4.1404486,-4.3452835,-7.473224,19.58242,-87.95962,46.251934
-4.1947813,-3.8081686,-6.823932,23.80992,-103.32427,65.88446
-4.0584626,-2.5541847,-5.8682294,17.05642,-126.45599,82.33365
-3.4256845,-1.0704623,-4.7819676,11.257613,-142.47307,87.34227
-2.7351913,-0.21935922,-3.4423754,0.79300004,-162.67397,91.72111
-2.6201775,1.6526816,-2.2006438,-18.408993,-168.19586,87.14179
-2.1657228,2.0350928,-0.62388223,-27.551575,-182.73732,80.32363
-0.54419625,1.819141,0.85700387,-28.84407,-206.3938,81.24781
2.3957434,1.02794,1.798489,-39.949986,-211.74165,96.48756
5.093126,0.42741153,2.3216772,-45.77987,-199.6706,106.15417
7.834046,0.2770992,3.603805,-39.234222,-176.28899,91.18829
9.337712,1.6622832,5.048581,-38.44439,-148.31738,77.05058
9.367669,1.2539474,5.7985806,-40.76268,-119.744736,70.46167
8.894667,0.3099007,5.733272,-40.431896,-108.11259,65.36224
9.368171,-0.39614767,5.601828,-26.700956,-96.8978,62.639362
10.904094,0.08207922,6.8589,-16.566517,-78.40978,57.59394
12.272197,0.6198624,7.846794,-8.61836,-45.733025,49.954914
13.299592,1.6547413,8.44341,-8.265919,-13.085195,38.73475
13.303822,2.1689157,8.848469,-7.2968464,17.72224,27.499798
12.965558,2.724182,8.739845,10.187567,61.517334,7.7221847
11.585855,2.6768742,7.965482,17.2396,80.97688,2.9249833
10.706464,2.086393,7.3613415,18.406858,103.22122,-4.187549
9.462921,2.059654,7.0350776,18.854675,126.18407,-16.382544
8.94512,1.2177753,6.7236443,20.694157,152.8537,-30.761133
8.580339,1.1903857,6.1494756,21.954597,196.21626,-49.607143
6.081475,1.0389607,3.9654675,35.052197,216.96872,-69.10672
3.1172106,-0.664794,1.5394689,29.913315,228.56409,-68.462944
0.10647909,-3.1441126,-0.68625444,29.861332,228.45729,-63.696777
-2.8015141,-3.5895078,-2.6091704,27.180777,226.62526,-55.477734
-5.7125406,-3.1344872,-4.114175,27.659967,190.36223,-61.827297
-7.419128,-3.3398714,-5.6419067,25.559673,151.16591,-69.44309
-7.969911,-4.604753,-6.797742,29.116371,107.39654,-65.479774
-7.2135005,-5.0456414,-7.718986,38.003822,58.857807,-72.53182
-5.481134,-4.912907,-7.746531,37.07645,26.836948,-61.885178
-2.7831569,-4.2373304,-7.3117957,41.6264,12.951521,-38.319954
0.019513447,-3.0211008,-6.3255343,43.137234,21.595242,-19.50427
-0.24543439,-2.1867063,-6.195623,42.967323,36.616528,-10.800229
-1.1397079,-1.1012092,-6.3196816,52.196575,34.476887,-22.729662
-1.115236,0.10389379,-6.214288,55.551003,28.147957,-30.613392
-0.6713736,2.3035638,-5.325387,39.44636,23.294441,-28.854176
0.48109016,4.2138824,-4.6849957,27.487057,12.685629,-25.306824
1.2542824,4.7082267,-4.2488494,14.686449,15.966304,-20.813322
1.3209797,5.616878,-4.42043,2.4691193,18.009998,-19.378056
0.5835097,5.339027,-4.658733,-6.0813913,13.316085,-26.354017
0.35408095,4.8765306,-4.6747513,-11.35766,8.052436,-30.025345
-0.36185142,5.1727934,-4.7617106,-17.444807,3.573886,-35.60506
-1.2408597,4.7505674,-4.4846883,-29.112099,-4.6651506,-36.737164
-2.2483099,4.352193,-4.858933,-38.142868,-9.315396,-38.683083
-2.8851156,4.1627173,-4.8595004,-46.59738,-17.8844,-50.32727
-2.486332,4.366764,-4.3615828,-50.08177,-29.61615,-77.465324
-0.80579346,5.738635,-3.1905265,-57.203796,-37.710953,-84.31684
0.40528837,7.178398,-1.6869142,-79.72903,-37.458916,-78.230644
1.6235332,7.5780935,-0.39768434,-116.011826,-39.356365,-69.51163
2.1672566,6.5576468,1.1002281,-136.57463,-29.450027,-73.4942
1.3438549,4.424059,1.362496,-137.11288,-22.018253,-88.17978
0.41520077,0.90457255,1.0538089,-139.93857,-37.71408,-104.537285
1.5858715,-2.5244045,1.9516388,-141.66295,-47.713966,-102.5193
3.3347538,-5.380968,2.4462125,-123.34402,-37.55788,-105.90473
4.355028,-6.6330104,2.677772,-108.50092,-21.244648,-113.85915
4.759621,-7.1128974,3.050683,-84.39732,-0.77399755,-105.099266
4.1786485,-8.232196,2.9875338,-74.066765,10.916248,-91.66823
3.4135902,-8.6265135,2.8013093,-58.773182,20.404533,-76.82122
2.2896504,-8.285617,2.304211,-45.36356,30.49158,-64.17169
1.296166,-7.6760902,1.9609964,-38.027744,35.017048,-53.316162
0.36472195,-6.9478025,0.9966416,-24.565376,43.298244,-30.945179
-1.5631895,-7.182183,-0.83132213,-14.492838,39.552414,-24.008957
-2.723598,-7.4558005,-1.8702021,-1.1775533,29.757803,-15.8095
-3.0421708,-7.194108,-2.872097,16.95844,17.270988,-18.710772
-3.5099537,-6.444679,-3.3797493,27.507454,7.2437615,-9.19227
-3.851373,-5.563721,-4.026695,34.21087,-10.233202,0.6319448
-3.9824421,-3.6059945,-4.4699984,41.539207,-22.568308,15.236334
-4.0199203,-2.3909154,-4.95584,42.68936,-35.942516,23.572874
-3.8710802,-0.8556445,-4.967562,42.745197,-40.70333,23.294159
-4.01529,-0.11630036,-5.720957,36.86833,-47.22304,23.404179
-4.382923,0.45311713,-6.476394,30.26944,-56.59416,20.820093
-5.3959146,0.896007,-7.487828,20.209444,-73.02986,16.11792
-6.1239767,0.038151585,-7.6027184,23.884764,-89.96308,6.4287357
-6.771874,-0.62109363,-7.3262615,19.330006,-110.82604,-3.3147008
-6.7529545,-1.4728302,-6.945527,14.2899685,-129.2358,9.645168
-6.320033,-1.7854887,-6.723662,0.6165168,-158.78412,52.14075
-6.1988363,-0.92372537,-5.945266,-1.1962756,-180.7895,57.760952
-4.7756233,0.73291844,-4.185671,-2.7584474,-206.50241,41.313786
-2.1838582,1.7988683,-2.1619618,-13.805318,-217.96164,42.325634
1.63678,2.1807542,0.2401093,-31.402822,-212.37994,59.46877
4.1940126,1.8505452,2.0718584,-45.519894,-195.02359,66.97918
6.6848927,-0.080151096,3.7213347,-50.31096,-187.33894,48.60532
9.827978,-2.0951986,5.2425785,-47.581154,-167.80795,43.892914
12.464234,-3.3284597,6.3535285,-43.569763,-132.52,54.53094
12.8417425,-4.391182,7.2048182,-42.74547,-89.486725,57.776833
11.051289,-5.7105885,6.825292,-29.420807,-52.672314,59.20854
9.893674,-7.318244,5.7445226,-11.7314625,-33.709328,64.117226
9.139749,-8.269343,4.94172,5.794361,-13.70861,78.20286
7.63181,-8.624202,3.9201982,25.272778,4.6123915,92.591324
5.6939015,-8.640304,3.0425632,46.121,18.856607,100.56973
3.6648223,-7.76503,1.9850408,76.49615,22.377798,101.34697
2.2252307,-6.851602,0.7760888,97.650795,11.114547,105.26189
2.1081598,-5.5719705,0.31279242,112.45959,-1.1350344,111.11208
2.6489942,-4.8503313,0.43604088,124.92413,-3.2172737,116.408966
3.5098674,-3.4252121,0.52806306,131.92287,-2.3553529,117.254845
4.238131,-2.1225994,0.5779719,136.59607,19.47992,114.64298
4.0757103,-0.6835946,-0.14061737,141.03203,29.976774,110.28456
2.6184916,-0.32165307,-0.8045314,149.46912,40.991238,108.63029
1.0008503,0.4461574,-1.1558764,147.30124,41.688335,106.79315
-0.08484122,2.2458377,-1.3397539,145.68332,37.64195,102.45149
-0.49149194,4.7084203,-1.310865,131.72696,33.240772,91.75951
-0.10612575,6.877121,-1.3227507,123.25683,31.072495,65.32471
0.056622654,6.747959,-1.7567948,109.09702,30.630898,55.25801
0.18896177,6.3632216,-2.3357005,93.12871,22.682356,53.446064
0.4002488,5.972423,-3.0437775,83.17348,20.003794,45.199287
0.91612536,6.137481,-2.9015841,61.714363,22.947842,32.725613
1.3832967,6.3669004,-3.2987194,43.080242,28.653147,34.442623
0.8291741,6.9507427,-3.7064068,28.701836,26.438942,27.755665
0.8315359,7.97785,-3.7144923,19.091423,18.353947,13.873428
1.3988338,8.479848,-3.386559,3.1430192,9.35389,6.5653434
2.0606136,9.435458,-3.1804397,-18.480513,18.208292,-7.4288087
1.506169,9.734613,-3.2942507,-34.843918,17.019287,-24.823854
1.148833,10.390498,-3.6611962,-50.95726,12.3548155,-36.164936
1.18014,10.240348,-3.2001379,-69.500374,4.2411566,-46.959568
1.5555148,10.017307,-3.2040255,-91.83044,0.9014319,-54.55144
2.4574375,9.431308,-3.2821827,-120.2936,5.5434475,-69.8001
2.6549013,8.148608,-3.2193365,-135.52719,11.434447,-80.105896
2.232093,7.310796,-3.5717092,-147.60474,17.645287,-92.97824
1.4905474,6.2306566,-4.2590117,-156.74915,14.367777,-109.214935
0.95256346,5.106794,-4.4760566,-183.60736,-1.8550336,-123.1152
2.2878025,1.7460188,-3.702969,-210.20341,-0.25130177,-150.3197
1.1765437,-0.81366986,-3.26282,-211.22664,6.0635543,-157.75888
-0.54226184,-4.3389516,-3.1276555,-199.97374,-3.336655,-169.25198
-1.6905873,-8.135108,-3.7919888,-178.41702,-25.663597,-169.02086
-1.2077217,-11.412598,-3.9561307,-146.66696,-63.348976,-154.53357
3.6243138,-13.092987,-2.1144462,-123.814896,-62.522102,-122.01832
5.699403,-13.085016,-0.269541,-102.157036,-35.226475,-92.04124
4.6681137,-11.710745,0.8756141,-75.38009,-7.817094,-79.18814
2.4124331,-10.252434,1.4258,-45.198242,0.9542912,-55.592876
1.0261494,-8.29547,1.8982481,-42.26467,-0.88840157,-40.23486
1.1807384,-7.4623404,1.975884,-31.146652,0.77387905,-23.799511
1.3134909,-6.9061604,1.8210272,-24.487501,4.996703,-17.933727
2.191029,-6.9243526,2.0130186,-18.78232,11.162579,-3.1564946
3.4101005,-7.005192,2.0836303,-19.449385,37.83375,21.991438
2.5475683,-7.084888,2.0457413,-18.670053,53.823452,32.693718
0.0,0.0,0.0,0.0,0.0,0.0
0.0,0.0,0.0,0.0,0.0,0.0
0.0,0.0,0.0,0.0,0.0,0.0
0.0,0.0,0.0,0.0,0.0,0.0
0.0,0.0,0.0,0.0,0.0,0.0
0.0,0.0,0.0,0.0,0.0,0.0
0.0,0.0,0.0,0.0,0.0,0.0
0.0,0.0,0.0,0.0,0.0,0.0
0.0,0.0,0.0,0.0,0.0,0.0
0.0,0.0,0.0,0.0,0.0,0.0
0.0,0.0,0.0,0.0,0.0,0.0
0.0,0.0,0.0,0.0,0.0,0.0
0.0,0.0,0.0,0.0,0.0,0.0
0.0,0.0,0.0,0.0,0.0,0.0
0.0,0.0,0.0,0.0,0.0,0.0
0.0,0.0,0.0,0.0,0.0,0.0
0.0,0.0,0.0,0.0,0.0,0.0
0.0,0.0,0.0,0.0,0.0,0.0
0.0,0.0,0.0,0.0,0.0,0.0
0.0,0.0,0.0,0.0,0.0,0.0
0.0,0.0,0.0,0.0,0.0,0.0
0.0,0.0,0.0,0.0,0.0,0.0
0.0,0.0,0.0,0.0,0.0,0.0
0.0,0.0,0.0,0.0,0.0,0.0
0.0,0.0,0.0,0.0,0.0,0.0
0.0,0.0,0.0,0.0,0.0,0.0
0.0,0.0,0.0,0.0,0.0,0.0
0.0,0.0,0.0,0.0,0.0,0.0
0.0,0.0,0.0,0.0,0.0,0.0
0.0,0.0,0.0,0.0,0.0,0.0
0.0,0.0,0.0,0.0,0.0,0.0
0.0,0.0,0.0,0.0,0.0,0.0
0.0,0.0,0.0,0.0,0.0,0.0
