ax,ay,az,gx,gy,gz
-2.779441,2.6181684,-7.052757,-21.564583,-76.268036,-41.828396
-4.021778,2.9262447,-8.290975,-14.793738,-101.6687,-43.55301
-4.797207,2.3812375,-9.011641,-13.081611,-118.09231,-42.96054
-5.343302,2.4451685,-10.051836,-18.04437,-134.95738,-34.288315
-6.9771795,1.3795567,-11.714537,-7.3297186,-165.0987,-31.964533
-6.990322,1.0824322,-12.227253,11.7453375,-179.87057,-40.23791
-6.2276444,0.84846294,-12.075325,37.2508,-195.04153,-55.759274
-5.91321,1.4912974,-10.0072155,41.300877,-210.11406,-55.646694
-5.3716316,2.6292825,-8.27783,34.537342,-236.79053,-52.203487
-3.8070183,2.3077028,-6.2223215,25.827934,-261.63718,-51.29176
-1.59655,1.2733324,-3.5674334,25.310183,-276.0501,-59.768475
2.4500616,1.4718666,-1.6285573,29.328812,-273.16446,-76.468895
8.785126,1.5049273,1.0394096,16.708569,-260.67337,-65.61581
12.7756195,0.3101676,2.512277,8.621462,-233.96758,-39.300182
14.392984,-1.0616126,3.3004842,11.065917,-199.51088,-32.012398
15.040756,-0.98668027,4.271653,21.039358,-160.2382,-23.772007
14.634129,-0.109143816,5.3485584,17.392029,-114.52094,-16.200495
12.9438925,0.25294465,5.71944,17.878181,-84.5858,-11.698631
11.883655,0.07233878,5.9138246,21.415773,-54.523037,-8.842065
10.720268,0.30966845,5.946383,22.890474,-34.615376,-1.0254344
9.661355,0.70083326,5.7353463,19.529312,-21.769035,1.933762
9.29063,0.85536164,5.719826,10.012982,12.9212,10.089197
8.283469,0.87722963,4.871088,-1.4791734,31.402208,15.687132
7.2033186,0.6464667,4.039532,-2.5627766,51.045593,22.890793
6.3140597,0.48794588,3.1886137,-9.507191,72.071014,31.764923
5.3010225,-0.1750349,2.3575897,-6.664876,86.109184,37.808132
5.118263,-0.4044022,1.5612274,-4.987725,109.87612,41.28066
3.9589133,-0.81289023,0.54982656,5.891379,120.41936,45.192448
2.525483,-0.6707564,-0.12750414,14.272946,118.658195,42.755127
1.8475672,-0.33470467,0.1009503,9.709691,111.09485,39.878227
2.18509,-0.40333772,0.47869924,10.454886,114.57989,37.32099
2.2016826,-0.84129536,-0.019060917,17.133125,126.51008,26.935204
2.1124425,-1.0356861,-0.25159407,20.443949,133.06972,26.60862
1.6021124,-1.1795255,-0.43585292,25.99384,131.45792,35.56906
0.6218877,-0.724717,-0.51905644,27.377817,128.64735,32.775562
0.15065324,-0.54165053,-0.59298986,29.598993,125.29102,28.803755
0.3691123,-0.33891305,-0.8133453,25.564072,123.73085,26.87892
-0.13686274,-0.4019458,-1.4556634,27.258322,121.88927,31.040281
-0.9783374,-0.60478795,-1.8807731,22.119228,109.98186,29.933172
-1.0752817,-0.29021674,-2.1123104,23.766758,108.569695,28.93713
-1.3642212,-0.1277533,-2.029323,27.113564,106.59347,25.015747
-1.3904333,0.41618282,-1.8884816,27.716797,110.894295,26.94812
-1.9404526,1.3853,-2.4536026,28.478184,104.79114,28.493937
-2.596186,1.7628322,-2.4977324,29.070173,90.45162,18.633505
-2.5911853,2.164928,-2.570531,32.653572,78.31311,5.419095
-2.5638702,2.9453423,-2.4147265,35.666275,73.82214,0.4380715
-2.1681333,4.2722826,-1.7448466,30.300335,59.479263,-5.6440816
-0.35900325,8.508148,0.69714403,12.321108,51.08686,-14.514677
1.5733855,12.50223,2.7744942,-44.500435,42.79946,-34.6431
2.9494996,13.482398,3.4136593,-83.05814,45.93855,-47.49487
3.7554336,14.518682,3.3110945,-126.78533,54.029728,-69.760185
3.70304,14.558165,2.5877368,-186.76161,73.0761,-85.278206
2.208016,10.794436,-0.28943253,-209.3505,86.96567,-91.53305
0.54957485,7.5697045,-2.5026631,-214.72928,90.30157,-90.67772
-0.80590254,4.433664,-4.550593,-212.77487,81.97731,-86.074036
-1.1140878,1.6802583,-5.8425565,-197.34492,62.16376,-88.42242
-1.0114851,-1.3500816,-6.7946463,-163.46797,48.013878,-88.4489
-0.5533289,-4.404339,-7.2349825,-131.88248,34.429153,-75.33306
-0.24628082,-5.1857085,-6.8957996,-100.324844,22.958298,-65.618645
-0.22913158,-5.5407715,-6.5324154,-74.82027,18.260195,-65.604225
-0.35985976,-5.6912975,-6.4131107,-51.895172,20.088894,-60.580242
-0.2394905,-5.5642886,-5.771011,-22.73182,10.288488,-55.302265
-0.69718456,-4.5779414,-4.780854,-13.662526,11.415437,-44.957733
-1.184183,-3.4698262,-4.0319214,-2.727716,7.8981066,-40.36959
-2.34018,-2.4475653,-4.006675,11.013529,-2.2407699,-34.621613
-3.305342,-1.2193812,-3.9197774,19.627577,-8.759119,-34.636658
-4.0792217,-0.031787544,-3.930151,23.908789,-21.287777,-43.05911
-5.1050873,0.42479527,-4.8244624,33.655582,-34.6561,-58.418762
-6.242462,0.5137767,-5.3898463,40.002514,-57.538017,-61.62791
-7.0030236,0.8135372,-5.812463,44.81639,-85.70352,-66.89289
-7.5335193,0.47024298,-6.2991886,54.196827,-109.865746,-77.21381
-7.7654977,0.164106,-6.856673,66.25388,-144.50241,-93.12641
-7.0913677,0.028725095,-6.965863,67.90103,-170.52919,-101.2548
-5.1264896,-0.46200678,-6.2592206,69.651115,-191.04,-113.08985
-2.0994916,-0.63653547,-5.3933244,74.0237,-198.03056,-113.88082
0.24164386,-1.1474179,-4.273203,80.54028,-193.86029,-104.95506
2.4573936,-0.41650078,-2.7161567,82.08647,-190.39824,-92.53624
6.6749415,2.0874162,1.4545335,60.205063,-184.15422,-67.956696
9.237701,2.8754454,3.7696981,35.992985,-161.90155,-43.566658
10.120334,2.0453827,5.103496,12.806221,-139.13809,-21.699213
9.863396,0.8812673,5.5769444,-0.36413258,-110.928116,-1.8676236
8.770673,-0.039550222,5.0531545,-6.5388284,-78.6208,7.484092
7.607655,-0.2611336,4.988018,-1.9419641,-62.139755,7.836064
7.047282,-0.23454663,4.8656254,1.5417248,-47.138283,7.7842073
7.1334887,-0.13386714,5.0829496,2.362779,-30.553436,8.3997345
7.146691,-0.05310621,5.0850725,2.4626393,-7.7009354,13.235896
6.8498135,-0.55786115,4.871834,5.176966,17.563059,17.973623
5.9820485,-1.3637899,3.6270475,11.5853,30.874819,22.205666
5.7748246,-1.7617427,3.166073,15.617018,42.27003,31.35208
6.0004835,-1.8162823,2.7747357,11.834034,56.111496,43.02199
6.1959047,-2.3725448,2.302565,8.432954,72.53521,62.064106
5.8530903,-2.9463573,1.5636002,10.166141,100.32487,83.503136
4.3924932,-3.8516874,-0.3458088,40.68179,106.4957,99.20748
3.4752567,-3.797739,-0.4340989,68.94253,114.90745,118.09238
2.165573,-2.934823,-0.9076934,75.381035,115.96481,125.782906
1.4754872,-2.0609365,-1.0117768,68.09405,112.332275,128.5373
0.94276375,-1.7013234,-1.0627445,65.016045,111.13314,124.090614
0.2155962,-0.9409608,-1.2940797,48.78165,109.34862,119.68481
-0.08825278,-1.5425528,-1.6568477,45.851055,88.00523,115.6964
0.13379446,-2.0071836,-1.954751,48.391663,88.54508,121.253235
-0.33559382,-2.05255,-2.1931043,51.585033,83.48255,121.12367
-0.830161,-1.9849533,-2.604658,64.35167,82.45745,122.4711
-1.6420316,-1.2170105,-2.763553,65.09034,67.286316,124.46523
-2.2532098,-0.3792548,-2.6171236,66.10014,50.36653,122.81704
-2.4317882,0.15922931,-2.880081,65.102615,30.24172,121.85454
-2.7710428,1.0310357,-2.7322617,50.16568,19.986168,119.12709
-2.9852178,0.5952664,-3.4033291,59.756187,7.3706455,110.5714
-2.8530695,0.71059066,-4.1172547,69.01168,0.4540878,103.579384
-2.836427,1.7981716,-3.7288876,81.66776,-9.0176525,100.07544
-2.8974273,3.4603703,-3.3565898,87.5267,-18.257395,92.62331
-3.435766,4.642491,-3.09899,82.13113,-33.73038,78.56054
-3.416573,4.9305525,-2.9424634,69.65585,-49.11897,60.93609
-1.9323139,4.919748,-2.8101368,72.34416,-65.70983,50.14976
-0.16557328,5.480042,-1.973392,78.74839,-63.122475,42.874367
0.75686544,6.258161,-1.2099572,67.40488,-57.413963,52.61768
0.47325316,7.714283,-0.8901134,53.15847,-61.559616,45.737396
0.4754192,8.813806,0.07285002,23.905424,-56.55516,13.556292
1.057889,9.3510275,0.29908615,9.523035,-62.438965,-5.472286
2.3321285,10.661807,1.4615102,-10.180404,-60.063526,-27.529484
2.938902,12.051699,2.6117105,-32.51707,-53.564953,-62.414196
4.271308,13.757058,4.2425303,-76.82329,-31.639725,-109.047035
5.6762958,14.659674,5.2243605,-136.99016,-7.8989024,-141.53035
5.483819,14.196838,4.7853255,-173.30724,-13.365331,-155.87155
5.260573,13.353137,4.3060193,-194.22968,-7.3020325,-161.93686
5.6895266,12.521164,3.975995,-222.13689,1.9622599,-175.4103
6.3816795,10.093159,2.4072418,-238.52661,21.843267,-183.06805
6.181785,6.217785,0.63104486,-232.96922,51.99922,-167.44156
4.388417,2.890494,-1.7631547,-221.937,43.912853,-149.51843
3.289852,0.88952696,-3.1573815,-212.54565,37.989323,-136.23193
2.867148,-1.0999444,-4.0608172,-196.98152,29.113121,-132.06195
3.0842922,-2.9920676,-4.6737094,-179.10695,18.547764,-118.34434
3.180542,-4.533035,-5.157839,-162.34113,17.410793,-91.00664
3.420146,-5.945375,-6.027468,-141.73532,19.852121,-71.864204
3.0169232,-6.685146,-5.8537545,-124.06956,20.32438,-50.44143
1.6823041,-6.960565,-5.965295,-97.376724,13.63507,-36.334038
0.03506846,-6.0704446,-5.3349123,-85.94151,3.6846464,-27.67231
-0.6099168,-5.8626785,-4.7114296,-68.3269,-7.951724,-20.930079
-0.92116505,-5.7860875,-4.194665,-48.83018,-10.229361,-19.89048
-0.55036575,-5.284187,-3.4473362,-34.32723,-0.31908035,-20.64116
-0.787353,-4.5249553,-2.9512799,-26.407661,2.5200603,-15.639035
-1.9024863,-3.986436,-2.8102052,-20.158707,-9.950539,-5.6720204
-2.7076712,-3.2102487,-2.4687285,-12.727534,-23.063293,-14.796223
-1.1656593,-3.2057307,-2.0617454,-6.591092,-26.922567,-10.437747
-0.36397865,-2.641682,-1.2663059,0.65761805,-17.323797,-3.8804069
0.1506115,-2.3128996,-0.89269173,6.3475914,-7.9933405,0.037619174
-0.39220953,-1.710405,-1.1501462,12.708726,-5.0871005,-0.7046423
-1.0901122,-1.2591978,-1.0844381,14.7560215,-9.515885,7.653973
-0.974931,-0.4561575,-0.48306987,13.70056,-18.263779,8.168661
-0.43092865,-0.47318155,-0.17813085,17.32598,-21.177212,12.096897
0.3399161,-0.25976878,0.05650175,22.364115,-12.423522,18.466518
0.7892243,-0.6706748,0.20227262,30.465149,-3.9422457,19.719795
0.7519789,-0.41376847,0.119790494,39.07646,7.511333,26.175182
0.5811237,-0.05191192,0.5769718,57.596485,18.070757,39.150036
0.0,0.0,0.0,0.0,0.0,0.0
0.0,0.0,0.0,0.0,0.0,0.0
0.0,0.0,0.0,0.0,0.0,0.0
0.0,0.0,0.0,0.0,0.0,0.0
0.0,0.0,0.0,0.0,0.0,0.0
0.0,0.0,0.0,0.0,0.0,0.0
0.0,0.0,0.0,0.0,0.0,0.0
0.0,0.0,0.0,0.0,0.0,0.0
0.0,0.0,0.0,0.0,0.0,0.0
0.0,0.0,0.0,0.0,0.0,0.0
0.0,0.0,0.0,0.0,0.0,0.0
0.0,0.0,0.0,0.0,0.0,0.0
0.0,0.0,0.0,0.0,0.0,0.0
0.0,0.0,0.0,0.0,0.0,0.0
0.0,0.0,0.0,0.0,0.0,0.0
0.0,0.0,0.0,0.0,0.0,0.0
0.0,0.0,0.0,0.0,0.0,0.0
0.0,0.0,0.0,0.0,0.0,0.0
0.0,0.0,0.0,0.0,0.0,0.0
0.0,0.0,0.0,0.0,0.0,0.0
0.0,0.0,0.0,0.0,0.0,0.0
0.0,0.0,0.0,0.0,0.0,0.0
0.0,0.0,0.0,0.0,0.0,0.0
0.0,0.0,0.0,0.0,0.0,0.0
0.0,0.0,0.0,0.0,0.0,0.0
0.0,0.0,0.0,0.0,0.0,0.0
0.0,0.0,0.0,0.0,0.0,0.0
