ax,ay,az,gx,gy,gz
-0.71059346,0.6296428,-5.4481516,11.627643,6.831741,-47.052647
0.5037186,-0.38975328,-6.395757,5.340171,6.41419,-24.62005
0.28754207,-1.335487,-6.981952,3.7397761,12.335729,-7.548461
-0.7016679,-2.0929797,-7.5615396,7.5065117,5.273662,0.6815109
-1.7640523,-2.5493793,-7.7908564,18.457558,1.9652827,-5.300206
-2.4816294,-2.555855,-7.9083347,25.517786,-8.366736,-9.392315
-3.0862834,-2.0377853,-7.962329,24.212015,-22.775772,3.0776732
-3.3183053,-1.0902768,-7.5301676,14.905089,-32.334446,16.167206
-3.409831,0.014566127,-7.4707584,8.750695,-48.99077,26.26154
-3.6328218,0.3708874,-7.594295,3.299183,-62.074455,33.400238
-3.8730757,-0.31336436,-7.6997585,-3.8981442,-80.0389,41.198814
-3.7631197,-1.1887047,-7.470275,-14.454126,-88.988525,50.002636
-4.1451826,-0.99266744,-6.864835,-14.2358055,-97.32361,52.860863
-4.8703094,-0.2553712,-6.460457,-14.564664,-111.90416,51.68719
-4.3468475,1.0512258,-5.5987763,-26.907913,-131.58635,54.458454
-2.9584777,2.338359,-4.6346397,-43.472263,-141.88298,62.305073
-2.2492824,2.1129284,-3.570863,-66.0671,-147.19109,61.484303
-2.428669,1.6583543,-2.5694582,-69.55189,-155.21361,54.172047
-1.7840046,1.5633454,-2.2637465,-82.53359,-169.91223,53.297115
-0.21742398,1.1481206,-1.5524498,-94.51209,-171.40292,55.015564
1.1890447,1.0538898,-0.32241043,-100.10186,-178.67877,50.25823
2.787948,1.2457037,0.8576801,-111.80709,-176.35878,48.477142
4.3409324,0.012782961,1.868501,-112.27005,-170.18161,44.702465
5.2321033,-1.8916569,2.1441362,-112.38649,-167.02277,36.01712
6.374801,-3.2507489,2.8166776,-103.15754,-153.10745,32.85649
6.6918955,-3.8159666,3.4006276,-86.657394,-137.52869,28.85335
6.351034,-3.5063143,4.348413,-73.62714,-125.83312,29.43876
5.848132,-2.7461686,4.780023,-53.422356,-110.33565,28.329552
5.721645,-2.5283637,4.826529,-46.04542,-109.048294,21.42477
6.0938044,-2.2425132,4.7210913,-31.3799,-100.938736,12.451772
7.262648,-2.3223884,5.23546,-20.079403,-87.14007,1.2866361
8.187781,-1.9445453,5.911062,-8.300432,-66.719795,7.932973
8.782665,-2.3604546,6.3599873,-8.035566,-50.765835,10.740129
8.558118,-2.6592846,6.4301367,0.6738291,-25.288769,13.414605
7.708201,-2.5217757,6.2709365,8.093927,-4.4223437,10.910699
6.4233303,-2.235458,5.8329268,21.534138,11.349347,5.4084816
5.7718115,-1.3882486,5.667404,32.19985,30.400864,8.151084
5.3950973,-0.2538065,5.02325,34.105114,37.618217,12.767397
5.6087756,-0.1937752,4.9510493,31.368107,54.52593,12.271582
5.829469,-0.599539,4.6697526,38.6652,67.138054,14.577977
5.666737,-1.1324891,4.706385,40.310883,78.72744,13.485513
5.0413527,-2.0528085,4.9868836,47.955814,90.58825,10.319143
6.0291753,-3.5277808,5.511123,59.51327,99.44721,7.8331327
7.488746,-3.522393,5.4162374,72.77896,115.52215,7.5051413
8.275808,-2.4829676,4.813732,88.74138,141.31412,-0.077915326
7.0132146,-1.4162722,3.9659607,99.53718,160.54665,-11.110585
5.037501,-0.1176589,3.547381,99.950966,170.25539,-16.264013
4.628881,0.41162688,2.8311563,86.85772,176.89735,-10.6085205
3.8911421,-0.14508867,1.7560058,83.597664,188.37556,0.42375594
2.662656,-0.5552131,-0.011115581,76.84843,199.39127,4.896037
0.5160821,-1.7527071,-1.9428003,89.74171,197.17181,-14.485088
-1.0062141,-2.4348214,-3.2184856,102.76359,193.08942,-34.131687
-2.313822,-1.3747091,-4.5110016,101.47258,182.0218,-38.450455
-3.399396,-0.49872464,-5.6690607,89.63413,158.81775,-30.69737
-4.9909925,-0.7381704,-6.325421,78.92109,137.53242,-21.459734
-6.012549,-1.5445691,-7.2978373,66.3526,108.78316,-9.88535
-6.1818647,-2.0392475,-8.1524935,68.650116,75.02481,-4.18458
-4.6812086,-1.4591058,-8.260159,70.03641,55.34399,-12.413113
-2.99233,-1.1358203,-8.305626,74.793915,48.06571,-22.980406
-1.9608585,-0.42163333,-7.9948883,79.83579,42.861534,-23.739042
-1.5332761,0.668219,-8.108824,71.568,35.639,-20.318842
-1.3454577,1.6407268,-7.757428,62.08877,23.863665,-18.751585
-0.9975351,2.841849,-7.3677273,62.966732,11.185192,-28.708717
0.40734246,4.262805,-6.020182,61.683308,3.5061045,-41.800526
2.2499368,6.1380863,-4.8778887,49.14673,2.059273,-51.00612
3.4994287,7.1235113,-4.0598598,29.180647,7.546068,-47.36096
3.3340113,7.8611746,-4.048175,-2.6101196,10.743348,-43.47951
2.1795368,7.733484,-4.1891894,-19.720478,7.6378765,-45.65654
1.8437169,7.384329,-4.296557,-35.926846,1.6826429,-49.05096
1.4319822,7.196858,-4.322602,-49.74951,-2.8417845,-57.794647
0.91510195,6.716273,-4.4978456,-59.030987,-4.3641353,-68.89063
0.6621486,6.2863607,-4.4993367,-66.07977,-10.945884,-89.86413
-0.059729837,5.359815,-4.5243516,-69.43134,-15.473321,-102.73641
-0.29478258,4.8813086,-4.34829,-69.31808,-24.372076,-115.19094
-0.5605905,5.0560417,-3.5562747,-72.10568,-39.11649,-127.09079
0.81812775,5.519483,-1.8327923,-81.026665,-50.297817,-144.08751
2.320317,5.1483407,-0.46733487,-95.285225,-47.886368,-150.69667
3.1567314,3.234223,0.8023859,-111.41446,-43.598072,-146.76224
3.085552,0.65446883,0.8839941,-117.38777,-40.874977,-148.00293
3.7553618,-2.1451776,1.2533213,-113.19354,-32.110847,-151.42435
4.222602,-5.052538,1.3116277,-106.33496,-27.041561,-147.44023
4.2689404,-7.390394,1.2827175,-98.68764,-13.948377,-127.29393
4.4134517,-9.611776,1.775606,-86.49247,-7.954162,-107.7793
4.3623886,-10.5265255,2.3866386,-72.89603,3.2843933,-90.6573
3.6475956,-10.654679,2.6205163,-52.587303,21.33797,-76.78476
2.198011,-10.434943,2.0556204,-36.54797,32.21579,-65.88319
1.0407753,-9.228012,1.7045647,-20.045774,39.09291,-46.633583
0.37995297,-7.262618,1.2650044,-13.4993,39.958733,-34.76914
-0.3622166,-6.3992825,0.7520734,-10.2921505,47.256332,-20.694513
-1.6772261,-5.8526506,-0.21362054,-3.3438108,49.905216,-8.94823
-2.670511,-5.100995,-1.2700062,3.7455857,45.958553,3.853544
-3.906858,-4.546878,-2.120374,10.605413,36.932636,9.986903
-4.7484202,-3.267338,-3.2253137,15.815054,18.80361,15.794281
-4.9855595,-2.3066857,-3.5466125,17.79951,7.6939707,18.322512
-4.8157234,-1.5675267,-4.14598,19.70287,-0.89191294,21.522228
-4.7722187,-0.5943958,-4.557555,16.531908,-13.928849,28.591309
-5.0265694,0.1346966,-5.392143,14.836292,-28.011532,26.522116
-5.7695346,0.5105184,-7.0079174,12.92956,-47.47513,19.483187
-5.9324183,1.4188557,-7.689839,13.673757,-61.29742,11.91074
-5.6815906,2.567988,-7.6517544,2.4348776,-80.60985,7.358447
-5.0449758,3.3210967,-7.2820034,-11.536907,-102.49898,8.807617
-4.5355377,3.2674956,-6.8366604,-28.524145,-111.18736,18.957748
-5.9902153,2.0503507,-6.6914554,-39.165276,-125.7566,23.583021
-7.1340938,1.7668521,-7.244883,-47.620506,-145.95537,31.747993
-7.2138996,1.1699533,-7.3030972,-53.953503,-180.45276,30.659178
-5.5910525,1.4566422,-5.9930787,-54.910614,-206.1448,17.6643
-2.2207696,2.0935063,-3.6450796,-61.95764,-216.02632,9.590965
2.3466578,1.4275973,-0.44390216,-74.05753,-207.37575,15.225449
5.1470656,-0.710167,1.8232542,-78.57601,-193.80786,16.144777
8.606154,-3.277328,3.814743,-74.22656,-174.89404,6.4990573
11.921434,-5.484093,5.8397326,-63.823055,-141.31439,8.571262
12.856309,-7.1639695,7.624095,-53.02519,-85.87538,34.37156
10.090925,-8.128265,7.871389,-44.43747,-60.51595,50.24189
8.134223,-8.338092,7.706738,-30.376972,-41.053524,57.205563
7.3342695,-7.7557955,7.5692463,-10.709221,-18.005226,49.991215
6.4077463,-6.5222874,7.402512,1.0623387,-1.6382487,53.802452
4.7999973,-5.633814,6.393273,13.599587,6.2322254,71.58229
2.3660724,-5.2600856,4.7547674,16.44525,7.708325,81.19747
0.97690535,-5.5854883,3.2615175,26.634441,1.4687821,92.52646
-0.025089175,-5.62518,2.2712474,40.624672,-1.9160411,99.89043
-0.36950535,-6.2899876,1.5356305,54.645847,-12.046452,113.41629
-0.76056755,-6.6440578,0.45836365,77.614204,-19.558855,123.85188
-0.44181454,-6.1668606,-0.3570228,105.5056,-24.024912,125.729675
0.002142772,-5.0139256,-0.6309462,132.3147,-25.646664,120.874596
0.14955202,-3.1953707,-0.42609912,143.73904,-29.845852,121.857376
0.47466034,-1.3888557,-0.082281545,146.5922,-30.746891,124.72785
0.49775812,-0.7207854,-0.4197,148.20218,-30.636986,130.97238
0.29052436,0.29219556,-0.9161011,145.3325,-27.861172,123.432724
0.8612936,1.833457,-1.0203782,144.42844,-19.381008,121.10824
1.2792683,3.897891,-0.7601458,134.40038,-16.540588,106.72163
1.5561666,4.5137143,-0.9917818,119.498604,-11.085878,97.23913
1.7084813,4.765832,-1.4768122,105.38445,-4.614093,89.74137
1.5409263,4.852299,-2.0726714,101.91173,-2.5746813,80.32214
1.3300993,5.6836295,-2.519674,91.46736,-3.3988948,72.97875
1.963891,6.3711586,-2.5663443,76.277336,-8.929128,61.625023
2.9432416,7.604647,-2.5886922,59.24184,-6.9582996,55.739357
3.3984127,8.121277,-2.7465005,30.270632,-1.0209992,45.633873
4.744542,7.59412,-2.813128,14.0063095,-0.81058776,31.309473
5.205673,7.726009,-2.8367195,0.8473346,6.3744617,19.807362
4.922998,8.38754,-2.9483678,-15.0683975,12.873578,9.611927
4.341573,9.100573,-2.9861622,-28.83287,15.245289,-2.5724194
3.707292,9.576446,-2.6502886,-49.630604,5.991901,-18.99578
3.1495016,9.627817,-2.294081,-64.53659,7.289563,-37.880085
3.3033643,9.637581,-2.1497488,-83.108444,7.2596383,-55.255913
3.4563978,8.824403,-2.0275366,-95.693825,14.429436,-74.440475
3.3703258,7.855941,-2.3594854,-106.675735,18.327295,-86.94816
3.4485142,6.684752,-2.3228464,-125.11343,17.242775,-103.52947
3.3467374,5.755799,-2.4940886,-134.58127,20.266815,-113.15531
2.8644464,4.8982387,-2.8602242,-144.13892,25.825262,-119.76767
2.0167797,3.787711,-3.1633813,-153.01167,24.76181,-129.81493
1.6046824,2.7699404,-3.3640587,-155.44933,22.051651,-138.85767
0.76835203,2.3277102,-3.2464721,-160.55635,23.943262,-147.78949
-0.5855879,-0.048290867,-3.6748822,-168.24542,6.196038,-155.21085
-0.45024636,-3.5559587,-3.3591127,-169.10417,-12.384007,-158.0311
0.58547544,-7.610119,-2.8206065,-160.52263,-18.24253,-145.65704
1.909224,-10.281236,-1.8473499,-142.74176,-17.028759,-131.0671
1.7702565,-12.125812,-1.0865836,-106.548996,1.8546262,-109.222206
0.22030029,-11.376415,-0.11999268,-77.54326,-0.7482421,-92.662895
-0.47977686,-10.228375,0.15095137,-59.767082,-3.6323133,-76.48684
-0.49043325,-8.710589,1.0695097,-50.53471,-2.1758478,-56.711147
-0.5632281,-6.685446,1.9429235,-42.60916,4.2767396,-47.539124
-0.4421072,-5.23548,2.274122,-38.571777,10.441419,-30.6253
-0.14181186,-5.192235,2.219462,-35.733017,12.805001,-21.560072
-0.20586944,-4.9811945,2.3203273,-33.532547,22.272034,-12.152696
-0.73536235,-5.3573914,2.2187386,-28.008045,20.561363,-1.5823233
0.0,0.0,0.0,0.0,0.0,0.0
0.0,0.0,0.0,0.0,0.0,0.0
0.0,0.0,0.0,0.0,0.0,0.0
0.0,0.0,0.0,0.0,0.0,0.0
0.0,0.0,0.0,0.0,0.0,0.0
0.0,0.0,0.0,0.0,0.0,0.0
0.0,0.0,0.0,0.0,0.0,0.0
0.0,0.0,0.0,0.0,0.0,0.0
0.0,0.0,0.0,0.0,0.0,0.0
0.0,0.0,0.0,0.0,0.0,0.0
0.0,0.0,0.0,0.0,0.0,0.0
0.0,0.0,0.0,0.0,0.0,0.0
0.0,0.0,0.0,0.0,0.0,0.0
0.0,0.0,0.0,0.0,0.0,0.0
0.0,0.0,0.0,0.0,0.0,0.0
