ax,ay,az,gx,gy,gz
0.40068948,0.4776168,-2.2342608,-4.6366324,-29.844688,21.041744
0.5874036,0.19084118,-1.8808359,-5.9921618,-34.533005,12.565839
0.6586047,0.06971206,-1.5020968,-12.969484,-29.30697,10.798189
-0.31102815,0.0105689615,-3.1218166,-11.136631,-42.86816,9.548946
-0.79006386,-0.0077062845,-4.622403,-3.268888,-66.08651,8.82235
-0.44125366,-0.37587637,-5.4203935,5.442341,-72.7533,4.529682
0.3254199,-0.02702275,-5.687544,-7.2483974,-75.83867,3.7392302
1.1364061,0.06772331,-6.861792,-25.149818,-62.167812,-0.98321974
1.340509,-0.25880218,-8.976335,-33.02733,-62.55845,0.16894627
1.5533156,-1.1813712,-10.534433,-37.395535,-74.714035,-10.100821
1.3177186,-2.5059247,-11.340397,-41.610054,-84.58414,-10.726887
1.111829,-3.816206,-12.684541,-36.737617,-117.821144,-8.293412
1.4736295,-5.2532825,-12.620693,-36.97435,-153.44565,9.064595
2.4055831,-4.582405,-12.027138,-45.745857,-175.43472,16.25104
2.9416406,-3.1526396,-10.954843,-59.259136,-202.67166,14.553698
3.2945101,-2.9086995,-8.873825,-77.608574,-239.29979,15.068773
3.674837,-3.0347605,-6.334381,-80.997284,-262.70474,17.825556
4.5447206,-2.6238413,-2.116378,-74.88237,-276.12665,35.11502
6.297887,0.3282705,3.495896,-66.39084,-267.66574,37.356915
7.60282,1.5103259,7.104446,-82.874306,-255.47865,27.32356
7.6671543,-0.13275522,9.7116585,-89.12295,-234.01224,15.530738
7.5942435,-2.7605593,12.076587,-65.56239,-211.24419,7.646537
7.6289296,-3.605851,14.49058,-16.145718,-163.31572,18.136377
7.8916764,-1.9197772,17.743559,-9.041148,-130.50247,35.48181
7.308031,-0.33979356,19.569824,-3.186998,-91.49493,34.509575
6.3617644,0.18243931,20.023258,18.634016,-52.28512,23.068546
5.8590302,1.2093704,20.307962,38.76944,-12.939856,20.063627
5.7320004,2.7040417,20.386732,52.86235,33.483055,6.557359
5.6284084,3.6598833,18.257877,57.544296,72.486916,-10.5457115
4.859499,2.8100162,15.172766,67.361,103.73479,-23.120716
4.0548234,1.7505412,12.266422,74.87256,126.51597,-31.089783
3.7567558,1.2783518,10.405833,80.828415,137.33992,-33.9649
3.992533,1.6020057,9.345488,80.02765,161.0278,-35.761986
4.4370213,1.5082917,8.043483,81.12483,171.84645,-42.185585
4.9789624,0.8570723,6.7066507,78.79842,188.44016,-47.970882
5.5289516,0.10323857,5.4319863,85.082375,199.57608,-52.265858
5.9554167,-1.0825381,3.6166415,87.81716,202.61418,-60.206955
6.030856,-2.792097,0.9291096,84.902115,212.63916,-62.234913
5.597536,-4.1278563,-1.7640855,74.796196,208.57007,-47.09971
5.1760783,-4.3996,-4.1966624,66.36055,203.33582,-34.322594
4.5480294,-4.138324,-6.6368895,63.878853,190.95963,-29.001617
3.960664,-3.5876865,-8.318971,61.421673,175.67542,-30.665777
3.187907,-3.02473,-9.429366,57.987045,144.83102,-24.379845
2.2952456,-2.6043572,-10.778553,55.569935,129.4698,-26.32769
1.8438768,-2.8063662,-10.861116,47.809467,102.10274,-18.935415
1.4944525,-2.8121908,-10.954826,40.08769,80.44516,-10.772453
1.2480958,-2.3637516,-10.839,38.946907,61.740788,-5.2173476
1.1888411,-1.5292588,-10.381984,36.623047,40.962257,-1.8229849
1.3146429,0.031934228,-9.33723,27.434217,20.43503,-1.0800272
1.4413202,0.86864334,-8.212189,20.088842,10.870705,-5.1790566
1.448252,1.5605739,-6.9846816,18.794424,-6.199413,-6.325018
1.7269101,3.1859899,-5.68326,17.900383,-13.3377285,-13.600591
2.181761,5.0206275,-3.8229613,5.806112,-20.011017,-24.810564
2.4706135,7.352448,-1.8752239,-1.9166528,-18.945019,-46.283283
2.3293452,7.793643,-1.1145948,-3.8207734,-21.312733,-69.271645
2.2703533,7.9427886,-0.46975312,-6.5067606,-15.250288,-89.62895
2.2538872,7.7973056,-0.24123569,-6.4097347,-16.082605,-103.933334
2.5464728,7.2271223,-0.036826033,-17.189434,-13.541861,-123.721115
2.6814933,5.223453,0.059926644,-20.561584,-15.997,-135.57019
2.5466566,2.9182298,0.15990022,-20.164995,-14.339176,-142.80745
2.5238435,1.2927291,0.148581,-11.575231,-9.148682,-149.79451
2.265288,-0.5916269,-0.22901192,-2.4271502,-14.378797,-153.6705
1.6417643,-2.5211675,-0.34569836,4.293869,-9.231881,-146.3654
0.8175824,-4.2818923,-0.9690389,5.6169777,-13.285318,-134.44112
0.38529694,-5.220644,-1.5903624,13.428656,-20.673391,-117.94818
0.024569565,-5.9326406,-2.0314512,16.75556,-18.026245,-99.47106
-0.25742373,-6.2998576,-2.398557,24.432999,-25.207256,-86.62267
-0.6807548,-6.0796876,-3.468099,44.181313,-49.120922,-81.71244
-0.527631,-6.071232,-4.5625477,40.147858,-59.618885,-78.97279
-0.3926198,-6.1927733,-5.4042554,37.81828,-66.79742,-54.656467
-0.1831297,-5.4894657,-5.2452602,32.158382,-78.72814,-39.65617
0.20889348,-4.7809544,-6.3432155,21.041485,-89.23571,-26.421299
0.39659548,-3.9926913,-6.458096,2.7367673,-107.29904,-16.421415
0.27571177,-4.0402093,-7.827604,3.136002,-123.89104,-26.409729
0.32347044,-4.7202373,-8.365483,3.3886123,-136.36465,-16.445734
0.7345507,-4.98001,-8.008908,-8.26973,-144.45969,1.487942
1.0683529,-3.9392538,-8.485172,-20.951633,-160.30223,15.268958
1.6702366,-3.6077042,-8.330305,-61.502705,-183.08887,21.56821
2.1178434,-4.262909,-7.1744914,-74.24142,-202.61714,17.374643
2.1510699,-5.5671253,-5.783558,-66.33329,-210.68927,14.753038
1.8462789,-5.919435,-4.519443,-60.41963,-204.4496,30.699347
1.6886626,-4.222612,-2.2987099,-76.239105,-203.89632,58.097683
1.7706312,-1.4403006,-0.15751366,-106.032364,-209.5372,51.956223
1.9058841,-2.5005088,2.7586513,-102.12461,-216.11017,26.798706
2.154978,-4.7927303,5.46962,-65.30477,-205.05992,13.697959
3.1087544,-4.1421003,8.304912,-29.51606,-181.57207,22.993484
4.944951,-0.5642455,10.390089,-16.470171,-162.63766,33.982628
6.7148976,2.1696696,12.155153,-48.66858,-133.52415,24.20095
6.5967283,0.57970417,13.651909,-66.92704,-118.84388,15.106686
6.0117702,-2.498612,14.741031,-60.447426,-79.56289,18.238682
5.737393,-3.8124983,15.250848,-33.239964,-41.583126,28.99372
5.796091,-2.9583366,14.974638,-11.7598505,-5.1996517,34.757053
5.4044394,-2.802633,14.330175,9.877629,40.83831,41.700546
4.568098,-3.7953327,12.429795,22.131233,61.769573,44.893604
4.419511,-4.4308734,10.697327,31.760372,84.85611,60.743515
4.2034807,-5.5565734,8.258567,47.784447,104.793304,65.51352
4.0561843,-6.1514974,6.2132196,49.973713,119.129005,75.007675
3.554286,-6.970629,3.8523793,67.46765,136.6227,90.15607
3.0425165,-7.6190658,1.2051175,76.60488,137.40915,109.35952
2.6901805,-6.794665,-0.1636899,86.0448,140.51822,127.41943
2.3124745,-5.7773805,-1.3460755,99.26338,148.95609,147.87305
2.230946,-4.138167,-2.8574445,104.8982,149.06543,145.813
1.9899259,-3.024206,-3.9859657,102.59867,137.32484,153.3066
1.6956989,-2.352484,-4.8843412,92.98279,124.32809,156.72409
1.3000824,-1.7841134,-5.479421,86.75744,111.45233,162.88792
1.1985375,-1.3484621,-5.8445053,85.87853,108.82338,169.95232
1.0515516,-0.013103165,-6.320834,82.59624,94.59192,170.72208
1.0525233,1.171407,-6.2249675,75.19019,72.45199,158.68639
1.0721785,2.009059,-6.6286325,76.98184,54.071217,139.12378
1.3323442,2.7148893,-5.9746385,69.533714,44.178616,132.79355
1.4607514,3.4510984,-4.968719,64.71539,33.551598,123.89457
1.1986036,3.8973877,-5.648356,56.255,23.848885,118.657234
0.90529543,4.7217193,-5.7639184,46.270584,7.6307497,101.76302
0.99695647,5.4904647,-5.399436,35.738335,-4.4467416,91.821754
1.3669839,5.8153176,-4.8355856,25.038134,-19.526516,70.528564
1.6225083,5.744254,-4.2786684,18.415712,-23.32873,61.49653
1.9353039,6.095775,-3.3797755,13.92074,-25.392744,52.986824
2.2031329,7.3594317,-3.733988,2.596743,-30.25833,34.986954
2.6022973,9.477105,-3.2723417,-11.322575,-32.23085,11.887877
2.780122,9.918758,-2.9461143,-18.225857,-38.0946,-11.947077
3.335536,10.424921,-2.4640577,-26.296968,-41.475048,-36.73436
4.038986,10.406967,-1.7576641,-35.97339,-36.866116,-62.54732
4.802989,10.857245,-0.9919905,-49.91246,-28.387869,-92.94007
5.5822697,10.789351,-1.1837466,-57.133488,-22.864664,-114.95873
5.8077397,10.05702,-1.1824219,-60.229874,-20.53362,-143.73524
5.696165,9.192774,-2.1970487,-61.60873,-13.293775,-165.37157
5.5722938,8.262116,-2.87422,-59.033123,-13.284439,-189.9066
5.6559124,7.066283,-3.4242005,-59.039288,-22.786509,-213.16743
6.0321255,5.1460485,-3.611541,-67.25854,-28.40076,-215.48218
6.2822924,3.9524271,-2.5013218,-81.70824,-22.564014,-211.51674
6.2149625,3.0358968,-2.2746723,-87.86235,-26.439753,-217.18663
6.00898,1.4765347,-1.9328864,-94.20304,-20.824032,-224.03903
5.418002,0.23567086,-1.6656137,-92.93456,-35.70687,-231.09967
5.467509,-3.1712816,-1.006702,-95.66716,-43.129166,-229.91884
5.703656,-5.837955,0.35812825,-106.0545,-39.035328,-223.62839
5.4361,-8.995668,1.415851,-101.458824,-34.184067,-210.03531
4.134285,-11.897366,1.4904405,-94.56075,-28.48463,-186.2205
2.6111739,-13.913265,1.3613245,-63.15735,-25.116734,-146.05064
1.598993,-14.486824,1.6886101,-48.940445,-24.414804,-110.27294
1.3113683,-13.767034,2.1475,-38.031975,-20.56555,-80.00736
0.46542296,-12.905189,2.0644038,-22.222311,-8.885634,-57.45995
-0.5085336,-11.573912,1.666317,-8.666195,-1.0351536,-35.716827
-1.2814878,-10.3595915,1.1278244,2.486164,9.647677,-6.2386584
-1.7034644,-7.772105,0.89647245,-2.6532192,22.552042,6.712425
-1.5559756,-5.858202,1.1807004,-7.422591,35.282036,8.942527
-1.7568718,-4.4297366,0.70011616,-6.156269,39.732834,18.048347
-1.9866399,-3.4079971,0.051251024,-0.5121404,24.840149,20.715307
0.0,0.0,0.0,0.0,0.0,0.0
0.0,0.0,0.0,0.0,0.0,0.0
0.0,0.0,0.0,0.0,0.0,0.0
0.0,0.0,0.0,0.0,0.0,0.0
0.0,0.0,0.0,0.0,0.0,0.0
0.0,0.0,0.0,0.0,0.0,0.0
0.0,0.0,0.0,0.0,0.0,0.0
0.0,0.0,0.0,0.0,0.0,0.0
0.0,0.0,0.0,0.0,0.0,0.0
0.0,0.0,0.0,0.0,0.0,0.0
0.0,0.0,0.0,0.0,0.0,0.0
0.0,0.0,0.0,0.0,0.0,0.0
0.0,0.0,0.0,0.0,0.0,0.0
0.0,0.0,0.0,0.0,0.0,0.0
0.0,0.0,0.0,0.0,0.0,0.0
0.0,0.0,0.0,0.0,0.0,0.0
0.0,0.0,0.0,0.0,0.0,0.0
0.0,0.0,0.0,0.0,0.0,0.0
0.0,0.0,0.0,0.0,0.0,0.0
0.0,0.0,0.0,0.0,0.0,0.0
0.0,0.0,0.0,0.0,0.0,0.0
0.0,0.0,0.0,0.0,0.0,0.0
0.0,0.0,0.0,0.0,0.0,0.0
0.0,0.0,0.0,0.0,0.0,0.0
0.0,0.0,0.0,0.0,0.0,0.0
0.0,0.0,0.0,0.0,0.0,0.0
0.0,0.0,0.0,0.0,0.0,0.0
0.0,0.0,0.0,0.0,0.0,0.0
0.0,0.0,0.0,0.0,0.0,0.0
0.0,0.0,0.0,0.0,0.0,0.0
0.0,0.0,0.0,0.0,0.0,0.0
0.0,0.0,0.0,0.0,0.0,0.0
0.0,0.0,0.0,0.0,0.0,0.0
