ax,ay,az,gx,gy,gz
-1.4263117,1.1477791,-3.112112,-0.9032847,-3.9067574,-17.79467
-0.56477714,0.15058537,-3.6931615,-9.254145,-2.1244538,-11.597287
-0.34747604,0.16989525,-3.7823849,-15.932903,-2.5582852,-1.6367103
-0.28075755,0.005095817,-3.7809389,-19.775303,-3.0760443,3.2394414
-0.5759119,-0.12113504,-4.2266717,-14.43716,-6.2640615,-1.6776768
-1.3396498,-0.44067743,-4.4477153,0.81860125,-14.784876,-10.612745
-1.2057657,0.29328,-4.3192964,-2.7863615,-22.66285,-3.120103
-1.4805614,0.32136032,-4.9259157,-8.954268,-28.918877,8.145912
-1.9295713,0.3004159,-5.317641,-19.968975,-41.07688,19.865936
-2.5036561,-0.8430893,-5.8409247,-17.933466,-44.94996,22.517017
-3.528492,-2.0079794,-5.9831176,-5.516864,-58.27857,16.492548
-3.4437792,-1.1142707,-5.6580763,-5.6692166,-70.73705,26.76399
-3.1505113,0.119022734,-5.245152,-14.634819,-87.2817,31.262337
-2.3187766,1.0473948,-4.569603,-25.19901,-90.62662,33.826332
-2.2177072,1.02783,-4.5685263,-40.339878,-97.12453,28.655666
-2.227901,-0.0005047895,-4.318775,-40.278503,-107.05585,29.537378
-3.2608154,-0.88273585,-3.7411718,-37.90846,-121.64292,29.705711
-3.0588372,-0.240678,-3.2358525,-40.461998,-136.35658,27.835003
-1.8181908,0.94226015,-2.255488,-45.628258,-153.20235,25.002207
-0.23103817,2.1901262,-0.9906911,-56.793083,-153.81964,19.093828
0.8117948,2.4225924,-0.21762596,-76.87006,-145.35544,20.203249
-0.10389929,-0.004241593,-0.24030605,-74.55768,-142.87534,17.612135
-0.5924915,-1.1859202,-0.31846043,-66.9347,-160.5957,8.395561
1.1779218,-1.5605594,0.47502163,-61.874588,-173.50339,3.2678146
4.005928,-1.3560408,1.9176152,-62.644905,-169.9372,11.742469
7.0384364,-0.6542087,3.6672163,-67.92453,-141.07732,19.548012
7.4682107,-0.5230875,4.9778214,-68.45757,-116.32658,17.121511
6.2191434,-1.9290221,4.9868507,-59.201073,-103.39102,11.343955
5.5581193,-2.716979,5.0745025,-51.023502,-87.66489,18.47998
5.1944947,-2.9002311,4.946971,-39.795204,-78.78155,19.48494
5.0258255,-3.1880016,4.7680306,-25.424429,-61.269737,14.5657835
4.3308487,-2.378928,4.950721,-16.641453,-46.337822,12.519199
4.7327814,-1.2004069,5.1582723,-15.140014,-32.756508,11.594776
4.698907,-1.0934186,5.0626955,-3.4199598,-21.596996,8.165848
4.203834,-1.4086967,4.8969097,6.684599,-18.471523,3.216546
4.548103,-1.9534938,5.015907,20.147661,-10.73015,9.444279
4.84491,-1.8945984,5.2621665,20.428432,-2.8586564,11.722088
6.393755,-1.3872336,5.998157,17.839245,12.761458,16.392979
6.4511576,-1.1032507,6.328102,20.580345,31.162241,22.790842
6.2968235,-1.9203811,6.1826253,23.669168,46.93945,29.633411
6.2024846,-2.2548854,6.06903,38.374348,68.18814,29.937603
6.3692517,-2.71445,5.9560885,47.3189,82.154884,25.852903
6.2101755,-2.7815428,5.8328824,53.517002,102.900276,22.918482
5.5884285,-2.4406445,5.343941,60.260246,119.91829,22.051168
5.088957,-2.0746832,4.3200836,65.20913,130.07649,26.578915
3.545017,-1.5769721,2.9965754,78.59561,138.17241,22.85483
2.145069,-1.0877261,1.769602,79.97091,135.10687,22.521738
1.4633143,-0.47533393,1.1907611,75.824745,140.56674,22.17838
0.54007614,-0.43595615,-0.026935652,77.239845,147.94513,12.226815
-0.38434422,-0.4327847,-1.5675434,76.85507,146.66304,0.30984873
-1.8550897,-0.38360006,-2.9134429,84.40058,140.30623,-20.066553
-2.277104,-0.42015484,-3.4759333,78.45505,130.40512,-29.12082
-1.4071132,-0.7516344,-3.6083004,71.90753,122.19746,-24.69731
-0.30752254,-1.5581433,-4.5863996,73.524,125.55006,-33.779827
0.37967545,-1.4450611,-5.5103135,81.967155,127.932785,-51.07566
0.6025402,-0.6044877,-6.1857376,73.81718,125.80747,-48.546753
-0.8452594,-0.7451513,-7.6291127,62.447918,113.3703,-25.846548
-2.2033577,-1.1158148,-7.9234476,57.262966,94.27762,-9.336321
-3.361703,-0.87392044,-8.105404,54.641174,71.99296,-1.7167805
-3.497416,0.38716102,-7.790237,54.562798,52.749866,2.5488443
-3.5995767,1.5480249,-7.10814,59.72567,26.540789,-5.609231
-1.7217644,4.1676245,-5.6835537,58.3669,20.029945,-19.206402
-0.046217497,6.194184,-3.9431007,50.82308,19.748482,-31.52825
1.3459549,9.590103,-2.3267288,35.341454,25.930798,-45.800755
2.454204,12.507632,-0.91590387,3.7775693,28.828318,-56.13377
2.639369,12.604978,-0.6416035,-43.0742,28.77552,-66.9565
1.9740663,11.136892,-0.6999791,-61.638542,30.59235,-82.498825
1.7483523,9.433765,-0.9804036,-73.028625,30.597284,-110.74058
1.7617884,7.8418183,-1.2936553,-81.12476,28.904366,-124.13202
1.4396125,6.377767,-1.6774682,-94.1645,30.28151,-122.52002
0.8323401,5.448641,-1.6450002,-107.457825,18.017403,-149.19698
1.5232328,3.1742096,-1.2001883,-107.63524,20.914358,-177.33592
2.2028728,0.69030184,-1.1117778,-111.48471,24.874039,-175.07903
1.706969,-1.4779788,-1.7451159,-115.65334,29.03067,-147.01764
0.1741262,-4.2437205,-2.0555036,-107.84468,22.658424,-130.73105
-0.7784168,-6.598689,-1.751175,-84.7753,13.359544,-128.94865
-1.0474356,-8.618421,-1.6900766,-67.95046,8.049655,-108.84785
-1.1217684,-9.1693325,-1.5890229,-48.674023,5.041876,-93.82912
-0.7728927,-8.167634,-1.1833318,-28.904562,1.4952922,-83.32471
-0.19939654,-6.3438163,-0.1807146,-23.892199,4.3455925,-70.112656
-0.03301257,-5.1002154,-0.18024549,-17.47358,5.080598,-46.79996
-1.0092365,-5.1958356,-1.3782526,-11.6479,1.0844493,-41.629208
-1.2048559,-4.8649154,-1.9383298,-4.246547,-8.655203,-42.79596
-0.4685642,-4.652784,-2.340439,-8.358439,-13.854942,-22.81027
-0.56063217,-4.027028,-2.7724833,-5.6235228,-15.692773,-3.8653324
-0.9465256,-3.428344,-3.2830317,-0.14687425,-13.232463,4.2571836
-1.9875124,-2.1909592,-3.8528414,7.0955606,-18.825014,6.7566032
-2.7597437,-1.1690367,-4.4569,12.674304,-25.638742,5.7190795
-3.6241121,0.15892056,-4.9927573,9.2119255,-36.534313,2.8331776
-4.2641244,0.6702262,-5.42108,5.748686,-54.917667,4.5233636
-4.6352196,1.0136764,-5.9367576,5.2396727,-76.0298,3.7672029
-4.5185795,1.7844613,-6.2687807,0.5609778,-94.57798,-3.5930007
-3.8449082,2.2136788,-5.805701,-3.997982,-107.52345,-5.8465347
-2.27564,2.6830597,-4.925604,-6.269173,-119.74368,-12.40978
-0.08021316,1.9362534,-4.295561,-10.402386,-117.635605,4.1898427
0.35296226,1.3906094,-3.9738472,-25.619534,-107.81663,13.207283
-1.5739399,-0.51402897,-4.7563176,-32.06558,-111.9577,-0.35936654
-2.8024442,-2.1473095,-5.3601146,-25.942759,-134.5613,-7.152622
-3.2809796,-1.9183023,-4.7583194,-21.214346,-158.03772,-3.2191954
-2.5804033,-1.258266,-3.8403497,-25.38475,-190.28584,-4.786621
-0.6134475,-0.036220558,-1.8269273,-31.020636,-201.477,-4.707515
2.2098413,-0.008700341,0.5782675,-41.733326,-192.21643,3.3517516
2.6704946,-0.8726512,1.8849401,-45.313026,-174.67339,5.7651553
2.3712924,-1.692143,2.3475733,-42.70446,-169.358,4.024018
3.1327887,-2.1441793,3.0680575,-34.39449,-165.56108,-1.8380796
5.243009,-2.173248,4.4540524,-32.615414,-160.96616,-6.0066695
9.192957,-2.0513313,7.088409,-27.582754,-136.02345,6.267727
10.497511,-2.434664,8.362078,-22.762121,-90.20756,19.587141
9.584091,-3.080166,8.546617,-21.292969,-58.411728,22.795414
8.959222,-3.314322,8.260445,-12.564609,-35.277973,26.871956
8.170868,-3.691433,8.01567,4.1096535,-5.680318,34.495777
7.0412602,-4.3026805,7.432646,10.010666,17.524141,42.93489
5.3644857,-5.1561165,6.33088,22.876347,34.67172,47.084736
4.013089,-5.622463,4.661692,27.352299,45.746536,56.22231
2.780391,-6.3355837,3.1345954,50.2879,47.44223,63.794434
1.6706951,-7.0939326,1.7385588,70.50748,42.294678,76.09044
0.8804799,-7.425163,0.72359395,85.4663,40.553284,84.633705
0.42085642,-7.2039714,-0.4768775,96.710655,38.26389,95.66609
0.31685168,-6.8388886,-1.167525,108.567314,39.395245,109.03528
-0.11609313,-5.9502306,-1.7329447,117.31317,39.366127,122.15146
-0.6239126,-4.769153,-2.1883197,132.42448,34.765793,127.57136
-1.2604418,-3.082419,-2.8427668,139.3128,25.891459,129.54721
-1.3499823,-2.166717,-3.2759392,143.06276,16.235943,143.77132
-1.4715639,-1.1437697,-3.3933976,144.89862,10.309931,142.30632
-1.3955375,0.35582352,-3.362905,151.56552,0.41309452,137.91641
-0.795574,1.8842536,-3.3670504,139.19868,-4.030459,138.20717
-0.100493945,3.1055844,-3.0718336,129.13486,-2.2357523,137.79883
0.0961882,3.9699297,-3.0597875,124.16344,1.6257646,131.7805
-0.0097833555,5.4777727,-2.9819386,114.84751,5.690395,115.90788
-0.24493538,6.7133,-2.9676104,106.07974,-4.419374,91.459694
0.1535409,7.1090407,-2.87795,81.86984,-12.405031,79.59503
1.7835381,8.277117,-2.307721,55.45122,-14.748112,77.27762
2.6794438,8.688423,-2.2089944,33.613842,-2.2471445,65.751945
2.1499264,8.457938,-2.0728426,21.917524,-1.695697,48.96939
1.6820244,9.101901,-2.5066478,13.986583,-4.0196176,25.498402
2.0569963,9.334425,-2.5424154,-10.631771,-9.586285,7.3637457
2.4623556,9.421341,-2.395265,-26.774385,-10.688832,3.2001798
2.6050346,9.99349,-2.0973885,-45.164474,-7.805683,-15.916096
2.384385,10.296065,-1.7143487,-56.19235,-5.0362215,-40.815033
2.4803793,10.849041,-1.3461175,-75.276855,-8.251854,-60.22824
2.7622893,10.873703,-1.2336392,-106.51466,-7.842489,-73.023445
2.7059853,9.757212,-1.3556032,-126.741646,-6.446319,-89.05468
3.0453188,8.14572,-1.903936,-134.6167,-1.8709283,-104.69402
3.1813471,6.885526,-2.3766637,-143.72472,0.11324355,-123.71453
3.2036016,5.6454268,-2.826662,-149.27184,2.0910854,-132.55795
3.173331,4.667972,-2.8752859,-164.51413,0.7480353,-141.78459
2.9825177,2.7001767,-3.1268606,-167.01985,2.8758383,-143.67406
2.8812366,1.8087919,-3.1804826,-170.74274,-0.28814673,-153.00853
2.7586622,0.44756597,-3.3665676,-171.67003,-0.9836913,-154.75853
2.3591561,-0.90876985,-3.1786635,-170.63237,-3.0272448,-154.67888
1.997709,-1.6529995,-2.4731867,-167.22702,-9.113298,-155.07693
2.434953,-3.200191,-1.8465508,-165.09702,-13.703616,-148.68954
3.539314,-5.1023965,-1.639739,-164.29834,-9.618867,-137.44897
4.1386437,-7.3336368,-1.5876542,-152.65744,-2.8558974,-121.46959
3.8082576,-9.356749,-1.643039,-144.39435,5.741267,-109.058556
3.1568959,-10.62353,-1.2589569,-116.71513,15.524458,-83.45686
1.1860874,-11.760121,-0.6921903,-90.82336,15.329792,-65.35525
-0.19587713,-11.221961,-0.22882108,-66.40542,13.3584585,-48.97182
-0.58113,-10.418064,0.08514027,-48.888206,12.281806,-32.162468
-0.96795005,-9.688103,0.48953116,-33.353664,14.350948,-16.79066
-1.3217643,-8.723093,0.52787364,-11.458663,10.648398,-0.9563644
-1.3199712,-7.458601,0.39687538,2.412766,12.470097,8.327506
0.0,0.0,0.0,0.0,0.0,0.0
0.0,0.0,0.0,0.0,0.0,0.0
0.0,0.0,0.0,0.0,0.0,0.0
0.0,0.0,0.0,0.0,0.0,0.0
0.0,0.0,0.0,0.0,0.0,0.0
0.0,0.0,0.0,0.0,0.0,0.0
0.0,0.0,0.0,0.0,0.0,0.0
0.0,0.0,0.0,0.0,0.0,0.0
0.0,0.0,0.0,0.0,0.0,0.0
0.0,0.0,0.0,0.0,0.0,0.0
0.0,0.0,0.0,0.0,0.0,0.0
0.0,0.0,0.0,0.0,0.0,0.0
0.0,0.0,0.0,0.0,0.0,0.0
0.0,0.0,0.0,0.0,0.0,0.0
0.0,0.0,0.0,0.0,0.0,0.0
0.0,0.0,0.0,0.0,0.0,0.0
0.0,0.0,0.0,0.0,0.0,0.0
0.0,0.0,0.0,0.0,0.0,0.0
