ax,ay,az,gx,gy,gz
-0.58273256,0.017272884,-3.8763988,-5.270957,-3.329121,4.8827715
-0.4713667,-0.20536721,-4.0677485,-1.7127221,-10.438427,4.679429
-0.43182197,-0.2967045,-4.1602554,1.2470648,-16.37517,6.0863547
-0.39049307,-0.42897296,-4.255913,5.110603,-23.602585,7.5100694
-0.31620803,-0.69929004,-4.349059,9.7744465,-31.397707,7.617983
-0.23938628,-1.1925675,-4.4456954,17.611147,-39.22146,5.892588
-0.1683957,-1.8426092,-4.476425,29.532278,-45.65397,4.9121103
-0.042554636,-2.361532,-4.41844,41.705727,-50.14099,7.224722
0.09995052,-2.6786237,-4.343965,52.09936,-53.547813,14.1664505
0.22770125,-2.803963,-4.287023,60.128864,-56.38727,23.312038
0.2930218,-2.8321354,-4.248218,67.540344,-59.046803,32.523716
0.3081829,-2.7389922,-4.2025385,75.272385,-61.705334,40.674862
0.32027334,-2.47757,-4.1276197,81.80808,-64.55314,47.713806
0.34795475,-2.0764122,-4.0045285,85.80211,-67.20328,52.846935
0.34060568,-1.5378993,-3.8658583,88.245255,-69.95591,54.871292
0.33735403,-1.0557,-3.7045748,89.307655,-72.70733,55.320366
0.36486235,-0.6325835,-3.512522,89.06232,-75.03484,55.28016
0.38391915,-0.23974973,-3.3095696,87.56572,-76.884796,55.033127
0.37799945,0.12243672,-3.1323276,84.40112,-78.52731,54.29338
0.3571912,0.43833005,-2.979455,80.717606,-79.92134,53.07259
0.34648767,0.7421293,-2.8334866,76.777084,-81.07108,51.10296
0.34739646,1.0244284,-2.686704,72.59325,-81.8906,48.488987
0.36385435,1.2724781,-2.5421362,68.38833,-82.37601,45.360065
0.38135907,1.4784296,-2.403562,63.7997,-82.52579,41.884907
0.39593604,1.6505518,-2.2781124,58.983604,-82.48211,38.451347
0.41010708,1.8011605,-2.1754231,54.01653,-82.45284,34.94729
0.42545652,1.9225914,-2.0828733,49.14664,-82.53557,31.161394
0.45412564,2.0161133,-1.9868228,44.38438,-82.59393,27.093845
0.4875378,2.0786803,-1.8969561,39.66585,-82.64329,22.907051
0.54411095,2.1016107,-1.8063877,35.129917,-82.689575,18.413818
0.62660486,2.09997,-1.6986929,30.811049,-82.46259,14.018792
0.7171542,2.0891075,-1.5774112,26.492796,-81.85398,9.782782
0.8073946,2.0822997,-1.4510895,22.18622,-81.03789,5.5538464
0.91116995,2.0866222,-1.3122647,17.334047,-79.80477,1.2440099
1.0361737,2.0925398,-1.1654186,11.685586,-78.26046,-3.1704233
1.1616294,2.052716,-1.023812,5.460217,-76.1626,-7.781484
1.2597547,1.9410374,-0.9103522,-0.7345257,-73.563576,-12.5381565
1.3310686,1.7610174,-0.8360818,-6.7516546,-70.704895,-16.747864
1.3695717,1.5292072,-0.79528207,-12.143079,-68.01767,-19.577587
1.3733902,1.2820518,-0.7558904,-16.64026,-65.336395,-21.624699
1.3619713,1.0438529,-0.7148372,-19.966862,-62.486885,-23.290241
1.3362887,0.82224685,-0.68320477,-22.162535,-59.58858,-24.729595
1.2909751,0.604967,-0.66232383,-23.50579,-56.798954,-25.814436
1.2253729,0.38615042,-0.6550114,-24.228842,-54.2725,-26.294626
1.1479728,0.18285976,-0.64699584,-24.31649,-51.97341,-26.154041
1.0781612,0.0053968844,-0.6349725,-24.109919,-49.823734,-25.705454
1.020307,-0.15021476,-0.61719775,-23.720133,-47.720615,-24.978325
0.96545416,-0.29326367,-0.60275155,-23.051012,-45.69874,-23.985561
0.91262645,-0.42162004,-0.59215665,-21.907179,-43.834774,-22.693333
0.8657831,-0.5209054,-0.5766231,-20.607782,-42.102325,-21.203793
0.8246431,-0.59598553,-0.5510368,-19.2931,-40.39413,-19.486137
0.7844481,-0.6521013,-0.52257514,-18.014662,-38.696335,-17.680912
0.742908,-0.6958613,-0.49696606,-16.774632,-37.02844,-15.838275
0.70402694,-0.7285964,-0.47551274,-15.599474,-35.392765,-13.997908
0.66818196,-0.76183677,-0.45942885,-14.532714,-33.821957,-12.098603
0.63207245,-0.8034899,-0.45198938,-13.4991865,-32.351284,-10.091967
0.5963259,-0.85447586,-0.45254874,-12.332744,-30.962318,-7.9959197
0.5626575,-0.9073884,-0.45747948,-10.938431,-29.61354,-5.7895875
0.5273856,-0.9540278,-0.47036827,-9.340812,-28.486555,-3.4010675
0.49678716,-0.9871534,-0.48296195,-7.603156,-27.542772,-0.9682025
0.47304952,-1.0082619,-0.49088886,-5.803828,-26.71156,1.489901
0.45276707,-1.0170008,-0.49607608,-4.1248307,-25.986547,3.9746659
0.43613073,-1.0150616,-0.49998412,-2.504208,-25.322262,6.4361596
0.4225196,-1.0045482,-0.50962555,-0.9316994,-24.873806,8.9405365
0.40278003,-0.993173,-0.52788043,0.45719054,-24.729414,11.52389
0.3770998,-0.98401636,-0.55549806,1.9397895,-24.981907,14.0955105
0.35014424,-0.9745617,-0.58708143,3.5383189,-25.728533,16.671738
0.34015852,-0.95579714,-0.6006109,5.432355,-26.457745,19.190252
0.34015346,-0.90068007,-0.60343385,7.22373,-27.022081,21.320004
0.34808838,-0.79980016,-0.59532076,8.550361,-27.433262,22.91725
0.34859502,-0.7054653,-0.59419614,9.428585,-27.78992,24.140621
0.33646196,-0.6352458,-0.6028383,10.126289,-28.159994,25.284609
0.31574354,-0.56826836,-0.6213879,10.680773,-28.661234,26.390778
0.29510495,-0.49759793,-0.64446443,11.065995,-29.386019,27.474056
0.27694955,-0.41315442,-0.6661815,11.372838,-30.214615,28.39997
0.2639451,-0.32558814,-0.6855424,11.725652,-31.064386,29.069607
0.25711846,-0.23632637,-0.70167947,12.097841,-31.899935,29.491621
0.2521562,-0.1460522,-0.7189654,12.432846,-32.756496,29.749569
0.24555634,-0.052806314,-0.7399188,12.799359,-33.85105,29.690987
0.2435525,0.046785593,-0.7555279,13.096282,-35.127632,29.441881
0.24870169,0.1520458,-0.76641154,13.233628,-36.4822,29.0066
0.2563923,0.26115528,-0.7788963,13.232066,-37.906494,28.272144
0.2698442,0.36958808,-0.79050773,13.0769415,-39.344513,27.305952
0.28453073,0.48057762,-0.8076256,12.631277,-40.83617,26.127056
0.2876245,0.5938877,-0.84433466,12.399333,-42.502502,24.617718
0.27378848,0.7011569,-0.9006261,12.464197,-44.713524,22.713919
0.25483912,0.7964341,-0.9537711,12.77028,-47.353912,20.512703
0.2481941,0.89243877,-0.9989172,12.875135,-50.2988,18.220821
0.26232842,0.9861403,-1.0222154,12.528864,-53.23035,15.885155
0.2887373,1.0675559,-1.0284139,11.841657,-56.09549,13.453458
0.31042337,1.1337938,-1.0320348,11.013742,-59.03793,10.829389
0.33470988,1.1904474,-1.028182,10.082092,-62.08395,8.0171175
0.37801045,1.2337563,-0.99944055,8.948779,-64.949425,5.2289286
0.44015563,1.2595483,-0.9483899,7.347115,-67.27161,2.6435401
0.49942952,1.2611579,-0.8935722,5.505842,-69.26645,0.113150105
0.5577386,1.2470179,-0.83554447,3.4803193,-70.944466,-2.348785
0.61570877,1.2105645,-0.7732199,1.3011699,-72.29668,-4.6166563
0.6703513,1.1570386,-0.7076404,-1.0630132,-73.27815,-6.6146317
0.7303033,1.0884502,-0.6343775,-3.625451,-73.641304,-8.330351
0.8089863,1.0045266,-0.53368056,-6.3646483,-73.21509,-9.782356
0.88266456,0.9164966,-0.43615094,-9.244529,-72.04549,-10.885576
0.9241434,0.82152236,-0.36454466,-11.963342,-70.56576,-11.782592
0.9438387,0.7271591,-0.3069891,-14.499585,-68.9496,-12.529482
0.9548624,0.6308267,-0.25454938,-16.992374,-67.23747,-13.111926
0.9712202,0.5204773,-0.20509727,-19.281227,-65.45146,-13.620852
0.9892804,0.3901549,-0.15881886,-21.184034,-63.660534,-14.146206
1.0100815,0.24853703,-0.10475635,-22.829165,-61.714375,-14.41133
1.0278287,0.11194979,-0.04833269,-24.367527,-59.583576,-14.315927
1.0380023,-0.022885406,0.0058556735,-25.469316,-57.18638,-13.926515
1.0384699,-0.1439555,0.057318125,-26.199697,-54.66246,-13.429383
1.0366778,-0.24586281,0.10729449,-26.75305,-52.044357,-12.81647
1.0307637,-0.3348846,0.1564554,-27.155888,-49.367367,-12.135215
1.0289006,-0.41067773,0.21333791,-27.494745,-46.51532,-11.385823
1.0403755,-0.47425,0.27994457,-28.08368,-43.252033,-10.420145
1.0951924,-0.5229927,0.38202932,-29.12983,-39.23847,-9.075605
1.1828923,-0.5614227,0.49896964,-30.599829,-34.214657,-7.407834
1.2942489,-0.6017996,0.61883193,-32.250248,-27.900257,-5.419375
1.2539165,-0.58304584,0.5995474,-31.24524,-27.030806,-5.250492
1.2148436,-0.56487775,0.5808651,-30.271618,-26.188509,-5.0868835
1.1769909,-0.547277,0.5627662,-29.328398,-25.372513,-4.9283834
1.1403198,-0.5302257,0.5452323,-28.414625,-24.581991,-4.774832
1.1047934,-0.5137067,0.52824575,-27.529375,-23.816145,-4.626073
1.0703758,-0.49770314,0.51178926,-26.671751,-23.0742,-4.481957
1.0370321,-0.48219898,0.4958463,-25.840887,-22.355406,-4.3423376
1.0047286,-0.46717852,0.4804007,-25.035946,-21.659037,-4.207074
0.97343284,-0.45262662,0.46543697,-24.256115,-20.98439,-4.07603
0.94311315,-0.43852857,0.45093992,-23.500605,-20.330786,-3.9490733
0.913739,-0.4248702,0.43689498,-22.768658,-19.697565,-3.8260758
0.8852809,-0.41163772,0.42328802,-22.059534,-19.08409,-3.7069137
0.85771,-0.39881784,0.4101053,-21.37252,-18.489742,-3.591467
0.8309987,-0.38639763,0.39733353,-20.706924,-17.913923,-3.4796193
0.80512005,-0.37436458,0.38495994,-20.062077,-17.356054,-3.3712583
0.7800481,-0.3627066,0.372972,-19.43733,-16.815575,-3.266275
0.75575745,-0.35141197,0.36135772,-18.832054,-16.29194,-3.1645637
0.7322239,-0.34046933,0.35010538,-18.245642,-15.784625,-3.0660222
0.7094237,-0.3298677,0.3392037,-17.677504,-15.293119,-2.9705515
0.68733394,-0.3195964,0.3286417,-17.12707,-14.816928,-2.8780556
0.66593254,-0.30964518,0.31840882,-16.593784,-14.355575,-2.788442
0.6451978,-0.30000398,0.30849475,-16.077116,-13.908595,-2.70162
0.62510914,-0.29066312,0.29888955,-15.576544,-13.475541,-2.6175034
0.60564625,-0.2816133,0.2895836,-15.091565,-13.055979,-2.536007
0.5867897,-0.27284536,0.2805675,-14.6216955,-12.649486,-2.4570494
0.5685205,-0.26435056,0.27183226,-14.166461,-12.255654,-2.380551
0.55082035,-0.25612032,0.2633691,-13.725407,-11.87409,-2.3064358
0.5336715,-0.24814647,0.25516957,-13.29809,-11.504411,-2.234629
0.51705676,-0.24042097,0.24722542,-12.884082,-11.146246,-2.1650584
0.5009595,-0.23293605,0.23952867,-12.482968,-10.799235,-2.0976548
0.48536357,-0.22568426,0.23207164,-12.094347,-10.463032,-2.0323503
0.47025332,-0.2186583,0.22484683,-11.717828,-10.137299,-1.9690795
0.45561364,-0.21185113,0.217847,-11.353034,-9.82171,-1.9077791
0.44142982,-0.20525596,0.21106517,-10.9996,-9.515947,-1.8483877
0.4276877,-0.19886614,0.2044945,-10.657173,-9.2197075,-1.7908456
0.41437352,-0.1926753,0.19812846,-10.325408,-8.932692,-1.7350954
0.40147388,-0.18667725,0.19196063,-10.003974,-8.6546135,-1.6810812
0.38897592,-0.18086594,0.18598486,-9.692548,-8.385193,-1.6287488
0.3768671,-0.17523558,0.18019515,-9.390819,-8.124163,-1.5780458
0.3651353,-0.16978054,0.17458571,-9.098485,-7.8712587,-1.5289216
0.3537688,-0.16449533,0.16915093,-8.815252,-7.62623,-1.4813268
0.34275615,-0.1593747,0.16388535,-8.540838,-7.3888297,-1.435214
0.3320864,-0.15441348,0.15878373,-8.274968,-7.1588206,-1.3905368
0.32174885,-0.14960672,0.15384093,-8.017376,-6.935973,-1.3472507
0.31173316,-0.14494962,0.14905202,-7.7678037,-6.720063,-1.3053122
0.30202928,-0.14043751,0.1444122,-7.526001,-6.5108757,-1.2646793
0.29262748,-0.13606587,0.13991685,-7.2917266,-6.3082004,-1.2253115
0.2835184,-0.13183033,0.13556144,-7.0647454,-6.1118355,-1.1871693
0.27469292,-0.12772666,0.13134162,-6.8448305,-5.921583,-1.1502146
0.2661422,-0.12375074,0.12725316,-6.6317625,-5.737254,-1.1144103
0.25785765,-0.119898595,0.123292,-6.4253273,-5.5586634,-1.0797206
0.249831,-0.116166376,0.119454145,-6.2253184,-5.3856325,-1.0461109
0.24205425,-0.11255033,0.11573577,-6.0315366,-5.217988,-1.0135474
0.23451959,-0.10904687,0.112133145,-5.8437867,-5.0555625,-0.9819978
0.22721948,-0.10565247,0.108642675,-5.661882,-4.8981934,-0.9514302
0.22014663,-0.102363735,0.105260864,-5.4856396,-4.7457232,-0.92181426
0.21329395,-0.09917738,0.10198432,-5.3148837,-4.5979996,-0.8931202
0.2066546,-0.09609021,0.098809786,-5.1494436,-4.454874,-0.86531943
0.20022193,-0.093099155,0.09573407,-4.989154,-4.3162045,-0.8383841
0.1939895,-0.0902012,0.092754096,-4.8338532,-4.1818514,-0.8122872
0.18795109,-0.087393455,0.08986689,-4.6833873,-4.0516806,-0.7870027
0.18210064,-0.08467312,0.08706956,-4.5376053,-3.925562,-0.7625053
0.17643231,-0.082037464,0.08435931,-4.3963614,-3.8033693,-0.7387704
