ax,ay,az,gx,gy,gz
0.26091146,0.034545768,-0.4354585,-12.0410185,24.08113,19.753817
0.46011686,-0.22824758,-0.4285695,-17.732883,35.29043,23.428417
0.22158264,-0.43887174,-0.72925293,-20.029985,40.76989,22.958076
-0.11272242,-0.6359733,-1.1353269,-19.982496,40.12779,21.745525
-0.45116016,-0.84374374,-1.5486224,-19.170872,34.895817,21.05583
-0.6733866,-1.1357104,-1.8743689,-18.078989,27.474453,21.753067
-0.77937776,-1.4817226,-2.1218054,-15.498625,18.962133,23.831594
-0.7866189,-1.8493295,-2.3109567,-11.487801,11.233175,26.40528
-0.7590051,-2.1444087,-2.435304,-6.2850075,4.727781,29.344719
-0.7275266,-2.3666487,-2.518705,-0.49651778,-0.8585748,33.169987
-0.68914133,-2.4833689,-2.573858,5.5787363,-5.68589,37.477066
-0.63511115,-2.4751525,-2.5941164,11.59742,-9.960131,41.515404
-0.5788254,-2.3633883,-2.5879343,16.617567,-13.858933,45.071632
-0.5112728,-2.2298043,-2.5564084,20.81358,-17.391422,48.354904
-0.4294594,-2.0934474,-2.5079534,24.075619,-20.239483,51.43898
-0.34533697,-1.964303,-2.4525645,26.59719,-22.368437,54.481873
-0.27289608,-1.8427793,-2.3891377,29.167147,-23.980902,57.28519
-0.20902337,-1.6540674,-2.314149,31.71872,-25.788143,59.241833
-0.15744497,-1.3987339,-2.245603,33.783096,-28.09772,59.984074
-0.10486946,-1.1266233,-2.1707602,34.887993,-30.490185,59.65454
-0.06634857,-0.90359,-2.102691,35.479614,-32.78745,58.646446
-0.03233962,-0.72333,-2.036801,35.89043,-34.833,57.4021
-0.0056968564,-0.5487895,-1.9753207,36.26749,-36.820835,56.014694
0.029576043,-0.3655378,-1.90936,36.5852,-38.786377,54.32275
0.07195658,-0.1722842,-1.8315873,36.61869,-40.497078,52.295383
0.107724965,0.018513704,-1.7444288,36.170956,-41.906868,50.0425
0.1293954,0.19351102,-1.6587678,35.182613,-43.13643,47.42095
0.15907925,0.35765946,-1.5657581,34.03735,-44.27584,44.58235
0.20640306,0.5176134,-1.4606065,32.67406,-45.21046,41.561146
0.24778838,0.65791655,-1.3630048,31.24612,-46.0406,38.33108
0.28134322,0.7795142,-1.2738383,29.86613,-46.8082,34.92615
0.3121309,0.89130694,-1.1838405,28.377718,-47.38211,31.369268
0.34118068,0.9969492,-1.0981627,26.658241,-47.789276,27.825068
0.36788964,1.0968016,-1.0211209,24.665005,-48.14288,24.292313
0.39709798,1.1846545,-0.9496983,22.085846,-48.498962,20.9644
0.42605594,1.2501763,-0.88489085,18.999744,-48.822563,17.886208
0.4461375,1.289051,-0.8320572,15.811028,-49.24755,14.681928
0.47416097,1.2930852,-0.7789501,12.932337,-49.56033,11.266063
0.51003695,1.2755291,-0.72311515,10.304964,-49.679863,7.7484894
0.5503676,1.2449775,-0.66149765,7.6874437,-49.561687,4.2937765
0.59557515,1.2073605,-0.59355783,4.7794256,-49.183784,1.1108736
0.63788235,1.1516758,-0.5305483,1.6391515,-48.522976,-1.7620338
0.6722019,1.063072,-0.47509086,-1.2710416,-47.759007,-4.4145536
0.69995254,0.96346575,-0.42003053,-3.65451,-46.939922,-6.962682
0.72301984,0.8669519,-0.35993287,-5.848736,-46.055344,-9.29533
0.7504368,0.7789668,-0.29220763,-8.254272,-45.004253,-11.299032
0.782349,0.6894681,-0.22644755,-11.2115555,-43.762672,-12.813488
0.81313646,0.5671802,-0.16912052,-14.084324,-42.366383,-14.124061
0.8340317,0.4169883,-0.11896357,-16.46959,-40.772083,-15.257321
0.844202,0.25960392,-0.076312914,-18.373749,-39.01725,-16.153408
0.8413958,0.10575338,-0.04436262,-19.969059,-37.199,-16.742846
0.82278925,-0.047649242,-0.028274355,-21.109688,-35.465065,-16.891731
0.7882533,-0.20113349,-0.026862089,-21.837908,-33.92346,-16.829035
0.75438344,-0.34662005,-0.024371974,-22.037287,-32.401207,-16.583921
0.7187585,-0.47748688,-0.02704299,-21.877436,-30.887035,-16.202358
0.6808149,-0.5958138,-0.035456926,-21.429396,-29.422565,-15.677724
0.6423804,-0.7060448,-0.04655646,-20.578197,-28.06167,-14.85713
0.60235226,-0.80508286,-0.06400616,-19.423735,-26.859966,-13.834154
0.5684625,-0.88806075,-0.0789686,-18.051395,-25.801018,-12.660366
0.55056494,-0.94906765,-0.08590762,-16.658243,-24.78367,-11.315585
0.54619396,-0.99330634,-0.08623545,-15.310253,-23.742722,-9.8239155
0.55331516,-1.0237501,-0.081594974,-14.106319,-22.56223,-8.218361
0.5543068,-1.0471241,-0.08422583,-13.212518,-21.247227,-6.4122143
0.5423022,-1.0760107,-0.09863157,-12.438164,-19.924511,-4.477542
0.5199314,-1.1105334,-0.12364285,-11.633448,-18.70023,-2.434522
0.4918702,-1.1474096,-0.15547442,-10.656289,-17.62354,-0.31620422
0.4613967,-1.1810149,-0.19019926,-9.45214,-16.708616,1.9610056
0.43272027,-1.2003368,-0.2223756,-8.20472,-15.900734,4.2921095
0.40896797,-1.211504,-0.2507238,-6.999229,-15.108318,6.716391
0.38278988,-1.2172595,-0.28561684,-5.7990313,-14.424143,9.117939
0.35719737,-1.2228231,-0.32116225,-4.537793,-13.896872,11.486119
0.33382133,-1.2294422,-0.35247576,-3.0156484,-13.588903,13.894093
0.31137678,-1.2309842,-0.3833575,-1.2647321,-13.446172,16.276735
0.29344562,-1.2253394,-0.415347,0.6956517,-13.441726,18.65448
0.28247058,-1.2094258,-0.4485673,2.727016,-13.479939,21.052755
0.26748765,-1.1809952,-0.4894978,4.848362,-13.586458,23.405401
0.23996902,-1.1373063,-0.5414853,7.2574735,-14.18731,25.528858
0.20807129,-1.0554339,-0.59437126,9.75399,-15.333411,27.297947
0.18837889,-0.9502482,-0.6352545,11.924893,-16.72351,28.7323
0.18817778,-0.8388192,-0.66349584,13.77539,-18.114809,29.846975
0.1944729,-0.73353994,-0.68572176,15.368072,-19.430405,30.744923
0.20040779,-0.63498944,-0.7055631,16.701923,-20.644053,31.631222
0.19831869,-0.534637,-0.7289821,17.864258,-21.891666,32.454453
0.1949448,-0.42967644,-0.7543532,18.881838,-23.197115,33.067074
0.19453809,-0.31997162,-0.7795087,19.676964,-24.568108,33.431877
0.19788109,-0.20218745,-0.7992125,20.203276,-25.956625,33.50712
0.206233,-0.079469755,-0.80852693,20.417809,-27.264412,33.060833
0.21582438,0.042661633,-0.8121491,20.273207,-28.551563,32.397118
0.2270544,0.15579534,-0.816095,19.702631,-29.878141,31.624378
0.23943178,0.25709093,-0.81781566,18.67007,-31.233318,30.86664
0.24693659,0.35156846,-0.81421894,17.253489,-32.56844,30.115757
0.24819115,0.44139087,-0.8047552,15.358124,-33.90134,29.319885
0.23607105,0.5156597,-0.80473155,13.4902935,-35.329605,28.239698
0.21491557,0.58128923,-0.8159424,11.794269,-36.97244,26.765865
0.19530462,0.64334303,-0.83067787,10.142277,-38.813442,25.067493
0.19129226,0.705814,-0.83672345,8.332518,-40.72422,23.338785
0.2062582,0.7621249,-0.82822853,6.1619596,-42.370533,21.658865
0.22794098,0.7970951,-0.8174385,3.922459,-43.846684,19.949886
0.24803463,0.8233396,-0.8065508,1.8145245,-45.114223,18.109756
0.2658401,0.85085106,-0.7960059,-0.11456725,-46.23319,16.163568
0.27830693,0.8906461,-0.7856364,-1.9524662,-47.257862,14.0307665
0.28604144,0.94486576,-0.7754369,-3.927006,-48.315125,11.639101
0.2993711,1.0023148,-0.76334107,-6.3101573,-49.390617,9.240618
0.33126053,1.0373588,-0.74444574,-9.167168,-50.316135,6.871743
0.3657383,1.0409677,-0.72926426,-11.9650135,-51.113552,4.335275
0.39507812,1.0232761,-0.71874034,-14.545607,-51.84595,1.7183826
0.41919264,0.9979338,-0.7126022,-17.014814,-52.654415,-0.8583686
0.4447663,0.96427673,-0.71052456,-19.635115,-53.58987,-3.3448262
0.4791144,0.9185428,-0.7038958,-22.637857,-54.631172,-5.553528
0.5244562,0.8558719,-0.6897091,-26.370777,-55.71983,-7.101086
0.57807666,0.7777002,-0.6677654,-30.911835,-56.667828,-7.63715
0.6341974,0.68364096,-0.6399294,-35.402157,-57.22077,-7.8291173
0.6881262,0.5516206,-0.61146766,-38.560837,-57.48431,-8.785727
0.74707085,0.39763665,-0.5761338,-40.385914,-57.448483,-10.330805
0.8068535,0.23026301,-0.52999747,-41.288296,-57.109398,-11.901768
0.86417544,0.061263505,-0.47305414,-41.646935,-56.402344,-13.064081
0.9173378,-0.09232679,-0.40850934,-41.672897,-55.21332,-13.571884
0.9580882,-0.2196168,-0.3438929,-41.448902,-53.738094,-13.768992
0.98444736,-0.3301243,-0.2830707,-40.952328,-52.046474,-13.773574
0.9961179,-0.42272362,-0.2263911,-40.267765,-50.21178,-13.627765
1.0015978,-0.49542058,-0.17073324,-39.541824,-48.259422,-13.319166
1.0018595,-0.5549754,-0.116501115,-38.7891,-46.19497,-12.885206
0.99435604,-0.59715736,-0.06710793,-38.010426,-44.035225,-12.325972
0.9827566,-0.62179327,-0.021934995,-37.366325,-41.859196,-11.683412
0.97092724,-0.63357437,0.024663253,-36.995197,-39.448776,-10.944928
0.9591554,-0.64053375,0.06563401,-37.013973,-36.835957,-10.014649
0.9488097,-0.65456444,0.10158924,-37.127193,-34.028976,-9.086786
0.9192581,-0.63417745,0.09842515,-35.970833,-32.969112,-8.80377
0.8906281,-0.6144262,0.09535972,-34.850533,-31.942297,-8.529579
0.8628907,-0.5952907,0.092389874,-33.76516,-30.947498,-8.263937
0.836018,-0.5767518,0.08951262,-32.713623,-29.983713,-8.006577
0.8099831,-0.55879086,0.08672505,-31.69487,-29.049973,-7.757239
0.78475964,-0.5413897,0.08402437,-30.707869,-28.145334,-7.5156727
0.76032233,-0.5245309,0.08140786,-29.75163,-27.268894,-7.2816358
0.73664665,-0.5081975,0.0788729,-28.825193,-26.419765,-7.0548925
0.7137087,-0.4923731,0.07641693,-27.927626,-25.5971,-6.8352156
0.6914855,-0.47704178,0.07403749,-27.058027,-24.800068,-6.6223836
0.66995484,-0.46218818,0.07173219,-26.215523,-24.02787,-6.416183
0.64909494,-0.44779736,0.06949872,-25.39927,-23.279732,-6.216407
0.6288849,-0.43385488,0.06733482,-24.608444,-22.554901,-6.0228543
0.6093044,-0.42034674,0.06523835,-23.842257,-21.85265,-5.835332
0.590334,-0.40725937,0.06320717,-23.099937,-21.172276,-5.6536508
0.5719544,-0.3945797,0.061239272,-22.38074,-20.513096,-5.477629
0.55414736,-0.38229498,0.05933267,-21.683945,-19.874447,-5.3070903
0.536895,-0.3703929,0.057485446,-21.008852,-19.25569,-5.1418633
0.52017987,-0.3588615,0.05569576,-20.354786,-18.656204,-4.9817824
0.50398535,-0.34768924,0.053961813,-19.721092,-18.07539,-4.826687
0.48829523,-0.33686492,0.052281864,-19.107132,-17.512665,-4.676422
0.47309372,-0.32637772,0.050654236,-18.512293,-16.967464,-4.5308366
0.4583656,-0.3162171,0.049077295,-17.935976,-16.439241,-4.389785
0.44409612,-0.30637288,0.04754946,-17.377607,-15.927468,-4.2531257
0.430271,-0.29683518,0.0460692,-16.836626,-15.431631,-4.120722
0.41687638,-0.28759453,0.044635035,-16.31249,-14.951234,-3.992441
0.40389884,-0.27864158,0.043245528,-15.804676,-14.485796,-3.8681545
0.39132538,-0.2699674,0.041899282,-15.312674,-14.03485,-3.747738
0.37914342,-0.26156333,0.04059496,-14.83599,-13.597945,-3.6310709
0.36734077,-0.25342092,0.039331246,-14.374149,-13.174644,-3.5180364
0.3559056,-0.24553202,0.03810688,-13.926687,-12.764523,-3.4085214
0.34482646,-0.23788875,0.036920637,-13.493157,-12.36717,-3.302416
0.33409226,-0.23048344,0.03577132,-13.073126,-11.982189,-3.1996143
0.32369226,-0.2233087,0.034657795,-12.666171,-11.609195,-3.100013
0.31361607,-0.21635734,0.033578932,-12.271886,-11.247812,-3.0035129
0.30385357,-0.20962238,0.03253366,-11.889876,-10.897681,-2.910017
0.294395,-0.2030971,0.03152093,-11.51976,-10.558451,-2.819432
0.2852309,-0.19677499,0.030539729,-11.161166,-10.229781,-2.731667
0.2763521,-0.19064969,0.029589074,-10.813737,-9.911344,-2.6466346
0.26774973,-0.18471508,0.028668014,-10.477122,-9.602819,-2.5642493
0.25941512,-0.17896521,0.027775628,-10.150988,-9.303901,-2.4844286
0.25134,-0.17339435,0.026911024,-9.835007,-9.014287,-2.4070928
0.24351628,-0.16799693,0.026073337,-9.528862,-8.73369,-2.3321648
0.2359361,-0.16276751,0.025261726,-9.232247,-8.461827,-2.2595692
0.2285919,-0.1577009,0.02447538,-8.944867,-8.198429,-2.1892333
0.22147633,-0.15279202,0.023713514,-8.666432,-7.943229,-2.1210873
0.21458228,-0.14803594,0.022975367,-8.396666,-7.6959743,-2.0550625
0.20790282,-0.14342792,0.022260195,-8.135297,-7.456416,-1.9910932
0.20143129,-0.13896334,0.021567287,-7.882064,-7.2243156,-1.9291152
0.19516122,-0.13463774,0.02089595,-7.6367145,-6.9994397,-1.8690665
0.18908633,-0.1304468,0.020245511,-7.399002,-6.7815647,-1.810887
0.18320055,-0.12638633,0.019615319,-7.1686897,-6.5704713,-1.7545186
0.17749798,-0.122452244,0.019004744,-6.9455466,-6.3659496,-1.6999049
